time,ax,ay,az
2020-08-13 11:52:00.8220,-0.02,0.02,-0.01
2020-08-13 11:52:00.9110,-0.04,0.05,0.0
2020-08-13 11:52:01.0040,0.04,0.01,-0.02
2020-08-13 11:52:01.1010,0.07,0.05,-0.03
2020-08-13 11:52:01.1980,0.01,0.03,-0.03
2020-08-13 11:52:01.2970,0.14,0.08,-0.03
2020-08-13 11:52:01.3990,-0.03,0.02,0.0
2020-08-13 11:52:01.4520,-0.11,0.02,0.0
2020-08-13 11:52:01.5560,0.01,0.01,0.02
2020-08-13 11:52:01.6350,0.01,0.03,-0.03
2020-08-13 11:52:01.7220,0.07,0.03,-0.0
2020-08-13 11:52:01.8140,-0.03,0.04,-0.01
2020-08-13 11:52:01.9020,0.03,0.03,-0.0
2020-08-13 11:52:01.9940,-0.01,0.06,-0.02
2020-08-13 11:52:02.0990,-0.02,0.04,-0.05
2020-08-13 11:52:02.2030,-0.0,-0.01,0.05
2020-08-13 11:52:02.2870,0.07,-0.0,0.02
2020-08-13 11:52:02.3860,0.02,0.05,0.01
2020-08-13 11:52:02.4570,0.01,0.04,0.01
2020-08-13 11:52:02.5470,-0.02,-0.01,0.01
2020-08-13 11:52:02.6360,0.0,0.01,0.04
2020-08-13 11:52:02.7300,0.02,-0.01,0.0
2020-08-13 11:52:02.8320,0.02,-0.17,0.02
2020-08-13 11:52:02.9140,0.32,-0.65,0.02
2020-08-13 11:52:03.0120,0.07,-0.14,0.31
2020-08-13 11:52:03.0930,0.86,0.44,0.08
2020-08-13 11:52:03.1920,0.58,0.22,-0.06
2020-08-13 11:52:03.2810,0.15,-0.13,0.0
2020-08-13 11:52:03.3770,-0.56,-0.17,0.06
2020-08-13 11:52:03.4770,-0.25,-0.07,-0.11
2020-08-13 11:52:03.5770,-0.37,-0.1,-0.04
2020-08-13 11:52:03.6310,-0.54,-0.02,0.06
2020-08-13 11:52:03.7270,-0.52,0.08,-0.03
2020-08-13 11:52:03.8100,-0.35,0.1,-0.06
2020-08-13 11:52:03.9100,-0.2,0.12,-0.25
2020-08-13 11:52:04.0060,-0.22,-0.0,0.04
2020-08-13 11:52:04.0920,-0.1,-0.05,-0.05
2020-08-13 11:52:04.1820,0.06,-0.02,0.02
2020-08-13 11:52:04.2730,-0.02,0.01,-0.01
2020-08-13 11:52:04.3720,0.09,0.09,0.04
2020-08-13 11:52:04.4710,0.05,0.01,-0.02
2020-08-13 11:52:04.5710,0.11,0.05,0.02
2020-08-13 11:52:04.6320,0.04,-0.08,-0.15
2020-08-13 11:52:04.7240,0.03,-0.26,-0.02
2020-08-13 11:52:04.8130,0.45,-0.67,0.08
2020-08-13 11:52:04.9030,-0.12,-0.2,0.18
2020-08-13 11:52:04.9920,0.71,0.4,-0.01
2020-08-13 11:52:05.0890,0.49,0.25,-0.05
2020-08-13 11:52:05.1740,0.17,-0.08,-0.05
2020-08-13 11:52:05.2680,-0.32,-0.23,-0.05
2020-08-13 11:52:05.3670,-0.24,-0.09,-0.0
2020-08-13 11:52:05.4640,-0.39,-0.1,-0.05
2020-08-13 11:52:05.5620,-0.74,-0.03,0.04
2020-08-13 11:52:05.6640,-0.61,0.13,-0.03
2020-08-13 11:52:05.7700,-0.67,-0.58,-0.8
2020-08-13 11:52:05.8600,-0.26,0.14,0.27
2020-08-13 11:52:05.9140,0.04,-0.0,-0.07
2020-08-13 11:52:06.0100,-0.01,0.02,-0.02
2020-08-13 11:52:06.0990,0.03,0.04,0.03
2020-08-13 11:52:06.1880,0.04,0.06,-0.01
2020-08-13 11:52:06.2780,0.02,0.0,-0.03
2020-08-13 11:52:06.3640,-0.05,-0.01,-0.0
2020-08-13 11:52:06.4580,0.01,-0.02,0.01
2020-08-13 11:52:06.5530,0.0,-0.24,-0.09
2020-08-13 11:52:06.6520,0.24,-0.51,-0.07
2020-08-13 11:52:06.7520,0.12,-0.22,0.28
2020-08-13 11:52:06.8230,-0.09,0.28,0.18
2020-08-13 11:52:06.9040,0.56,0.31,-0.08
2020-08-13 11:52:07.0030,0.13,0.07,-0.06
2020-08-13 11:52:07.0820,0.05,0.01,-0.03
2020-08-13 11:52:07.1800,-0.06,-0.12,0.01
2020-08-13 11:52:07.2730,-0.23,-0.07,0.05
2020-08-13 11:52:07.3630,-0.25,-0.05,0.01
2020-08-13 11:52:07.4530,-0.43,0.06,-0.0
2020-08-13 11:52:07.5510,-0.55,0.11,-0.12
2020-08-13 11:52:07.6450,-0.32,-0.47,-0.47
2020-08-13 11:52:07.7450,0.02,0.07,0.19
2020-08-13 11:52:07.8510,0.04,-0.0,0.04
2020-08-13 11:52:07.9030,0.03,0.04,-0.02
2020-08-13 11:52:07.9940,-0.03,0.07,-0.02
2020-08-13 11:52:08.0830,-0.02,0.01,-0.02
2020-08-13 11:52:08.1720,0.08,0.02,0.02
2020-08-13 11:52:08.2620,0.07,-0.09,-0.05
2020-08-13 11:52:08.3550,0.05,-0.19,-0.04
2020-08-13 11:52:08.4430,0.21,-0.6,-0.05
2020-08-13 11:52:08.5420,-0.1,-0.12,0.2
2020-08-13 11:52:08.6380,0.92,0.51,-0.28
2020-08-13 11:52:08.7400,0.31,0.24,-0.14
2020-08-13 11:52:08.8030,0.17,0.04,-0.01
2020-08-13 11:52:08.8920,0.12,-0.04,0.03
2020-08-13 11:52:08.9820,-0.03,-0.14,0.0
2020-08-13 11:52:09.0720,-0.29,-0.12,0.04
2020-08-13 11:52:09.1620,-0.35,-0.06,-0.04
2020-08-13 11:52:09.2530,-0.53,0.02,0.01
2020-08-13 11:52:09.3580,-0.79,0.11,-0.17
2020-08-13 11:52:09.4480,-0.49,0.19,-0.23
2020-08-13 11:52:09.5280,-0.36,0.06,0.08
2020-08-13 11:52:09.6290,0.0,0.0,0.07
2020-08-13 11:52:09.7270,0.05,0.03,-0.02
2020-08-13 11:52:09.8290,-0.05,-0.01,-0.07
2020-08-13 11:52:09.9260,-0.02,0.0,-0.02
2020-08-13 11:52:09.9740,0.0,0.01,-0.01
2020-08-13 11:52:10.0760,0.02,-0.02,-0.03
2020-08-13 11:52:10.1650,0.04,-0.12,-0.08
2020-08-13 11:52:10.2480,0.13,-0.17,0.08
2020-08-13 11:52:10.3440,0.35,-0.34,0.13
2020-08-13 11:52:10.4270,0.05,0.02,0.15
2020-08-13 11:52:10.5240,0.63,0.33,-0.15
2020-08-13 11:52:10.6210,0.23,0.21,-0.06
2020-08-13 11:52:10.7180,-0.14,-0.0,-0.04
2020-08-13 11:52:10.8120,-0.04,-0.01,-0.02
2020-08-13 11:52:10.9100,-0.02,-0.09,-0.05
2020-08-13 11:52:11.0100,-0.15,-0.05,0.01
2020-08-13 11:52:11.0670,-0.25,-0.01,0.07
2020-08-13 11:52:11.1580,-0.32,0.06,0.02
2020-08-13 11:52:11.2480,-0.44,0.04,-0.04
2020-08-13 11:52:11.3530,0.01,-0.34,-0.19
2020-08-13 11:52:11.4290,-0.06,0.04,0.19
2020-08-13 11:52:11.5180,0.01,-0.01,0.02
2020-08-13 11:52:11.6160,-0.02,0.04,0.01
2020-08-13 11:52:11.7050,-0.02,0.04,-0.03
2020-08-13 11:52:11.8040,-0.01,-0.0,-0.03
2020-08-13 11:52:11.9050,0.0,-0.03,-0.01
2020-08-13 11:52:12.0010,0.03,-0.08,-0.03
2020-08-13 11:52:12.0570,0.08,-0.11,-0.04
2020-08-13 11:52:12.1480,0.37,-0.59,0.08
2020-08-13 11:52:12.2380,-0.09,-0.07,0.12
2020-08-13 11:52:12.3290,0.73,0.42,-0.1
2020-08-13 11:52:12.4190,0.22,0.13,-0.13
2020-08-13 11:52:12.5240,-0.04,-0.1,0.02
2020-08-13 11:52:12.5990,-0.16,-0.08,-0.05
2020-08-13 11:52:12.6980,-0.13,-0.03,-0.0
2020-08-13 11:52:12.7940,-0.22,-0.02,0.02
2020-08-13 11:52:12.8940,-0.39,0.0,0.04
2020-08-13 11:52:12.9930,-0.12,0.11,-0.05
2020-08-13 11:52:13.0900,-0.28,0.07,-0.05
2020-08-13 11:52:13.1430,0.17,-0.31,0.25
2020-08-13 11:52:13.2320,0.33,0.08,-0.04
2020-08-13 11:52:13.3310,0.11,0.01,0.01
2020-08-13 11:52:13.4120,0.05,-0.01,-0.06
2020-08-13 11:52:13.5100,0.02,0.03,-0.02
2020-08-13 11:52:13.5940,0.07,0.01,-0.01
2020-08-13 11:52:13.6930,0.08,-0.0,0.0
2020-08-13 11:52:13.7880,0.1,-0.07,-0.01
2020-08-13 11:52:13.8850,0.04,-0.09,-0.06
2020-08-13 11:52:13.9870,0.33,-0.53,-0.03
2020-08-13 11:52:14.0840,-0.04,-0.12,0.38
2020-08-13 11:52:14.1430,0.69,0.31,-0.29
2020-08-13 11:52:14.2370,0.1,0.16,-0.02
2020-08-13 11:52:14.3250,-0.05,-0.02,-0.01
2020-08-13 11:52:14.4290,0.03,0.01,0.03
2020-08-13 11:52:14.5050,0.03,0.01,0.01
2020-08-13 11:52:14.6080,0.03,-0.04,-0.0
2020-08-13 11:52:14.6990,-0.07,-0.05,0.02
2020-08-13 11:52:14.7880,-0.21,-0.01,0.01
2020-08-13 11:52:14.8750,-0.29,0.02,-0.03
2020-08-13 11:52:14.9750,-0.4,0.07,-0.09
2020-08-13 11:52:15.0730,0.4,-0.36,0.19
2020-08-13 11:52:15.1730,0.41,0.08,0.01
2020-08-13 11:52:15.2360,0.11,0.01,-0.03
2020-08-13 11:52:15.3260,0.04,0.01,-0.05
2020-08-13 11:52:15.4150,0.01,0.02,-0.02
2020-08-13 11:52:15.5040,0.04,0.01,-0.02
2020-08-13 11:52:15.5880,0.07,0.0,0.01
2020-08-13 11:52:15.6880,0.04,-0.05,-0.03
2020-08-13 11:52:15.7720,0.04,-0.11,-0.07
2020-08-13 11:52:15.8690,0.23,-0.54,0.06
2020-08-13 11:52:15.9690,0.02,-0.18,0.13
2020-08-13 11:52:16.0680,0.62,0.33,-0.12
2020-08-13 11:52:16.1660,0.2,0.25,-0.12
2020-08-13 11:52:16.2280,0.02,0.06,-0.0
2020-08-13 11:52:16.3050,0.11,0.02,0.02
2020-08-13 11:52:16.4060,0.13,0.02,0.02
2020-08-13 11:52:16.4870,0.07,-0.04,-0.0
2020-08-13 11:52:16.5850,-0.03,-0.02,0.01
2020-08-13 11:52:16.6670,-0.14,-0.0,0.08
2020-08-13 11:52:16.7680,-0.27,0.02,-0.02
2020-08-13 11:52:16.8610,-0.69,0.09,-0.27
2020-08-13 11:52:16.9610,-0.43,-0.11,-0.39
2020-08-13 11:52:17.0600,-0.2,-0.01,0.06
2020-08-13 11:52:17.1590,0.06,-0.0,0.01
2020-08-13 11:52:17.2190,0.02,0.04,-0.01
2020-08-13 11:52:17.3090,-0.02,0.05,-0.03
2020-08-13 11:52:17.4150,0.03,0.01,-0.04
2020-08-13 11:52:17.4990,0.01,-0.02,-0.06
2020-08-13 11:52:17.5850,0.1,-0.12,-0.05
2020-08-13 11:52:17.6760,0.66,-0.59,0.03
2020-08-13 11:52:17.7670,-0.01,-0.21,0.21
2020-08-13 11:52:17.8650,0.79,0.51,-0.2
2020-08-13 11:52:17.9520,0.3,0.2,-0.14
2020-08-13 11:52:18.0520,-0.15,-0.16,-0.1
2020-08-13 11:52:18.1500,-0.09,0.0,-0.05
2020-08-13 11:52:18.2490,-0.0,0.01,-0.02
2020-08-13 11:52:18.3020,-0.01,-0.01,-0.02
2020-08-13 11:52:18.3920,-0.11,-0.03,-0.01
2020-08-13 11:52:18.4940,-0.24,0.05,0.02
2020-08-13 11:52:18.5840,-0.24,0.06,-0.15
2020-08-13 11:52:18.6740,-0.47,0.04,0.01
2020-08-13 11:52:18.7640,0.01,0.11,-0.15
2020-08-13 11:52:18.8540,0.02,-0.02,-0.04
2020-08-13 11:52:18.9550,0.04,-0.01,-0.03
2020-08-13 11:52:19.0450,0.03,0.05,-0.0
2020-08-13 11:52:19.1460,0.03,0.02,-0.03
2020-08-13 11:52:19.2430,0.09,0.02,0.02
2020-08-13 11:52:19.3050,-0.03,-0.03,-0.1
2020-08-13 11:52:19.3960,0.07,-0.14,-0.09
2020-08-13 11:52:19.4920,0.22,-0.71,0.05
2020-08-13 11:52:19.5900,-0.21,-0.16,0.18
2020-08-13 11:52:19.6790,0.62,0.34,-0.19
2020-08-13 11:52:19.7700,0.32,0.21,-0.14
2020-08-13 11:52:19.8600,0.16,-0.07,-0.07
2020-08-13 11:52:19.9490,-0.24,-0.03,0.07
2020-08-13 11:52:20.0380,-0.27,-0.01,-0.02
2020-08-13 11:52:20.1360,-0.34,-0.02,-0.02
2020-08-13 11:52:20.2360,-0.28,0.06,-0.08
2020-08-13 11:52:20.3360,-0.74,-0.01,0.16
2020-08-13 11:52:20.3950,-0.07,-0.13,-0.17
2020-08-13 11:52:20.4780,0.25,-0.11,-0.05
2020-08-13 11:52:20.5660,0.74,0.19,-0.18
2020-08-13 11:52:20.6700,-0.04,-0.03,0.13
2020-08-13 11:52:20.7450,-0.98,-0.01,-0.09
2020-08-13 11:52:20.8500,-0.17,-0.15,-0.06
2020-08-13 11:52:20.9400,-0.08,-0.03,0.04
2020-08-13 11:52:21.0300,0.03,0.03,-0.02
2020-08-13 11:52:21.1350,0.01,0.06,-0.05
2020-08-13 11:52:21.2260,-0.0,0.02,-0.04
2020-08-13 11:52:21.3270,0.07,-0.07,-0.07
2020-08-13 11:52:21.4260,0.14,-0.3,0.01
2020-08-13 11:52:21.5250,0.42,-0.33,0.01
2020-08-13 11:52:21.5850,-0.02,-0.06,0.04
2020-08-13 11:52:21.6650,0.65,0.28,-0.12
2020-08-13 11:52:21.7540,0.21,0.06,-0.05
2020-08-13 11:52:21.8440,0.04,-0.06,-0.02
2020-08-13 11:52:21.9330,-0.03,-0.03,-0.01
2020-08-13 11:52:22.0220,-0.02,-0.04,0.0
2020-08-13 11:52:22.1210,-0.13,-0.06,-0.01
2020-08-13 11:52:22.2190,-0.34,-0.01,0.01
2020-08-13 11:52:22.3180,-0.46,0.04,-0.02
2020-08-13 11:52:22.4170,-0.59,0.1,-0.19
2020-08-13 11:52:22.5250,-0.2,0.16,-0.16
2020-08-13 11:52:22.6150,-0.12,-0.01,0.03
2020-08-13 11:52:22.6680,0.0,-0.0,-0.04
2020-08-13 11:52:22.7640,-0.01,0.02,-0.03
2020-08-13 11:52:22.8600,0.06,0.0,-0.04
2020-08-13 11:52:22.9370,0.1,-0.03,-0.01
2020-08-13 11:52:23.0400,0.03,-0.09,-0.06
2020-08-13 11:52:23.1300,0.09,-0.23,-0.02
2020-08-13 11:52:23.2210,0.27,-0.39,0.12
2020-08-13 11:52:23.3100,-0.01,0.18,0.12
2020-08-13 11:52:23.4110,0.47,0.39,-0.24
2020-08-13 11:52:23.5070,-0.04,0.08,-0.04
2020-08-13 11:52:23.6060,-0.02,0.02,0.01
2020-08-13 11:52:23.6590,0.08,0.02,0.03
2020-08-13 11:52:23.7560,0.09,-0.01,-0.01
2020-08-13 11:52:23.8390,0.03,-0.04,-0.03
2020-08-13 11:52:23.9350,-0.13,-0.06,0.03
2020-08-13 11:52:24.0290,-0.29,0.0,0.04
2020-08-13 11:52:24.1210,-0.21,0.04,-0.04
2020-08-13 11:52:24.2100,-0.38,0.06,-0.11
2020-08-13 11:52:24.3010,0.04,-0.69,-0.31
2020-08-13 11:52:24.4010,0.06,0.11,0.16
2020-08-13 11:52:24.4990,0.03,-0.02,-0.03
2020-08-13 11:52:24.5980,-0.01,0.03,-0.01
2020-08-13 11:52:24.6980,-0.03,0.05,-0.02
2020-08-13 11:52:24.7970,-0.01,-0.05,-0.04
2020-08-13 11:52:24.8560,0.08,-0.04,-0.03
2020-08-13 11:52:24.9370,0.04,-0.15,-0.06
2020-08-13 11:52:25.0270,0.26,-0.59,-0.02
2020-08-13 11:52:25.1260,0.2,-0.24,0.06
2020-08-13 11:52:25.2060,0.41,0.32,-0.03
2020-08-13 11:52:25.3090,0.41,0.31,-0.13
2020-08-13 11:52:25.3910,0.07,0.03,-0.03
2020-08-13 11:52:25.4910,-0.01,-0.04,-0.03
2020-08-13 11:52:25.5890,0.01,-0.06,-0.0
2020-08-13 11:52:25.6920,-0.04,-0.04,0.05
2020-08-13 11:52:25.7420,-0.14,-0.02,0.04
2020-08-13 11:52:25.8460,-0.24,0.02,0.08
2020-08-13 11:52:25.9350,-0.27,0.06,-0.06
2020-08-13 11:52:26.0260,-0.85,-0.14,-0.33
2020-08-13 11:52:26.1150,-0.14,0.12,-0.0
2020-08-13 11:52:26.2050,0.0,-0.02,-0.04
2020-08-13 11:52:26.2980,0.04,0.02,-0.0
2020-08-13 11:52:26.4010,-0.01,0.04,-0.02
2020-08-13 11:52:26.4830,0.04,-0.01,-0.04
2020-08-13 11:52:26.5920,0.06,0.02,-0.04
2020-08-13 11:52:26.6830,0.06,-0.11,-0.03
2020-08-13 11:52:26.7800,0.12,-0.41,-0.08
2020-08-13 11:52:26.8800,0.13,-0.3,0.19
2020-08-13 11:52:26.9410,0.87,0.27,-0.05
2020-08-13 11:52:27.0310,0.54,0.37,-0.16
2020-08-13 11:52:27.1200,0.04,-0.02,-0.13
2020-08-13 11:52:27.2090,-0.05,-0.01,0.01
2020-08-13 11:52:27.2980,-0.01,0.01,-0.0
2020-08-13 11:52:27.3870,-0.1,-0.03,0.05
2020-08-13 11:52:27.4740,-0.19,-0.03,0.07
2020-08-13 11:52:27.5740,-0.38,0.01,0.05
2020-08-13 11:52:27.6870,-0.42,0.04,-0.06
2020-08-13 11:52:27.7750,-0.27,0.1,-0.18
2020-08-13 11:52:27.8300,-0.22,0.05,-0.1
2020-08-13 11:52:27.9180,-0.07,-0.09,-0.05
2020-08-13 11:52:28.0210,-0.0,-0.02,-0.01
2020-08-13 11:52:28.0970,0.02,0.05,-0.01
2020-08-13 11:52:28.2010,0.02,0.02,-0.02
2020-08-13 11:52:28.2910,0.01,-0.01,-0.08
2020-08-13 11:52:28.3670,0.06,-0.06,-0.01
2020-08-13 11:52:28.4710,0.03,-0.13,-0.04
2020-08-13 11:52:28.5630,0.29,-0.55,0.07
2020-08-13 11:52:28.6620,-0.03,-0.04,0.1
2020-08-13 11:52:28.7600,0.68,0.4,-0.15
2020-08-13 11:52:28.8180,0.27,0.2,-0.05
2020-08-13 11:52:28.9190,-0.05,-0.05,-0.02
2020-08-13 11:52:29.0080,-0.05,0.01,-0.03
2020-08-13 11:52:29.0900,-0.1,-0.08,-0.03
2020-08-13 11:52:29.1870,-0.19,-0.06,0.05
2020-08-13 11:52:29.2960,-0.22,-0.01,0.02
2020-08-13 11:52:29.3710,-0.28,0.05,-0.03
2020-08-13 11:52:29.4600,-0.37,0.1,-0.13
2020-08-13 11:52:29.5540,0.21,0.01,0.56
2020-08-13 11:52:29.6520,0.26,0.03,0.07
2020-08-13 11:52:29.7510,0.09,0.01,-0.06
2020-08-13 11:52:29.8490,0.01,0.03,-0.0
2020-08-13 11:52:29.9480,0.07,0.04,-0.01
2020-08-13 11:52:30.0040,0.06,0.02,-0.05
2020-08-13 11:52:30.1000,0.05,-0.01,0.0
2020-08-13 11:52:30.1900,-0.01,-0.06,-0.04
2020-08-13 11:52:30.2870,0.11,-0.33,-0.06
2020-08-13 11:52:30.3670,0.26,-0.32,0.05
2020-08-13 11:52:30.4530,-0.13,0.26,-0.02
2020-08-13 11:52:30.5440,0.57,0.2,-0.23
2020-08-13 11:52:30.6420,0.34,0.2,-0.04
2020-08-13 11:52:30.7420,0.18,0.03,0.06
2020-08-13 11:52:30.8420,0.12,-0.09,0.03
2020-08-13 11:52:30.9420,-0.02,-0.11,0.07
2020-08-13 11:52:31.0400,-0.29,-0.11,0.06
2020-08-13 11:52:31.0960,-0.51,-0.03,0.01
2020-08-13 11:52:31.1860,-0.49,0.07,-0.07
2020-08-13 11:52:31.2770,-0.27,0.02,-0.2
2020-08-13 11:52:31.3660,-0.44,0.09,-0.24
2020-08-13 11:52:31.4570,-0.23,0.0,0.07
2020-08-13 11:52:31.5450,0.01,-0.01,-0.04
2020-08-13 11:52:31.6360,0.06,0.08,0.05
2020-08-13 11:52:31.7350,0.03,0.02,-0.05
2020-08-13 11:52:31.8470,0.01,0.01,-0.05
2020-08-13 11:52:31.9330,0.05,-0.01,0.02
2020-08-13 11:52:32.0420,-0.01,-0.11,-0.08
2020-08-13 11:52:32.0920,0.25,-0.64,0.02
2020-08-13 11:52:32.1910,0.14,-0.16,-0.01
2020-08-13 11:52:32.2810,0.45,0.45,0.13
2020-08-13 11:52:32.3600,0.52,0.26,-0.1
2020-08-13 11:52:32.4500,0.04,0.01,-0.05
2020-08-13 11:52:32.5480,0.0,-0.01,-0.01
2020-08-13 11:52:32.6310,0.01,-0.02,-0.01
2020-08-13 11:52:32.7290,-0.08,-0.04,-0.07
2020-08-13 11:52:32.8250,-0.28,-0.07,0.04
2020-08-13 11:52:32.9240,-0.36,-0.01,0.04
2020-08-13 11:52:33.0230,-0.38,0.07,-0.03
2020-08-13 11:52:33.1230,-0.23,0.09,-0.02
2020-08-13 11:52:33.1820,0.0,0.04,-0.25
2020-08-13 11:52:33.2630,-0.14,-0.02,0.07
2020-08-13 11:52:33.3610,0.08,-0.01,0.02
2020-08-13 11:52:33.4510,0.01,0.05,-0.01
2020-08-13 11:52:33.5300,0.01,0.03,-0.03
2020-08-13 11:52:33.6290,0.01,-0.01,-0.02
2020-08-13 11:52:33.7160,0.0,-0.08,-0.04
2020-08-13 11:52:33.8270,0.07,-0.28,-0.06
2020-08-13 11:52:33.9250,0.38,-0.36,0.13
2020-08-13 11:52:34.0170,-0.0,0.16,0.12
2020-08-13 11:52:34.1140,0.66,0.33,-0.14
2020-08-13 11:52:34.1750,0.3,0.17,-0.2
2020-08-13 11:52:34.2650,0.04,-0.09,0.05
2020-08-13 11:52:34.3550,0.09,-0.12,-0.05
2020-08-13 11:52:34.4440,-0.11,-0.08,-0.01
2020-08-13 11:52:34.5340,-0.33,-0.07,0.05
2020-08-13 11:52:34.6240,-0.53,-0.01,-0.0
2020-08-13 11:52:34.7220,-0.48,0.06,-0.14
2020-08-13 11:52:34.8180,0.11,-0.23,-0.04
2020-08-13 11:52:34.9080,0.24,0.02,0.01
2020-08-13 11:52:35.0070,0.13,0.02,-0.06
2020-08-13 11:52:35.1160,0.01,0.01,-0.03
2020-08-13 11:52:35.1630,0.04,0.03,-0.03
2020-08-13 11:52:35.2530,0.04,0.02,-0.02
2020-08-13 11:52:35.3450,0.13,0.07,0.01
2020-08-13 11:52:35.4320,-0.02,-0.06,-0.05
2020-08-13 11:52:35.5260,0.06,-0.17,-0.05
2020-08-13 11:52:35.6120,0.31,-0.59,-0.1
2020-08-13 11:52:35.7070,-0.07,0.09,0.12
2020-08-13 11:52:35.8040,0.73,0.38,-0.18
2020-08-13 11:52:35.9020,0.21,0.2,-0.14
2020-08-13 11:52:36.0010,-0.04,-0.03,-0.0
2020-08-13 11:52:36.1010,0.1,0.03,0.03
2020-08-13 11:52:36.1990,0.02,-0.02,-0.02
2020-08-13 11:52:36.2600,-0.12,-0.07,0.0
2020-08-13 11:52:36.3580,-0.3,-0.05,0.06
2020-08-13 11:52:36.4470,-0.4,0.03,-0.02
2020-08-13 11:52:36.5360,-0.41,0.13,-0.17
2020-08-13 11:52:36.6330,-0.51,-0.4,-0.54
2020-08-13 11:52:36.7150,0.08,0.09,0.16
2020-08-13 11:52:36.8120,0.02,-0.02,0.02
2020-08-13 11:52:36.8930,0.03,0.02,-0.01
2020-08-13 11:52:37.0050,-0.01,0.04,-0.02
2020-08-13 11:52:37.1070,-0.06,-0.01,-0.04
2020-08-13 11:52:37.2030,0.03,0.02,-0.04
2020-08-13 11:52:37.2920,0.06,-0.12,-0.07
2020-08-13 11:52:37.3420,0.12,-0.28,-0.02
2020-08-13 11:52:37.4410,0.4,-0.31,0.11
2020-08-13 11:52:37.5480,0.6,0.34,-0.13
2020-08-13 11:52:37.6230,0.42,0.27,-0.05
2020-08-13 11:52:37.7140,0.11,0.04,-0.04
2020-08-13 11:52:37.8020,-0.06,-0.09,0.05
2020-08-13 11:52:37.8920,-0.09,-0.09,-0.02
2020-08-13 11:52:37.9940,-0.16,-0.08,0.01
2020-08-13 11:52:38.0860,-0.39,-0.06,0.01
2020-08-13 11:52:38.1850,-0.44,0.05,0.03
2020-08-13 11:52:38.2830,-0.38,0.06,-0.08
2020-08-13 11:52:38.3430,-0.02,0.01,-0.24
2020-08-13 11:52:38.4420,0.41,-0.01,0.06
2020-08-13 11:52:38.5380,0.08,0.01,-0.0
2020-08-13 11:52:38.6130,0.0,0.05,-0.02
2020-08-13 11:52:38.7030,-0.06,0.01,-0.06
2020-08-13 11:52:38.7940,0.02,0.0,-0.02
2020-08-13 11:52:38.8980,0.04,0.02,-0.05
2020-08-13 11:52:38.9880,0.01,-0.07,-0.12
2020-08-13 11:52:39.0790,0.05,-0.17,0.0
2020-08-13 11:52:39.1860,0.48,-0.39,0.08
2020-08-13 11:52:39.2740,-0.29,0.11,-0.01
2020-08-13 11:52:39.3730,0.72,0.41,-0.21
2020-08-13 11:52:39.4720,0.37,0.17,-0.08
2020-08-13 11:52:39.5720,0.24,-0.07,0.06
2020-08-13 11:52:39.6320,-0.09,-0.08,0.05
2020-08-13 11:52:39.7120,-0.12,-0.09,-0.03
2020-08-13 11:52:39.8110,-0.19,-0.08,-0.11
2020-08-13 11:52:39.9000,-0.55,-0.03,0.02
2020-08-13 11:52:39.9900,-0.52,0.03,0.04
2020-08-13 11:52:40.0760,-0.13,0.05,-0.17
2020-08-13 11:52:40.1700,-0.01,-0.48,-0.35
2020-08-13 11:52:40.2690,-0.2,-0.02,0.06
2020-08-13 11:52:40.3660,0.09,0.0,-0.01
2020-08-13 11:52:40.4750,0.01,0.02,-0.02
2020-08-13 11:52:40.5330,0.0,0.03,-0.02
2020-08-13 11:52:40.6150,0.04,0.02,-0.03
2020-08-13 11:52:40.7140,0.01,-0.0,-0.04
2020-08-13 11:52:40.8020,-0.0,-0.11,-0.09
2020-08-13 11:52:40.8830,0.2,-0.47,0.01
2020-08-13 11:52:40.9810,0.36,-0.39,0.25
2020-08-13 11:52:41.0700,0.24,0.57,0.04
2020-08-13 11:52:41.1620,0.44,0.27,-0.11
2020-08-13 11:52:41.2630,0.07,0.11,-0.13
2020-08-13 11:52:41.3590,-0.08,0.01,0.05
2020-08-13 11:52:41.4590,-0.14,-0.03,-0.02
2020-08-13 11:52:41.5180,-0.08,-0.04,-0.07
2020-08-13 11:52:41.6140,-0.15,-0.03,-0.08
2020-08-13 11:52:41.7030,-0.36,-0.0,0.08
2020-08-13 11:52:41.7940,-0.51,0.06,-0.01
2020-08-13 11:52:41.8840,-0.25,0.21,-0.21
2020-08-13 11:52:41.9730,-0.23,0.08,-0.14
2020-08-13 11:52:42.0640,-0.28,0.05,0.08
2020-08-13 11:52:42.1660,-0.03,-0.0,-0.03
2020-08-13 11:52:42.2520,-0.02,0.02,-0.0
2020-08-13 11:52:42.3510,-0.04,-0.0,-0.03
2020-08-13 11:52:42.4500,0.05,0.03,-0.02
2020-08-13 11:52:42.5530,0.01,-0.04,-0.07
2020-08-13 11:52:42.6480,0.0,-0.12,-0.08
2020-08-13 11:52:42.7090,0.22,-0.61,0.06
2020-08-13 11:52:42.7970,0.13,-0.31,0.18
2020-08-13 11:52:42.8740,0.33,0.32,-0.0
2020-08-13 11:52:42.9760,0.4,0.37,-0.15
2020-08-13 11:52:43.0560,0.17,0.08,-0.05
2020-08-13 11:52:43.1450,-0.04,0.02,0.08
2020-08-13 11:52:43.2460,-0.16,-0.03,-0.07
2020-08-13 11:52:43.3420,-0.02,-0.02,-0.07
2020-08-13 11:52:43.4410,-0.21,-0.06,0.0
2020-08-13 11:52:43.5410,-0.33,-0.01,0.04
2020-08-13 11:52:43.6410,-0.44,0.02,-0.02
2020-08-13 11:52:43.6980,-0.42,0.08,-0.23
2020-08-13 11:52:43.7890,-0.07,-0.45,-0.28
2020-08-13 11:52:43.8790,-0.18,-0.0,0.13
2020-08-13 11:52:43.9790,-0.07,-0.01,-0.01
2020-08-13 11:52:44.0640,-0.03,0.02,-0.01
2020-08-13 11:52:44.1570,-0.03,0.01,-0.04
2020-08-13 11:52:44.2470,-0.01,-0.01,-0.01
2020-08-13 11:52:44.3450,0.06,0.01,-0.0
2020-08-13 11:52:44.4460,0.0,-0.11,-0.09
2020-08-13 11:52:44.5320,0.2,-0.57,-0.01
2020-08-13 11:52:44.6420,0.12,-0.29,0.11
2020-08-13 11:52:44.7300,0.26,0.25,0.09
2020-08-13 11:52:44.7910,0.55,0.3,-0.09
2020-08-13 11:52:44.8850,0.19,0.01,-0.05
2020-08-13 11:52:44.9750,-0.03,-0.04,0.05
2020-08-13 11:52:45.0630,-0.1,-0.03,0.03
2020-08-13 11:52:45.1530,-0.07,-0.08,0.01
2020-08-13 11:52:45.2440,-0.3,-0.08,0.03
2020-08-13 11:52:45.3340,-0.47,-0.01,0.01
2020-08-13 11:52:45.4360,-0.43,0.06,-0.04
2020-08-13 11:52:45.5250,-0.08,0.15,-0.2
2020-08-13 11:52:45.6230,-0.21,0.14,-0.21
2020-08-13 11:52:45.7340,0.02,0.02,-0.01
2020-08-13 11:52:45.8230,-0.02,0.02,-0.0
2020-08-13 11:52:45.9220,-0.05,0.04,-0.02
2020-08-13 11:52:45.9660,0.04,-0.01,-0.02
2020-08-13 11:52:46.0690,0.08,-0.01,-0.04
2020-08-13 11:52:46.1590,0.02,-0.11,-0.05
2020-08-13 11:52:46.2490,0.12,-0.29,0.01
2020-08-13 11:52:46.3280,0.37,-0.32,0.07
2020-08-13 11:52:46.4280,0.12,0.17,0.12
2020-08-13 11:52:46.5280,0.55,0.28,-0.06
2020-08-13 11:52:46.6240,0.1,0.08,-0.08
2020-08-13 11:52:46.7150,-0.21,-0.02,-0.02
2020-08-13 11:52:46.8170,-0.18,-0.06,-0.12
2020-08-13 11:52:46.9070,-0.15,-0.02,-0.01
2020-08-13 11:52:47.0070,-0.21,-0.03,0.02
2020-08-13 11:52:47.0750,-0.28,0.02,0.07
2020-08-13 11:52:47.1560,-0.28,0.06,0.04
2020-08-13 11:52:47.2460,-0.4,0.07,-0.0
2020-08-13 11:52:47.3440,-0.02,-0.13,-0.31
2020-08-13 11:52:47.4240,0.08,-0.02,-0.02
2020-08-13 11:52:47.5130,-0.03,0.01,-0.0
2020-08-13 11:52:47.6120,-0.08,0.03,0.01
2020-08-13 11:52:47.7030,-0.01,0.07,0.01
2020-08-13 11:52:47.8040,0.03,0.08,0.02
2020-08-13 11:52:47.9000,0.09,-0.11,-0.07
2020-08-13 11:52:47.9980,0.06,-0.23,0.0
2020-08-13 11:52:48.0650,0.31,-0.54,0.06
2020-08-13 11:52:48.1540,0.02,-0.01,0.15
2020-08-13 11:52:48.2440,0.65,0.35,-0.13
2020-08-13 11:52:48.3350,0.08,0.07,-0.1
2020-08-13 11:52:48.4240,0.1,-0.0,-0.01
2020-08-13 11:52:48.5160,-0.01,-0.04,-0.08
2020-08-13 11:52:48.6050,-0.1,-0.07,-0.08
2020-08-13 11:52:48.7030,-0.2,-0.04,-0.07
2020-08-13 11:52:48.8000,-0.35,0.02,0.03
2020-08-13 11:52:48.8910,-0.38,0.06,0.02
2020-08-13 11:52:48.9920,-0.46,0.0,-0.1
2020-08-13 11:52:49.0880,-0.05,-0.21,-0.01
2020-08-13 11:52:49.1880,0.16,-0.01,-0.08
2020-08-13 11:52:49.2870,0.0,0.0,0.01
2020-08-13 11:52:49.3390,-0.02,0.03,-0.0
2020-08-13 11:52:49.4450,-0.02,0.05,-0.01
2020-08-13 11:52:49.5190,-0.0,0.01,-0.01
2020-08-13 11:52:49.6250,0.02,-0.03,-0.03
2020-08-13 11:52:49.7060,0.04,-0.15,-0.08
2020-08-13 11:52:49.7970,0.31,-0.59,0.08
2020-08-13 11:52:49.8850,-0.11,-0.14,0.07
2020-08-13 11:52:49.9820,0.59,0.23,-0.15
2020-08-13 11:52:50.0820,0.41,0.26,-0.1
2020-08-13 11:52:50.1800,0.21,0.0,-0.01
2020-08-13 11:52:50.2820,-0.13,-0.06,0.09
2020-08-13 11:52:50.3330,-0.02,-0.02,-0.03
2020-08-13 11:52:50.4220,-0.13,-0.05,0.02
2020-08-13 11:52:50.5250,-0.16,-0.02,0.05
2020-08-13 11:52:50.6150,-0.29,0.01,0.02
2020-08-13 11:52:50.6980,-0.34,0.06,0.02
2020-08-13 11:52:50.7880,-0.39,0.03,-0.02
2020-08-13 11:52:50.8840,-0.03,-0.46,-0.15
2020-08-13 11:52:50.9750,0.05,0.02,0.11
2020-08-13 11:52:51.0740,0.03,-0.01,-0.08
2020-08-13 11:52:51.1820,0.05,0.06,0.02
2020-08-13 11:52:51.2330,0.02,0.04,-0.01
2020-08-13 11:52:51.3230,0.04,0.01,-0.01
2020-08-13 11:52:51.4140,0.03,-0.05,0.0
2020-08-13 11:52:51.5030,-0.01,-0.13,-0.09
2020-08-13 11:52:51.5940,0.36,-0.51,0.02
2020-08-13 11:52:51.6950,-0.07,-0.04,0.24
2020-08-13 11:52:51.7850,0.67,0.45,-0.31
2020-08-13 11:52:51.8740,0.19,0.11,-0.1
2020-08-13 11:52:51.9660,0.07,0.03,-0.03
2020-08-13 11:52:52.0680,-0.04,-0.04,0.01
2020-08-13 11:52:52.1740,-0.1,-0.02,-0.0
2020-08-13 11:52:52.2650,-0.16,-0.08,0.07
2020-08-13 11:52:52.3250,-0.2,-0.03,0.07
2020-08-13 11:52:52.4190,-0.34,0.01,-0.06
2020-08-13 11:52:52.5050,-0.47,0.06,-0.08
2020-08-13 11:52:52.5940,0.25,-0.1,-0.01
2020-08-13 11:52:52.6850,0.14,0.04,-0.0
2020-08-13 11:52:52.7740,0.02,-0.01,-0.02
2020-08-13 11:52:52.8640,0.02,0.06,0.04
2020-08-13 11:52:52.9600,-0.04,0.0,0.0
2020-08-13 11:52:53.0590,0.05,0.0,-0.01
2020-08-13 11:52:53.1600,0.02,0.0,-0.05
2020-08-13 11:52:53.2570,-0.01,-0.02,-0.07
2020-08-13 11:52:53.3140,0.09,-0.7,0.05
2020-08-13 11:52:53.4060,0.19,-0.5,0.21
2020-08-13 11:52:53.4950,0.88,0.46,-0.15
2020-08-13 11:52:53.5870,0.42,0.19,-0.29
2020-08-13 11:52:53.6900,-0.07,-0.1,0.02
2020-08-13 11:52:53.7730,-0.2,-0.04,0.02
2020-08-13 11:52:53.8700,-0.13,-0.06,-0.04
2020-08-13 11:52:53.9610,-0.16,-0.06,0.04
2020-08-13 11:52:54.0510,-0.22,-0.0,0.08
2020-08-13 11:52:54.1510,-0.4,0.04,0.03
2020-08-13 11:52:54.2480,-0.49,0.1,-0.1
2020-08-13 11:52:54.3060,0.42,-0.88,-0.26
2020-08-13 11:52:54.3980,0.04,0.03,0.06
2020-08-13 11:52:54.4970,-0.0,0.01,0.01
2020-08-13 11:52:54.5800,-0.06,0.02,0.0
2020-08-13 11:52:54.6700,-0.01,0.02,-0.01
2020-08-13 11:52:54.7700,-0.01,0.01,0.0
2020-08-13 11:52:54.8540,0.03,-0.02,-0.02
2020-08-13 11:52:54.9500,-0.04,-0.11,-0.05
2020-08-13 11:52:55.0420,0.02,-0.18,0.0
2020-08-13 11:52:55.1420,0.06,-0.38,0.19
2020-08-13 11:52:55.2400,0.4,0.33,-0.04
2020-08-13 11:52:55.3390,0.49,0.24,-0.22
2020-08-13 11:52:55.3900,0.29,0.11,-0.09
2020-08-13 11:52:55.4760,0.12,0.0,0.02
2020-08-13 11:52:55.5780,-0.07,-0.09,-0.03
2020-08-13 11:52:55.6600,-0.07,-0.04,-0.02
2020-08-13 11:52:55.7560,-0.07,0.01,0.01
2020-08-13 11:52:55.8400,-0.19,-0.02,0.03
2020-08-13 11:52:55.9400,-0.53,-0.02,0.05
2020-08-13 11:52:56.0350,-0.48,-0.0,-0.1
2020-08-13 11:52:56.1320,0.27,0.07,-0.08
2020-08-13 11:52:56.2290,0.04,0.05,-0.03
2020-08-13 11:52:56.3290,-0.04,-0.04,-0.01
2020-08-13 11:52:56.3910,-0.02,-0.01,0.06
2020-08-13 11:52:56.4960,-0.03,0.03,-0.02
2020-08-13 11:52:56.5800,-0.03,0.02,-0.01
2020-08-13 11:52:56.6640,0.0,-0.0,-0.02
2020-08-13 11:52:56.7580,-0.03,-0.11,-0.04
2020-08-13 11:52:56.8560,0.05,-0.15,-0.07
2020-08-13 11:52:56.9390,0.25,-0.47,0.13
2020-08-13 11:52:57.0360,0.01,0.03,0.26
2020-08-13 11:52:57.1480,0.63,0.32,-0.14
2020-08-13 11:52:57.2320,0.24,0.07,-0.12
2020-08-13 11:52:57.3330,-0.07,-0.02,-0.06
2020-08-13 11:52:57.4210,-0.22,0.0,-0.01
2020-08-13 11:52:57.4750,-0.0,-0.02,-0.06
2020-08-13 11:52:57.5640,-0.05,-0.07,0.05
2020-08-13 11:52:57.6540,-0.28,-0.02,0.02
2020-08-13 11:52:57.7440,-0.26,0.03,0.03
2020-08-13 11:52:57.8340,-0.34,0.01,-0.02
2020-08-13 11:52:57.9230,-0.51,-0.02,-0.1
2020-08-13 11:52:58.0210,0.04,0.01,-0.13
2020-08-13 11:52:58.1170,-0.14,0.07,0.07
2020-08-13 11:52:58.2170,-0.01,-0.01,-0.01
2020-08-13 11:52:58.3240,0.03,0.03,-0.01
2020-08-13 11:52:58.3860,0.02,0.03,-0.02
2020-08-13 11:52:58.5150,0.01,-0.0,-0.03
2020-08-13 11:52:58.5660,0.07,-0.04,0.0
2020-08-13 11:52:58.6550,0.04,-0.16,-0.04
2020-08-13 11:52:58.7460,0.19,-0.84,0.19
2020-08-13 11:52:58.8350,0.08,-0.31,0.19
2020-08-13 11:52:58.9250,0.95,0.63,-0.25
2020-08-13 11:52:59.0150,0.36,0.2,-0.2
2020-08-13 11:52:59.1090,-0.21,-0.14,-0.11
2020-08-13 11:52:59.2090,-0.11,-0.03,-0.06
2020-08-13 11:52:59.3170,-0.09,0.02,-0.08
2020-08-13 11:52:59.3770,0.01,0.02,0.05
2020-08-13 11:52:59.4660,-0.02,-0.01,-0.03
2020-08-13 11:52:59.5570,-0.21,-0.03,0.02
2020-08-13 11:52:59.6610,-0.22,0.03,0.05
2020-08-13 11:52:59.7510,-0.34,0.06,-0.02
2020-08-13 11:52:59.8270,-0.34,0.06,-0.14
2020-08-13 11:52:59.9320,-0.13,-0.16,-0.3
2020-08-13 11:53:00.0220,-0.04,0.07,0.09
2020-08-13 11:53:00.1120,0.02,-0.02,-0.04
2020-08-13 11:53:00.2010,0.05,0.03,-0.01
2020-08-13 11:53:00.3000,0.01,0.02,0.01
2020-08-13 11:53:00.4050,0.04,-0.01,-0.02
2020-08-13 11:53:00.4960,0.0,-0.09,-0.06
2020-08-13 11:53:00.5490,0.02,-0.17,-0.09
2020-08-13 11:53:00.6410,0.11,-0.49,0.04
2020-08-13 11:53:00.7360,-0.1,-0.07,0.25
2020-08-13 11:53:00.8310,0.6,0.28,-0.11
2020-08-13 11:53:00.9220,0.36,0.08,-0.11
2020-08-13 11:53:01.0150,0.07,-0.03,-0.06
2020-08-13 11:53:01.1020,-0.01,0.06,-0.07
2020-08-13 11:53:01.1940,-0.04,0.01,-0.1
2020-08-13 11:53:01.2930,0.03,0.03,0.04
2020-08-13 11:53:01.3890,-0.11,-0.09,0.01
2020-08-13 11:53:01.4890,-0.38,-0.03,0.09
2020-08-13 11:53:01.5980,-0.39,0.03,-0.01
2020-08-13 11:53:01.6570,-0.52,0.05,-0.15
2020-08-13 11:53:01.7320,0.24,-0.29,-0.05
2020-08-13 11:53:01.8370,0.03,0.11,0.08
2020-08-13 11:53:01.9130,0.05,0.0,0.03
2020-08-13 11:53:02.0040,0.02,0.03,-0.03
2020-08-13 11:53:02.0960,0.0,0.02,-0.0
2020-08-13 11:53:02.1840,0.04,0.02,-0.02
2020-08-13 11:53:02.2840,0.08,-0.05,-0.05
2020-08-13 11:53:02.3810,0.07,-0.19,-0.08
2020-08-13 11:53:02.4810,0.25,-0.52,0.13
2020-08-13 11:53:02.5830,0.14,-0.08,0.14
2020-08-13 11:53:02.6350,0.88,0.37,-0.23
2020-08-13 11:53:02.7220,0.29,0.15,-0.17
2020-08-13 11:53:02.8260,-0.21,0.05,0.07
2020-08-13 11:53:02.9160,-0.0,0.03,-0.09
2020-08-13 11:53:03.0070,-0.04,0.02,-0.11
2020-08-13 11:53:03.0960,-0.07,-0.0,-0.01
2020-08-13 11:53:03.1870,-0.07,-0.03,0.04
2020-08-13 11:53:03.2780,-0.21,-0.01,0.04
2020-08-13 11:53:03.3820,-0.39,0.05,0.01
2020-08-13 11:53:03.4730,-0.6,0.07,-0.12
2020-08-13 11:53:03.5750,0.01,-0.06,-0.15
2020-08-13 11:53:03.6710,0.01,0.06,0.06
2020-08-13 11:53:03.7710,0.04,-0.02,0.01
2020-08-13 11:53:03.8220,0.04,0.03,-0.02
2020-08-13 11:53:03.9130,0.0,0.02,-0.03
2020-08-13 11:53:04.0030,0.1,-0.03,-0.02
2020-08-13 11:53:04.1000,-0.01,0.04,-0.09
2020-08-13 11:53:04.1800,-0.03,-0.05,0.01
2020-08-13 11:53:04.2790,0.09,-0.55,0.02
2020-08-13 11:53:04.3670,0.15,-0.2,0.11
2020-08-13 11:53:04.4720,0.84,0.38,0.01
2020-08-13 11:53:04.5660,0.29,0.22,-0.11
2020-08-13 11:53:04.6660,0.05,-0.03,-0.09
2020-08-13 11:53:04.7630,-0.01,-0.05,-0.06
2020-08-13 11:53:04.8620,-0.06,0.05,-0.04
2020-08-13 11:53:04.9120,-0.08,-0.03,-0.07
2020-08-13 11:53:05.0020,-0.15,-0.08,0.07
2020-08-13 11:53:05.0950,-0.27,-0.01,0.07
2020-08-13 11:53:05.1840,-0.21,0.07,0.03
2020-08-13 11:53:05.2730,-0.37,0.09,-0.05
2020-08-13 11:53:05.3620,-0.66,0.08,-0.18
2020-08-13 11:53:05.4580,-0.12,0.1,-0.11
2020-08-13 11:53:05.5570,0.01,-0.03,-0.02
2020-08-13 11:53:05.6600,0.0,0.0,-0.01
2020-08-13 11:53:05.7560,-0.02,0.06,0.02
2020-08-13 11:53:05.8130,0.0,-0.0,-0.03
2020-08-13 11:53:05.9030,0.07,-0.01,-0.0
2020-08-13 11:53:05.9940,0.07,-0.14,-0.02
2020-08-13 11:53:06.0970,0.14,-0.35,-0.03
2020-08-13 11:53:06.1870,0.3,-0.17,0.17
2020-08-13 11:53:06.2770,0.09,0.2,0.1
2020-08-13 11:53:06.3670,0.47,0.26,-0.03
2020-08-13 11:53:06.4570,0.37,0.13,-0.07
2020-08-13 11:53:06.5580,0.14,-0.03,-0.01
2020-08-13 11:53:06.6480,-0.11,-0.06,0.02
2020-08-13 11:53:06.7570,-0.28,-0.14,0.04
2020-08-13 11:53:06.8460,-0.43,-0.07,0.02
2020-08-13 11:53:06.9550,-0.53,0.0,0.03
2020-08-13 11:53:07.0450,-0.46,0.08,-0.06
2020-08-13 11:53:07.1030,0.0,0.01,-0.01
2020-08-13 11:53:07.1850,0.12,0.03,-0.0
2020-08-13 11:53:07.2830,0.01,-0.0,-0.05
2020-08-13 11:53:07.3640,0.0,0.0,0.03
2020-08-13 11:53:07.4540,0.01,0.02,-0.01
2020-08-13 11:53:07.5420,-0.01,0.01,-0.0
2020-08-13 11:53:07.6400,0.1,0.04,0.03
2020-08-13 11:53:07.7420,0.05,-0.03,-0.04
2020-08-13 11:53:07.8380,-0.0,-0.09,-0.04
2020-08-13 11:53:07.9370,0.17,-0.46,0.07
2020-08-13 11:53:07.9970,0.26,-0.36,0.15
2020-08-13 11:53:08.0970,0.18,0.25,-0.03
2020-08-13 11:53:08.1830,0.54,0.35,-0.09
2020-08-13 11:53:08.2740,0.19,0.06,-0.09
2020-08-13 11:53:08.3650,-0.07,0.01,0.04
2020-08-13 11:53:08.4560,-0.08,-0.06,-0.03
2020-08-13 11:53:08.5470,-0.06,0.0,0.05
2020-08-13 11:53:08.6460,-0.21,-0.06,0.02
2020-08-13 11:53:08.7310,-0.35,-0.01,0.03
2020-08-13 11:53:08.8300,-0.42,0.03,0.03
2020-08-13 11:53:08.9280,-0.32,0.05,0.0
2020-08-13 11:53:09.0280,0.19,0.0,-0.17
2020-08-13 11:53:09.1270,-0.01,0.03,-0.18
2020-08-13 11:53:09.1870,-0.03,-0.02,0.05
2020-08-13 11:53:09.2760,0.03,-0.02,-0.0
2020-08-13 11:53:09.3660,-0.0,0.05,0.04
2020-08-13 11:53:09.4470,-0.02,0.02,-0.04
2020-08-13 11:53:09.5440,0.03,-0.01,0.0
2020-08-13 11:53:09.6280,0.06,-0.07,-0.04
2020-08-13 11:53:09.7240,0.02,-0.2,0.02
2020-08-13 11:53:09.8300,0.24,-0.45,0.08
2020-08-13 11:53:09.9200,0.13,-0.06,0.09
2020-08-13 11:53:10.0190,0.81,0.21,-0.11
2020-08-13 11:53:10.1190,0.42,0.27,-0.06
2020-08-13 11:53:10.1780,0.01,0.07,-0.06
2020-08-13 11:53:10.2680,-0.2,0.01,0.02
2020-08-13 11:53:10.3580,0.05,-0.02,-0.02
2020-08-13 11:53:10.4640,-0.07,-0.07,0.01
2020-08-13 11:53:10.5470,-0.27,-0.05,0.09
2020-08-13 11:53:10.6390,-0.41,-0.01,0.04
2020-08-13 11:53:10.7340,-0.53,0.04,-0.02
2020-08-13 11:53:10.8170,0.3,0.07,0.03
2020-08-13 11:53:10.9120,0.11,0.05,0.06
2020-08-13 11:53:11.0150,0.07,-0.0,0.05
2020-08-13 11:53:11.1040,0.03,0.0,-0.04
2020-08-13 11:53:11.2020,0.02,0.06,0.03
2020-08-13 11:53:11.3010,0.01,0.0,-0.03
2020-08-13 11:53:11.4030,-0.39,-0.07,-0.1
2020-08-13 11:53:11.4530,0.14,-0.05,0.03
2020-08-13 11:53:11.5580,0.14,-0.22,-0.05
2020-08-13 11:53:11.6340,0.29,-0.46,0.03
2020-08-13 11:53:11.7240,-0.0,-0.16,0.15
2020-08-13 11:53:11.8290,0.73,0.39,-0.27
2020-08-13 11:53:11.9190,0.26,0.12,-0.04
2020-08-13 11:53:12.0180,0.1,-0.04,-0.05
2020-08-13 11:53:12.1080,-0.04,0.02,0.04
2020-08-13 11:53:12.1980,-0.04,-0.05,-0.04
2020-08-13 11:53:12.2940,-0.1,-0.02,0.01
2020-08-13 11:53:12.3940,-0.23,-0.04,0.03
2020-08-13 11:53:12.4910,-0.32,-0.03,0.04
2020-08-13 11:53:12.6050,-0.39,0.05,-0.03
2020-08-13 11:53:12.6910,-0.36,0.0,-0.17
2020-08-13 11:53:12.7450,0.14,-0.44,-0.12
2020-08-13 11:53:12.8340,0.17,0.12,0.02
2020-08-13 11:53:12.9250,0.13,-0.04,-0.03
2020-08-13 11:53:13.0290,0.04,0.03,-0.02
2020-08-13 11:53:13.1190,0.02,0.03,-0.01
2020-08-13 11:53:13.1960,0.06,0.04,-0.08
2020-08-13 11:53:13.2880,0.05,-0.03,-0.05
2020-08-13 11:53:13.3860,0.04,-0.17,-0.03
2020-08-13 11:53:13.4870,0.29,-0.6,0.08
2020-08-13 11:53:13.5860,0.2,-0.34,-0.0
2020-08-13 11:53:13.6850,0.46,0.46,0.03
2020-08-13 11:53:13.7910,0.43,0.22,-0.1
2020-08-13 11:53:13.8390,0.07,0.04,0.05
2020-08-13 11:53:13.9280,-0.03,-0.05,0.01
2020-08-13 11:53:14.0190,0.02,-0.05,-0.04
2020-08-13 11:53:14.1090,-0.07,-0.11,-0.06
2020-08-13 11:53:14.1990,-0.36,-0.09,0.01
2020-08-13 11:53:14.2890,-0.56,0.01,0.03
2020-08-13 11:53:14.3790,-0.45,0.06,-0.03
2020-08-13 11:53:14.4760,-0.02,-0.06,0.12
2020-08-13 11:53:14.5850,0.41,0.1,-0.06
2020-08-13 11:53:14.6750,0.05,0.02,-0.04
2020-08-13 11:53:14.7850,-0.01,0.02,-0.02
2020-08-13 11:53:14.8440,0.03,0.02,0.0
2020-08-13 11:53:14.9340,0.03,0.01,-0.05
2020-08-13 11:53:15.0160,0.08,0.01,-0.02
2020-08-13 11:53:15.1140,0.09,-0.1,-0.06
2020-08-13 11:53:15.1940,0.01,-0.24,-0.12
2020-08-13 11:53:15.2820,0.27,-0.49,0.07
2020-08-13 11:53:15.3840,-0.02,0.01,0.09
2020-08-13 11:53:15.4730,0.6,0.33,-0.23
2020-08-13 11:53:15.5710,0.37,0.12,-0.16
2020-08-13 11:53:15.6750,0.15,0.02,-0.04
2020-08-13 11:53:15.7780,-0.12,0.01,0.03
2020-08-13 11:53:15.8340,0.01,0.01,-0.04
2020-08-13 11:53:15.9240,-0.03,-0.09,-0.08
2020-08-13 11:53:16.0140,-0.21,-0.1,0.01
2020-08-13 11:53:16.1040,-0.39,-0.03,0.01
2020-08-13 11:53:16.1950,-0.43,0.01,0.01
2020-08-13 11:53:16.2990,-0.3,0.1,-0.13
2020-08-13 11:53:16.3890,0.46,-0.44,-0.18
2020-08-13 11:53:16.4660,0.2,0.04,0.01
2020-08-13 11:53:16.5690,0.02,-0.01,-0.02
2020-08-13 11:53:16.6590,0.04,0.03,-0.01
2020-08-13 11:53:16.7610,0.04,0.03,-0.03
2020-08-13 11:53:16.8590,0.05,0.01,-0.02
2020-08-13 11:53:16.9180,0.02,-0.05,-0.06
2020-08-13 11:53:17.0180,-0.02,-0.13,-0.1
2020-08-13 11:53:17.1250,0.24,-0.55,0.01
2020-08-13 11:53:17.1990,0.1,-0.26,0.15
2020-08-13 11:53:17.3050,0.33,0.42,0.11
2020-08-13 11:53:17.3790,0.48,0.28,-0.15
2020-08-13 11:53:17.4690,0.1,-0.08,-0.05
2020-08-13 11:53:17.5600,0.04,-0.03,0.03
2020-08-13 11:53:17.6540,-0.15,-0.02,-0.03
2020-08-13 11:53:17.7490,-0.18,-0.04,-0.02
2020-08-13 11:53:17.8520,-0.06,0.01,0.01
2020-08-13 11:53:17.9480,-0.1,0.02,-0.02
2020-08-13 11:53:18.0500,-0.29,0.02,0.01
2020-08-13 11:53:18.1150,-0.31,0.04,-0.03
2020-08-13 11:53:18.1980,-0.29,0.12,-0.17
2020-08-13 11:53:18.2950,-0.37,-0.7,-0.02
2020-08-13 11:53:18.3760,0.35,0.04,0.09
2020-08-13 11:53:18.4660,0.06,-0.0,-0.02
2020-08-13 11:53:18.5650,0.04,-0.01,-0.03
2020-08-13 11:53:18.6480,-0.01,0.01,-0.02
2020-08-13 11:53:18.7430,0.09,-0.01,-0.02
2020-08-13 11:53:18.8420,0.06,-0.07,-0.13
2020-08-13 11:53:18.9410,0.06,-0.19,-0.05
2020-08-13 11:53:19.0420,0.27,-0.54,0.06
2020-08-13 11:53:19.0940,0.19,-0.25,0.09
2020-08-13 11:53:19.1830,0.37,0.37,0.09
2020-08-13 11:53:19.2740,0.54,0.24,-0.14
2020-08-13 11:53:19.3630,0.17,-0.02,-0.06
2020-08-13 11:53:19.4640,0.01,-0.05,-0.07
2020-08-13 11:53:19.5540,-0.12,-0.04,-0.05
2020-08-13 11:53:19.6450,-0.12,-0.02,-0.05
2020-08-13 11:53:19.7360,-0.17,-0.04,-0.01
2020-08-13 11:53:19.8380,-0.22,0.05,0.04
2020-08-13 11:53:19.9340,-0.21,0.07,0.02
2020-08-13 11:53:20.0470,-0.16,0.04,-0.04
2020-08-13 11:53:20.1330,-0.02,-0.36,-0.06
2020-08-13 11:53:20.1920,0.38,0.08,0.08
2020-08-13 11:53:20.2900,0.28,-0.02,0.03
2020-08-13 11:53:20.3800,0.19,-0.01,0.01
2020-08-13 11:53:20.4700,0.16,0.02,-0.0
2020-08-13 11:53:20.5590,0.32,0.02,0.07
2020-08-13 11:53:20.6480,0.29,-0.14,-0.12
2020-08-13 11:53:20.7380,0.23,-0.29,0.02
2020-08-13 11:53:20.8250,0.47,-0.47,0.01
2020-08-13 11:53:20.9250,0.19,-0.17,0.12
2020-08-13 11:53:21.0360,0.78,0.19,-0.16
2020-08-13 11:53:21.1240,0.38,0.06,-0.11
2020-08-13 11:53:21.2230,0.15,-0.05,0.05
2020-08-13 11:53:21.2800,0.18,-0.06,0.04
2020-08-13 11:53:21.3690,0.08,-0.05,-0.0
2020-08-13 11:53:21.4600,0.06,-0.05,0.01
2020-08-13 11:53:21.5500,0.11,-0.04,0.05
2020-08-13 11:53:21.6400,0.01,-0.04,-0.0
2020-08-13 11:53:21.7410,-0.1,0.01,0.04
2020-08-13 11:53:21.8350,-0.12,0.06,0.04
2020-08-13 11:53:21.9250,-0.31,0.1,-0.19
2020-08-13 11:53:22.0160,0.18,-0.64,0.05
2020-08-13 11:53:22.1160,0.14,-0.03,0.02
2020-08-13 11:53:22.2240,0.19,-0.02,-0.02
2020-08-13 11:53:22.2860,0.2,0.03,-0.0
2020-08-13 11:53:22.3660,0.24,0.01,-0.02
2020-08-13 11:53:22.4550,0.24,-0.08,-0.08
2020-08-13 11:53:22.5430,0.2,-0.17,-0.03
2020-08-13 11:53:22.6330,0.3,-0.4,-0.0
2020-08-13 11:53:22.7240,0.4,-0.53,0.04
2020-08-13 11:53:22.8140,0.1,-0.03,0.06
2020-08-13 11:53:22.9110,0.74,0.2,-0.15
2020-08-13 11:53:23.0100,0.35,0.02,-0.16
2020-08-13 11:53:23.1080,0.12,-0.11,-0.04
2020-08-13 11:53:23.2180,0.03,-0.11,0.04
2020-08-13 11:53:23.2760,0.07,-0.1,0.02
2020-08-13 11:53:23.3600,0.07,-0.06,0.01
2020-08-13 11:53:23.4550,-0.0,-0.02,-0.03
2020-08-13 11:53:23.5460,-0.02,0.02,-0.05
2020-08-13 11:53:23.6350,-0.11,0.08,-0.04
2020-08-13 11:53:23.7260,-0.06,0.08,-0.14
2020-08-13 11:53:23.8160,0.31,0.26,0.01
2020-08-13 11:53:23.9060,0.19,0.01,-0.04
2020-08-13 11:53:24.0010,0.26,-0.01,0.03
2020-08-13 11:53:24.0980,0.28,-0.02,-0.04
2020-08-13 11:53:24.2010,0.26,-0.02,-0.0
2020-08-13 11:53:24.2980,0.26,-0.07,-0.02
2020-08-13 11:53:24.3550,0.23,-0.19,-0.05
2020-08-13 11:53:24.4450,0.42,-0.75,0.06
2020-08-13 11:53:24.5360,0.38,-0.42,0.18
2020-08-13 11:53:24.6250,0.27,0.2,0.09
2020-08-13 11:53:24.7160,0.72,0.16,-0.14
2020-08-13 11:53:24.8050,0.27,-0.14,-0.0
2020-08-13 11:53:24.8980,0.35,-0.1,0.03
2020-08-13 11:53:24.9950,0.12,-0.17,0.0
2020-08-13 11:53:25.0920,0.28,-0.12,0.04
2020-08-13 11:53:25.1910,0.2,-0.1,0.05
2020-08-13 11:53:25.2910,0.03,-0.08,0.02
2020-08-13 11:53:25.3890,-0.13,-0.01,0.03
2020-08-13 11:53:25.4510,-0.25,0.08,0.01
2020-08-13 11:53:25.5290,0.21,-0.15,0.29
2020-08-13 11:53:25.6280,0.59,-0.09,-0.01
2020-08-13 11:53:25.7170,0.46,-0.05,-0.04
2020-08-13 11:53:25.7980,0.33,-0.05,-0.05
2020-08-13 11:53:25.8970,0.27,-0.04,-0.03
2020-08-13 11:53:25.9870,0.34,-0.12,-0.06
2020-08-13 11:53:26.0840,0.39,-0.15,-0.0
2020-08-13 11:53:26.1830,0.31,-0.29,-0.09
2020-08-13 11:53:26.2830,0.49,-0.81,0.01
2020-08-13 11:53:26.3920,0.41,-0.35,0.18
2020-08-13 11:53:26.4810,1.25,0.19,-0.07
2020-08-13 11:53:26.5340,0.64,0.07,-0.1
2020-08-13 11:53:26.6240,0.06,-0.22,0.05
2020-08-13 11:53:26.7130,0.31,-0.16,-0.01
2020-08-13 11:53:26.8160,0.19,-0.19,0.02
2020-08-13 11:53:26.9000,0.12,-0.15,-0.01
2020-08-13 11:53:26.9970,-0.13,-0.11,0.03
2020-08-13 11:53:27.0800,-0.14,0.01,0.0
2020-08-13 11:53:27.1770,-0.07,0.06,-0.04
2020-08-13 11:53:27.2750,0.63,0.13,-0.07
2020-08-13 11:53:27.3720,-0.15,0.02,-0.37
2020-08-13 11:53:27.4710,0.14,-0.01,0.06
2020-08-13 11:53:27.5240,0.34,-0.06,0.02
2020-08-13 11:53:27.6140,0.38,-0.04,0.02
2020-08-13 11:53:27.7050,0.38,-0.03,0.02
2020-08-13 11:53:27.7930,0.28,-0.13,-0.0
2020-08-13 11:53:27.8970,0.31,-0.13,-0.03
2020-08-13 11:53:27.9800,0.3,-0.24,-0.03
2020-08-13 11:53:28.0750,0.34,-0.41,0.01
2020-08-13 11:53:28.1660,0.4,-0.6,0.13
2020-08-13 11:53:28.2580,0.28,-0.17,0.0
2020-08-13 11:53:28.3560,1.06,0.13,-0.17
2020-08-13 11:53:28.4560,0.37,-0.07,0.03
2020-08-13 11:53:28.5560,0.11,-0.2,0.04
2020-08-13 11:53:28.6570,0.31,-0.23,0.09
2020-08-13 11:53:28.7070,0.3,-0.16,0.1
2020-08-13 11:53:28.8040,0.33,-0.15,0.05
2020-08-13 11:53:28.9020,0.28,-0.11,0.05
2020-08-13 11:53:28.9830,0.15,-0.07,0.04
2020-08-13 11:53:29.0820,0.03,-0.02,0.08
2020-08-13 11:53:29.1710,0.16,0.08,-0.04
2020-08-13 11:53:29.2610,-0.09,0.09,-0.16
2020-08-13 11:53:29.3480,-0.24,-0.86,-0.47
2020-08-13 11:53:29.4480,-0.01,-0.07,0.19
2020-08-13 11:53:29.5460,0.34,-0.02,0.0
2020-08-13 11:53:29.6480,0.31,-0.01,0.04
2020-08-13 11:53:29.7070,0.29,-0.08,0.01
2020-08-13 11:53:29.7880,0.38,-0.1,0.04
2020-08-13 11:53:29.8780,0.42,-0.18,0.01
2020-08-13 11:53:29.9810,0.3,-0.31,-0.02
2020-08-13 11:53:30.0720,0.43,-0.82,0.11
2020-08-13 11:53:30.1620,0.26,-0.36,0.3
2020-08-13 11:53:30.2520,0.91,0.13,-0.14
2020-08-13 11:53:30.3410,0.43,-0.01,-0.02
2020-08-13 11:53:30.4490,0.19,-0.18,0.11
2020-08-13 11:53:30.5370,0.21,-0.17,0.07
2020-08-13 11:53:30.6370,0.25,-0.06,0.08
2020-08-13 11:53:30.6970,0.29,-0.18,0.05
2020-08-13 11:53:30.7870,0.4,-0.16,0.09
2020-08-13 11:53:30.8710,0.33,-0.12,0.09
2020-08-13 11:53:30.9580,0.16,-0.08,0.06
2020-08-13 11:53:31.0490,0.01,-0.04,0.05
2020-08-13 11:53:31.1520,0.03,0.01,-0.04
2020-08-13 11:53:31.2450,0.01,0.08,-0.08
2020-08-13 11:53:31.3420,0.22,0.12,-0.05
2020-08-13 11:53:31.4320,0.45,-0.08,0.02
2020-08-13 11:53:31.5300,0.34,-0.04,0.01
2020-08-13 11:53:31.6280,0.3,-0.08,-0.0
2020-08-13 11:53:31.7300,0.39,-0.11,0.04
2020-08-13 11:53:31.7810,0.37,-0.21,-0.01
2020-08-13 11:53:31.8870,0.35,-0.41,-0.03
2020-08-13 11:53:31.9620,0.48,-0.75,0.14
2020-08-13 11:53:32.0670,0.39,-0.4,0.15
2020-08-13 11:53:32.1410,1.09,-0.03,-0.04
2020-08-13 11:53:32.2320,0.59,-0.08,-0.02
2020-08-13 11:53:32.3350,0.15,-0.17,0.21
2020-08-13 11:53:32.4220,0.26,-0.18,-0.01
2020-08-13 11:53:32.5200,0.25,-0.19,0.02
2020-08-13 11:53:32.6200,0.15,-0.17,0.1
2020-08-13 11:53:32.7210,0.13,-0.07,0.07
2020-08-13 11:53:32.8180,0.12,-0.03,0.01
2020-08-13 11:53:32.8770,0.27,0.01,0.02
2020-08-13 11:53:32.9520,0.09,-0.03,0.05
2020-08-13 11:53:33.0570,-0.2,0.12,-0.48
2020-08-13 11:53:33.1330,-0.38,0.17,0.06
2020-08-13 11:53:33.2230,0.25,-0.04,0.05
2020-08-13 11:53:33.3130,0.33,-0.02,0.05
2020-08-13 11:53:33.4130,0.29,-0.06,0.01
2020-08-13 11:53:33.5110,0.37,-0.05,0.04
2020-08-13 11:53:33.6100,0.37,-0.15,-0.01
2020-08-13 11:53:33.6730,0.3,-0.3,0.04
2020-08-13 11:53:33.7630,0.37,-0.48,-0.0
2020-08-13 11:53:33.8540,0.27,-0.42,0.12
2020-08-13 11:53:33.9560,0.29,0.02,0.04
2020-08-13 11:53:34.0470,0.51,0.02,-0.07
2020-08-13 11:53:34.1420,0.35,-0.15,0.05
2020-08-13 11:53:34.2380,0.29,-0.17,0.04
2020-08-13 11:53:34.3200,0.23,-0.12,0.04
2020-08-13 11:53:34.4170,0.31,-0.15,0.03
2020-08-13 11:53:34.5040,0.19,-0.16,0.03
2020-08-13 11:53:34.6030,0.13,-0.15,0.07
2020-08-13 11:53:34.7020,0.01,-0.06,0.05
2020-08-13 11:53:34.8010,0.04,0.03,-0.03
2020-08-13 11:53:34.9000,-0.02,0.08,-0.05
2020-08-13 11:53:34.9620,0.9,-0.26,0.77
2020-08-13 11:53:35.0510,0.77,-0.06,-0.1
2020-08-13 11:53:35.1410,0.37,-0.06,-0.01
2020-08-13 11:53:35.2300,0.3,-0.04,0.02
2020-08-13 11:53:35.3190,0.29,-0.03,0.01
2020-08-13 11:53:35.4080,0.32,-0.07,0.01
2020-08-13 11:53:35.5040,0.33,-0.17,0.02
2020-08-13 11:53:35.5950,0.29,-0.34,-0.06
2020-08-13 11:53:35.6950,0.42,-0.73,0.17
2020-08-13 11:53:35.7940,0.55,-0.44,0.15
2020-08-13 11:53:35.8930,0.34,0.17,0.26
2020-08-13 11:53:35.9530,0.72,0.05,-0.02
2020-08-13 11:53:36.0430,0.39,-0.16,0.06
2020-08-13 11:53:36.1340,0.24,-0.24,0.02
2020-08-13 11:53:36.2230,0.16,-0.18,0.01
2020-08-13 11:53:36.3280,0.2,-0.11,0.0
2020-08-13 11:53:36.4030,0.17,-0.12,0.09
2020-08-13 11:53:36.4930,0.1,-0.05,0.13
2020-08-13 11:53:36.5980,0.05,-0.0,0.02
2020-08-13 11:53:36.6840,-0.01,0.05,0.02
2020-08-13 11:53:36.7940,0.02,0.09,-0.1
2020-08-13 11:53:36.8830,0.5,-0.83,-0.1
2020-08-13 11:53:36.9830,0.17,-0.11,0.21
2020-08-13 11:53:37.0340,0.3,-0.08,-0.02
2020-08-13 11:53:37.1350,0.22,-0.06,0.0
2020-08-13 11:53:37.2140,0.3,-0.09,-0.02
2020-08-13 11:53:37.3130,0.37,-0.13,-0.01
2020-08-13 11:53:37.4030,0.32,-0.26,-0.05
2020-08-13 11:53:37.4970,0.39,-0.71,0.22
2020-08-13 11:53:37.5870,0.36,-0.43,0.11
2020-08-13 11:53:37.6790,0.56,0.19,0.29
2020-08-13 11:53:37.7790,0.62,0.04,-0.06
2020-08-13 11:53:37.8780,0.28,-0.1,0.03
2020-08-13 11:53:37.9770,0.23,-0.13,0.09
2020-08-13 11:53:38.0740,0.21,-0.17,0.07
2020-08-13 11:53:38.1430,0.14,-0.15,0.04
2020-08-13 11:53:38.2270,0.21,-0.12,0.08
2020-08-13 11:53:38.3230,0.13,-0.08,0.09
2020-08-13 11:53:38.4050,0.15,-0.01,0.02
2020-08-13 11:53:38.4950,0.19,0.01,-0.01
2020-08-13 11:53:38.5930,0.09,0.03,0.01
2020-08-13 11:53:38.6830,-0.37,0.11,-0.2
2020-08-13 11:53:38.7710,0.35,0.17,0.03
2020-08-13 11:53:38.8690,0.28,0.02,0.07
2020-08-13 11:53:38.9680,0.29,-0.01,0.02
2020-08-13 11:53:39.0680,0.29,-0.03,0.03
2020-08-13 11:53:39.1340,0.24,-0.1,0.0
2020-08-13 11:53:39.2230,0.22,-0.14,0.01
2020-08-13 11:53:39.3060,0.28,-0.22,-0.02
2020-08-13 11:53:39.4050,0.44,-0.65,0.03
2020-08-13 11:53:39.4860,0.55,-0.49,0.2
2020-08-13 11:53:39.5740,0.11,-0.03,0.12
2020-08-13 11:53:39.6740,0.75,0.19,-0.1
2020-08-13 11:53:39.7730,0.2,-0.08,0.04
2020-08-13 11:53:39.8610,0.11,-0.06,0.1
2020-08-13 11:53:39.9590,0.27,-0.19,0.04
2020-08-13 11:53:40.0570,0.24,-0.16,0.04
2020-08-13 11:53:40.1150,0.02,-0.07,0.06
2020-08-13 11:53:40.2090,0.09,0.0,0.05
2020-08-13 11:53:40.3040,0.19,0.01,0.03
2020-08-13 11:53:40.3930,0.09,-0.04,-0.0
2020-08-13 11:53:40.4830,0.08,0.03,-0.03
2020-08-13 11:53:40.5740,0.11,0.11,-0.12
2020-08-13 11:53:40.6630,0.82,-1.02,0.39
2020-08-13 11:53:40.7540,0.72,-0.22,-0.04
2020-08-13 11:53:40.8540,0.32,0.02,-0.05
2020-08-13 11:53:40.9500,0.2,0.02,0.04
2020-08-13 11:53:41.0490,0.35,0.02,0.05
2020-08-13 11:53:41.1510,0.32,-0.07,-0.03
2020-08-13 11:53:41.2040,0.24,-0.17,-0.06
2020-08-13 11:53:41.3090,0.22,-0.48,-0.04
2020-08-13 11:53:41.3990,0.28,-0.43,0.01
2020-08-13 11:53:41.4900,0.34,0.1,0.36
2020-08-13 11:53:41.5940,0.67,0.08,-0.13
2020-08-13 11:53:41.6680,0.31,-0.09,-0.01
2020-08-13 11:53:41.7740,0.29,-0.09,0.06
2020-08-13 11:53:41.8480,0.33,-0.11,0.06
2020-08-13 11:53:41.9420,0.19,-0.14,-0.04
2020-08-13 11:53:42.0430,0.17,-0.15,-0.03
2020-08-13 11:53:42.1400,0.0,-0.1,0.06
2020-08-13 11:53:42.2390,0.12,-0.01,-0.01
2020-08-13 11:53:42.2980,0.12,0.04,0.05
2020-08-13 11:53:42.4000,-0.07,0.05,0.02
2020-08-13 11:53:42.4890,-0.55,0.13,-0.22
2020-08-13 11:53:42.5760,0.07,0.22,0.03
2020-08-13 11:53:42.6740,0.25,-0.02,-0.04
2020-08-13 11:53:42.7580,0.23,-0.02,-0.0
2020-08-13 11:53:42.8550,0.25,0.03,0.02
2020-08-13 11:53:42.9370,0.29,-0.05,-0.01
2020-08-13 11:53:43.0350,0.31,-0.07,0.03
2020-08-13 11:53:43.1350,0.22,-0.17,0.0
2020-08-13 11:53:43.2310,0.23,-0.47,-0.03
2020-08-13 11:53:43.3310,0.42,-0.65,0.18
2020-08-13 11:53:43.3820,0.1,0.13,0.09
2020-08-13 11:53:43.4800,0.9,0.07,-0.11
2020-08-13 11:53:43.5620,0.24,-0.16,0.07
2020-08-13 11:53:43.6610,0.15,-0.22,0.03
2020-08-13 11:53:43.7430,0.2,-0.13,-0.0
2020-08-13 11:53:43.8400,0.22,-0.1,-0.0
2020-08-13 11:53:43.9300,0.12,-0.1,0.03
2020-08-13 11:53:44.0330,0.0,-0.06,0.08
2020-08-13 11:53:44.1250,-0.07,0.0,0.1
2020-08-13 11:53:44.2350,0.05,0.07,-0.02
2020-08-13 11:53:44.2940,-0.06,0.04,0.07
2020-08-13 11:53:44.3750,-0.4,0.08,-0.34
2020-08-13 11:53:44.4660,-0.21,0.06,-0.03
2020-08-13 11:53:44.5540,-0.0,-0.07,0.04
2020-08-13 11:53:44.6430,0.17,-0.01,-0.02
2020-08-13 11:53:44.7420,0.22,-0.03,-0.01
2020-08-13 11:53:44.8310,0.2,-0.02,0.01
2020-08-13 11:53:44.9200,0.26,-0.08,-0.04
2020-08-13 11:53:45.0190,0.24,-0.14,-0.04
2020-08-13 11:53:45.1160,0.25,-0.29,0.02
2020-08-13 11:53:45.2250,0.35,-0.54,0.05
2020-08-13 11:53:45.2850,0.25,-0.38,0.19
2020-08-13 11:53:45.3740,1.13,0.26,-0.19
2020-08-13 11:53:45.4650,0.57,0.03,-0.07
2020-08-13 11:53:45.5550,0.07,-0.09,0.02
2020-08-13 11:53:45.6540,0.15,-0.17,-0.01
2020-08-13 11:53:45.7430,0.2,-0.1,0.01
2020-08-13 11:53:45.8400,0.16,-0.08,0.04
2020-08-13 11:53:45.9150,-0.05,-0.06,0.08
2020-08-13 11:53:46.0120,-0.01,-0.02,-0.01
2020-08-13 11:53:46.1080,0.0,0.02,0.01
2020-08-13 11:53:46.2090,0.0,0.09,-0.03
2020-08-13 11:53:46.3140,-0.41,0.18,-0.23
2020-08-13 11:53:46.4050,0.11,0.13,-0.09
2020-08-13 11:53:46.4580,0.15,-0.01,0.0
2020-08-13 11:53:46.5490,0.28,-0.02,-0.0
2020-08-13 11:53:46.6450,0.26,-0.01,0.0
2020-08-13 11:53:46.7280,0.23,-0.02,-0.01
2020-08-13 11:53:46.8300,0.26,-0.07,-0.01
2020-08-13 11:53:46.9070,0.18,-0.14,-0.0
2020-08-13 11:53:47.0100,0.2,-0.27,-0.02
2020-08-13 11:53:47.1000,0.43,-0.74,0.16
2020-08-13 11:53:47.2010,0.25,-0.29,0.14
2020-08-13 11:53:47.2990,0.96,0.24,-0.05
2020-08-13 11:53:47.3980,0.49,0.04,-0.12
2020-08-13 11:53:47.4600,0.15,-0.12,0.02
2020-08-13 11:53:47.5500,0.1,-0.07,0.09
2020-08-13 11:53:47.6550,0.12,-0.13,0.01
2020-08-13 11:53:47.7450,0.25,-0.05,0.02
2020-08-13 11:53:47.8350,0.23,-0.07,0.05
2020-08-13 11:53:47.9180,0.08,-0.07,0.07
2020-08-13 11:53:48.0080,0.02,0.01,0.03
2020-08-13 11:53:48.1060,-0.01,0.04,-0.0
2020-08-13 11:53:48.2050,-0.13,0.1,0.01
2020-08-13 11:53:48.2910,0.1,-0.29,-0.29
2020-08-13 11:53:48.4000,0.21,-0.02,0.11
2020-08-13 11:53:48.4890,0.25,-0.03,0.03
2020-08-13 11:53:48.5430,0.34,0.01,0.04
2020-08-13 11:53:48.6330,0.28,-0.07,-0.04
2020-08-13 11:53:48.7220,0.22,-0.16,-0.03
2020-08-13 11:53:48.8250,0.25,-0.26,-0.1
2020-08-13 11:53:48.9010,0.34,-0.69,0.18
2020-08-13 11:53:48.9990,0.42,-0.22,0.04
2020-08-13 11:53:49.0950,0.6,0.19,0.18
2020-08-13 11:53:49.1960,0.58,0.01,-0.03
2020-08-13 11:53:49.2860,0.11,-0.17,0.01
2020-08-13 11:53:49.3820,0.32,-0.1,-0.04
2020-08-13 11:53:49.4810,0.29,-0.1,0.02
2020-08-13 11:53:49.5800,0.15,-0.14,0.04
2020-08-13 11:53:49.6350,-0.03,-0.09,0.06
2020-08-13 11:53:49.7240,0.01,-0.04,-0.01
2020-08-13 11:53:49.8140,0.21,0.05,0.04
2020-08-13 11:53:49.9040,0.23,0.02,0.05
2020-08-13 11:53:50.0100,0.07,0.08,-0.06
2020-08-13 11:53:50.1000,0.13,0.12,0.33
2020-08-13 11:53:50.1890,0.68,-0.11,-0.07
2020-08-13 11:53:50.2780,0.43,-0.0,-0.03
2020-08-13 11:53:50.3760,0.26,0.01,0.04
2020-08-13 11:53:50.4860,0.13,-0.09,-0.03
2020-08-13 11:53:50.5770,0.35,-0.04,0.03
2020-08-13 11:53:50.6350,0.35,-0.12,-0.03
2020-08-13 11:53:50.7190,0.25,-0.22,-0.01
2020-08-13 11:53:50.8200,0.65,-0.7,0.08
2020-08-13 11:53:50.9030,0.27,-0.31,0.31
2020-08-13 11:53:51.0010,0.85,0.14,-0.13
2020-08-13 11:53:51.0910,0.37,0.0,-0.06
2020-08-13 11:53:51.1800,0.19,-0.08,0.13
2020-08-13 11:53:51.2810,0.16,-0.14,0.03
2020-08-13 11:53:51.3770,0.2,-0.13,0.01
2020-08-13 11:53:51.4750,0.16,-0.1,-0.01
2020-08-13 11:53:51.5670,0.14,-0.05,0.03
2020-08-13 11:53:51.6580,0.1,-0.06,0.05
2020-08-13 11:53:51.7570,0.19,-0.03,0.03
2020-08-13 11:53:51.8260,0.18,0.03,0.04
2020-08-13 11:53:51.9070,0.02,0.07,0.06
2020-08-13 11:53:52.0060,-0.16,0.05,-0.13
2020-08-13 11:53:52.0860,0.02,-0.22,-0.15
2020-08-13 11:53:52.1730,0.19,-0.08,0.06
2020-08-13 11:53:52.2640,0.26,-0.04,0.02
2020-08-13 11:53:52.3540,0.25,-0.03,0.01
2020-08-13 11:53:52.4520,0.25,-0.06,-0.01
2020-08-13 11:53:52.5500,0.25,-0.04,-0.1
2020-08-13 11:53:52.6490,0.19,-0.25,0.01
2020-08-13 11:53:52.7480,0.28,-0.63,0.04
2020-08-13 11:53:52.8010,0.45,-0.5,0.14
2020-08-13 11:53:52.8960,0.53,0.16,0.16
2020-08-13 11:53:52.9890,0.44,0.14,-0.19
2020-08-13 11:53:53.0850,0.21,-0.07,0.01
2020-08-13 11:53:53.1770,0.04,-0.16,0.04
2020-08-13 11:53:53.2660,0.1,-0.1,0.0
2020-08-13 11:53:53.3570,-0.01,-0.04,0.04
2020-08-13 11:53:53.4610,0.13,-0.08,0.03
2020-08-13 11:53:53.5510,0.18,-0.06,0.04
2020-08-13 11:53:53.6410,0.22,-0.04,0.01
2020-08-13 11:53:53.7410,0.27,-0.04,0.03
2020-08-13 11:53:53.8400,0.08,-0.01,0.06
2020-08-13 11:53:53.9370,-0.04,0.11,-0.19
2020-08-13 11:53:53.9890,0.77,-0.23,0.59
2020-08-13 11:53:54.0880,0.5,-0.06,-0.04
2020-08-13 11:53:54.1690,0.27,-0.04,-0.02
2020-08-13 11:53:54.2670,0.28,-0.0,-0.0
2020-08-13 11:53:54.3450,0.28,-0.02,-0.01
2020-08-13 11:53:54.4370,0.27,-0.04,0.03
2020-08-13 11:53:54.5320,0.2,-0.14,-0.06
2020-08-13 11:53:54.6310,0.14,-0.26,-0.02
2020-08-13 11:53:54.7310,0.5,-0.7,0.08
2020-08-13 11:53:54.8300,0.33,-0.32,0.43
2020-08-13 11:53:54.9290,0.94,0.24,-0.24
2020-08-13 11:53:55.0390,0.19,0.03,0.01
2020-08-13 11:53:55.0820,0.21,-0.15,0.0
2020-08-13 11:53:55.1700,0.18,-0.08,0.06
2020-08-13 11:53:55.2760,0.17,-0.07,-0.01
2020-08-13 11:53:55.3580,0.19,-0.15,-0.03
2020-08-13 11:53:55.4570,0.18,-0.12,0.12
2020-08-13 11:53:55.5470,0.06,-0.05,0.12
2020-08-13 11:53:55.6270,-0.02,-0.01,0.08
2020-08-13 11:53:55.7240,-0.07,0.03,0.03
2020-08-13 11:53:55.8220,0.2,0.05,-0.09
2020-08-13 11:53:55.9220,0.03,-0.1,-0.51
2020-08-13 11:53:56.0220,-0.02,0.08,-0.01
2020-08-13 11:53:56.0750,0.18,-0.11,-0.05
2020-08-13 11:53:56.1760,0.27,-0.06,-0.08
2020-08-13 11:53:56.2520,0.24,-0.02,-0.05
2020-08-13 11:53:56.3500,0.33,-0.12,-0.08
2020-08-13 11:53:56.4390,0.33,-0.17,-0.16
2020-08-13 11:53:56.5290,0.3,-0.46,0.03
2020-08-13 11:53:56.6180,0.25,-0.6,0.01
2020-08-13 11:53:56.7160,0.23,-0.4,0.09
2020-08-13 11:53:56.8150,1.06,0.08,-0.03
2020-08-13 11:53:56.9140,0.56,0.06,-0.14
2020-08-13 11:53:57.0120,0.2,-0.11,-0.03
2020-08-13 11:53:57.0650,0.19,-0.1,0.06
2020-08-13 11:53:57.1540,0.33,-0.23,-0.03
2020-08-13 11:53:57.2450,0.21,-0.19,0.01
2020-08-13 11:53:57.3340,-0.03,-0.13,0.03
2020-08-13 11:53:57.4370,-0.01,-0.06,-0.0
2020-08-13 11:53:57.5210,0.09,0.04,-0.0
2020-08-13 11:53:57.6090,0.11,0.0,0.02
2020-08-13 11:53:57.7080,0.1,0.08,-0.12
2020-08-13 11:53:57.8080,0.53,-0.53,-0.09
2020-08-13 11:53:57.9100,0.14,-0.06,0.09
2020-08-13 11:53:58.0050,0.23,-0.05,-0.05
2020-08-13 11:53:58.1020,0.22,-0.01,-0.01
2020-08-13 11:53:58.1560,0.2,-0.05,-0.04
2020-08-13 11:53:58.2460,0.22,-0.07,-0.04
2020-08-13 11:53:58.3350,0.23,-0.2,-0.07
2020-08-13 11:53:58.4260,0.21,-0.3,-0.0
2020-08-13 11:53:58.5160,0.35,-0.59,0.09
2020-08-13 11:53:58.6070,0.28,-0.2,0.08
2020-08-13 11:53:58.6980,0.9,0.07,-0.11
2020-08-13 11:53:58.7990,0.48,-0.1,0.01
2020-08-13 11:53:58.8960,0.08,-0.16,-0.08
2020-08-13 11:53:58.9670,0.06,-0.02,-0.03
2020-08-13 11:53:59.0960,0.13,-0.06,0.05
2020-08-13 11:53:59.1480,0.22,-0.08,0.01
2020-08-13 11:53:59.2520,0.21,-0.06,0.01
2020-08-13 11:53:59.3290,0.13,-0.04,0.01
2020-08-13 11:53:59.4300,0.07,-0.02,-0.02
2020-08-13 11:53:59.5140,0.05,-0.0,-0.03
2020-08-13 11:53:59.6030,0.03,0.02,-0.05
2020-08-13 11:53:59.7030,-0.12,0.08,-0.15
2020-08-13 11:53:59.7920,0.46,-0.48,-0.32
2020-08-13 11:53:59.8910,0.05,-0.04,0.1
2020-08-13 11:53:59.9880,0.21,-0.02,0.01
2020-08-13 11:54:00.0860,0.15,0.01,0.02
2020-08-13 11:54:00.1420,0.22,0.03,0.03
2020-08-13 11:54:00.2580,0.18,-0.07,-0.09
2020-08-13 11:54:00.3310,0.19,-0.2,-0.06
2020-08-13 11:54:00.4220,0.23,-0.29,-0.0
2020-08-13 11:54:00.5160,0.3,-0.38,-0.15
2020-08-13 11:54:00.6060,0.16,-0.11,0.12
2020-08-13 11:54:00.6950,0.92,0.04,-0.09
2020-08-13 11:54:00.7940,0.45,0.01,-0.09
2020-08-13 11:54:00.8830,0.22,-0.06,0.0
2020-08-13 11:54:00.9810,0.16,-0.06,0.03
2020-08-13 11:54:01.0800,0.11,-0.07,0.07
2020-08-13 11:54:01.1790,0.12,-0.11,0.06
2020-08-13 11:54:01.2470,0.11,-0.05,-0.01
2020-08-13 11:54:01.3290,-0.04,-0.06,-0.04
2020-08-13 11:54:01.4280,-0.14,0.0,0.04
2020-08-13 11:54:01.5080,-0.04,0.04,0.05
2020-08-13 11:54:01.5930,0.04,0.05,-0.03
2020-08-13 11:54:01.6860,-0.02,0.21,-0.09
2020-08-13 11:54:01.7750,0.38,-0.07,-0.12
2020-08-13 11:54:01.8730,0.31,0.01,0.01
2020-08-13 11:54:01.9720,0.22,0.03,0.01
2020-08-13 11:54:02.0700,0.2,-0.04,-0.03
2020-08-13 11:54:02.1350,0.19,-0.01,-0.03
2020-08-13 11:54:02.2710,0.14,-0.11,-0.06
2020-08-13 11:54:02.3270,0.17,-0.35,-0.08
2020-08-13 11:54:02.4170,0.39,-0.53,0.07
2020-08-13 11:54:02.5060,0.33,-0.28,0.25
2020-08-13 11:54:02.5970,0.81,0.19,-0.06
2020-08-13 11:54:02.6890,0.51,0.17,-0.11
2020-08-13 11:54:02.7780,0.13,-0.06,0.04
2020-08-13 11:54:02.8690,0.07,-0.08,0.07
2020-08-13 11:54:02.9680,0.17,-0.08,-0.03
2020-08-13 11:54:03.0640,0.22,-0.11,-0.02
2020-08-13 11:54:03.1730,0.02,-0.1,0.03
2020-08-13 11:54:03.2620,-0.1,-0.04,0.08
2020-08-13 11:54:03.3190,-0.03,0.02,0.03
2020-08-13 11:54:03.4160,-0.01,0.03,-0.01
2020-08-13 11:54:03.5130,-0.07,0.03,-0.01
2020-08-13 11:54:03.6030,-0.04,0.07,-0.17
2020-08-13 11:54:03.6830,0.08,0.1,-0.15
2020-08-13 11:54:03.7820,-0.01,-0.01,0.09
2020-08-13 11:54:03.8700,0.22,0.03,0.06
2020-08-13 11:54:03.9780,0.2,-0.0,-0.01
2020-08-13 11:54:04.0620,0.23,-0.01,-0.0
2020-08-13 11:54:04.1570,0.22,-0.08,0.03
2020-08-13 11:54:04.2570,-0.01,-0.12,-0.04
2020-08-13 11:54:04.3610,0.07,-0.21,-0.03
2020-08-13 11:54:04.4160,0.3,-0.78,0.21
2020-08-13 11:54:04.5020,0.36,-0.42,0.37
2020-08-13 11:54:04.5930,0.88,0.16,-0.04
2020-08-13 11:54:04.6830,0.6,0.14,-0.2
2020-08-13 11:54:04.7750,0.34,-0.05,-0.11
2020-08-13 11:54:04.8650,-0.15,-0.16,0.11
2020-08-13 11:54:04.9540,-0.12,-0.09,0.0
2020-08-13 11:54:05.0590,0.13,-0.06,0.01
2020-08-13 11:54:05.1480,0.09,-0.05,0.08
2020-08-13 11:54:05.2490,0.03,-0.0,0.1
2020-08-13 11:54:05.3500,0.03,0.04,0.04
2020-08-13 11:54:05.4050,-0.06,0.07,-0.0
2020-08-13 11:54:05.4930,-0.29,0.07,-0.13
2020-08-13 11:54:05.5840,-0.33,-0.21,-0.33
2020-08-13 11:54:05.6900,0.04,-0.06,0.03
2020-08-13 11:54:05.7780,0.26,-0.04,0.03
2020-08-13 11:54:05.8670,0.25,0.02,-0.04
2020-08-13 11:54:05.9570,0.24,-0.03,0.0
2020-08-13 11:54:06.0560,0.26,-0.08,-0.04
2020-08-13 11:54:06.1540,0.25,-0.13,-0.0
2020-08-13 11:54:06.2400,0.28,-0.27,-0.03
2020-08-13 11:54:06.3410,0.32,-0.52,0.11
2020-08-13 11:54:06.4390,0.26,-0.2,0.16
2020-08-13 11:54:06.4970,0.81,0.16,-0.16
2020-08-13 11:54:06.5880,0.49,0.09,-0.05
2020-08-13 11:54:06.6780,0.26,-0.15,0.11
2020-08-13 11:54:06.7770,0.16,-0.15,0.09
2020-08-13 11:54:06.8740,0.16,-0.09,-0.03
2020-08-13 11:54:06.9640,0.12,-0.03,-0.0
2020-08-13 11:54:07.0440,0.1,-0.04,-0.0
2020-08-13 11:54:07.1440,0.03,-0.06,0.03
2020-08-13 11:54:07.2440,0.15,0.03,0.01
2020-08-13 11:54:07.3320,0.1,0.03,0.04
2020-08-13 11:54:07.4310,-0.1,0.14,-0.1
2020-08-13 11:54:07.5300,0.36,-0.98,-0.05
2020-08-13 11:54:07.5820,0.63,0.0,0.1
2020-08-13 11:54:07.6790,0.36,-0.01,-0.03
2020-08-13 11:54:07.7690,0.23,-0.02,-0.0
2020-08-13 11:54:07.8580,0.21,-0.02,-0.02
2020-08-13 11:54:07.9540,0.27,-0.07,-0.01
2020-08-13 11:54:08.0440,0.25,-0.12,-0.01
2020-08-13 11:54:08.1350,0.28,-0.23,-0.0
2020-08-13 11:54:08.2330,0.33,-0.7,0.05
2020-08-13 11:54:08.3220,0.32,-0.3,0.11
2020-08-13 11:54:08.4210,0.74,0.05,-0.04
2020-08-13 11:54:08.5200,0.61,0.1,-0.04
2020-08-13 11:54:08.6200,0.22,-0.09,0.1
2020-08-13 11:54:08.6750,0.2,-0.13,0.01
2020-08-13 11:54:08.7650,0.14,-0.11,0.06
2020-08-13 11:54:08.8550,0.16,-0.1,0.04
2020-08-13 11:54:08.9590,0.14,-0.08,-0.02
2020-08-13 11:54:09.0480,-0.02,-0.05,0.05
2020-08-13 11:54:09.1250,0.04,0.02,0.07
2020-08-13 11:54:09.2160,0.01,0.03,0.04
2020-08-13 11:54:09.3120,-0.29,0.05,-0.1
2020-08-13 11:54:09.4130,0.25,0.05,-0.06
2020-08-13 11:54:09.5240,0.19,-0.08,-0.0
2020-08-13 11:54:09.6110,0.26,-0.01,-0.02
2020-08-13 11:54:09.7110,0.19,-0.01,0.0
2020-08-13 11:54:09.7690,0.22,0.01,-0.02
2020-08-13 11:54:09.8440,0.22,-0.11,-0.04
2020-08-13 11:54:09.9350,0.07,-0.17,0.05
2020-08-13 11:54:10.0250,0.3,-0.29,0.03
2020-08-13 11:54:10.1290,0.51,-0.56,0.07
2020-08-13 11:54:10.2220,0.2,-0.18,0.14
2020-08-13 11:54:10.3090,0.84,0.1,-0.01
2020-08-13 11:54:10.4150,0.39,-0.05,0.06
2020-08-13 11:54:10.5140,-0.02,-0.11,-0.07
2020-08-13 11:54:10.6020,0.07,-0.1,-0.05
2020-08-13 11:54:10.7070,0.05,-0.08,0.03
2020-08-13 11:54:10.7580,0.21,-0.04,0.08
2020-08-13 11:54:10.8490,0.1,-0.04,0.04
2020-08-13 11:54:10.9390,0.02,-0.03,0.05
2020-08-13 11:54:11.0410,-0.03,-0.01,0.02
2020-08-13 11:54:11.1300,0.14,0.08,0.03
2020-08-13 11:54:11.2130,0.14,0.05,-0.01
2020-08-13 11:54:11.3090,-0.11,0.06,-0.18
2020-08-13 11:54:11.4060,0.06,0.02,-0.12
2020-08-13 11:54:11.4950,0.23,-0.03,-0.04
2020-08-13 11:54:11.5960,0.27,-0.06,-0.03
2020-08-13 11:54:11.6930,0.2,-0.01,-0.03
2020-08-13 11:54:11.7920,0.25,-0.04,-0.07
2020-08-13 11:54:11.8550,0.29,-0.14,-0.03
2020-08-13 11:54:11.9350,0.18,-0.26,-0.09
2020-08-13 11:54:12.0230,0.4,-0.66,0.02
2020-08-13 11:54:12.1200,0.49,-0.33,-0.0
2020-08-13 11:54:12.2110,0.26,-0.07,0.2
2020-08-13 11:54:12.2970,0.67,0.15,-0.05
2020-08-13 11:54:12.3890,0.4,-0.05,-0.06
2020-08-13 11:54:12.4860,0.15,-0.13,0.04
2020-08-13 11:54:12.5840,0.28,-0.18,-0.05
2020-08-13 11:54:12.6840,0.14,-0.14,-0.03
2020-08-13 11:54:12.7550,0.11,-0.09,0.01
2020-08-13 11:54:12.8360,-0.01,-0.1,0.02
2020-08-13 11:54:12.9350,0.1,0.02,0.05
2020-08-13 11:54:13.0150,-0.04,0.09,0.02
2020-08-13 11:54:13.1040,-0.08,0.12,-0.03
2020-08-13 11:54:13.1930,0.21,-0.94,0.03
2020-08-13 11:54:13.2830,0.81,-0.1,0.03
2020-08-13 11:54:13.3810,0.39,-0.04,-0.06
2020-08-13 11:54:13.4770,0.28,-0.01,-0.01
2020-08-13 11:54:13.5780,0.25,-0.06,-0.03
2020-08-13 11:54:13.6820,0.25,-0.06,0.02
2020-08-13 11:54:13.7770,0.26,-0.14,-0.04
2020-08-13 11:54:13.8340,0.23,-0.25,-0.02
2020-08-13 11:54:13.9240,0.46,-0.73,0.05
2020-08-13 11:54:14.0160,0.09,-0.32,0.2
2020-08-13 11:54:14.1050,0.85,0.22,-0.28
2020-08-13 11:54:14.1940,0.41,0.04,-0.02
2020-08-13 11:54:14.2850,0.23,-0.18,0.06
2020-08-13 11:54:14.3890,0.23,-0.14,0.05
2020-08-13 11:54:14.4660,0.3,-0.14,0.0
2020-08-13 11:54:14.5600,0.19,-0.14,0.03
2020-08-13 11:54:14.6600,0.14,-0.1,0.06
2020-08-13 11:54:14.7590,-0.01,-0.08,0.02
2020-08-13 11:54:14.8570,-0.24,-0.0,0.02
2020-08-13 11:54:14.9560,-0.11,0.04,-0.09
2020-08-13 11:54:15.0070,0.42,0.08,-0.15
2020-08-13 11:54:15.0950,0.13,0.04,-0.12
2020-08-13 11:54:15.1890,0.21,-0.01,-0.02
2020-08-13 11:54:15.2780,0.22,-0.05,0.01
2020-08-13 11:54:15.3670,0.24,-0.01,-0.01
2020-08-13 11:54:15.4610,0.3,-0.02,-0.01
2020-08-13 11:54:15.5590,0.17,-0.1,-0.07
2020-08-13 11:54:15.6500,0.22,-0.19,-0.05
2020-08-13 11:54:15.7500,0.23,-0.25,-0.0
2020-08-13 11:54:15.8500,0.33,-0.66,0.04
2020-08-13 11:54:15.9480,0.39,-0.29,0.16
2020-08-13 11:54:16.0100,0.71,0.11,0.02
2020-08-13 11:54:16.1470,0.43,0.0,-0.12
2020-08-13 11:54:16.1900,0.3,-0.14,-0.04
2020-08-13 11:54:16.2880,0.11,-0.08,0.11
2020-08-13 11:54:16.3690,0.18,-0.07,-0.01
2020-08-13 11:54:16.4760,0.19,-0.1,-0.02
2020-08-13 11:54:16.5480,0.33,-0.11,0.05
2020-08-13 11:54:16.6560,0.23,-0.1,0.02
2020-08-13 11:54:16.7430,0.09,-0.04,0.04
2020-08-13 11:54:16.8470,0.07,0.01,0.06
2020-08-13 11:54:16.9400,-0.01,0.04,-0.04
2020-08-13 11:54:17.0010,-0.88,0.11,-0.28
2020-08-13 11:54:17.0900,0.14,0.1,-0.02
2020-08-13 11:54:17.1800,0.23,-0.05,-0.03
2020-08-13 11:54:17.2710,0.23,-0.03,-0.03
2020-08-13 11:54:17.3610,0.22,-0.04,-0.05
2020-08-13 11:54:17.4580,0.23,-0.08,-0.03
2020-08-13 11:54:17.5560,0.21,-0.13,-0.06
2020-08-13 11:54:17.6460,0.23,-0.28,-0.03
2020-08-13 11:54:17.7450,0.41,-0.79,0.19
2020-08-13 11:54:17.8320,0.45,-0.3,0.12
2020-08-13 11:54:17.9310,1.06,0.16,-0.15
2020-08-13 11:54:18.0290,0.64,0.05,-0.08
2020-08-13 11:54:18.0830,-0.04,-0.25,-0.04
2020-08-13 11:54:18.1730,0.14,-0.13,-0.02
2020-08-13 11:54:18.2630,0.09,-0.06,0.06
2020-08-13 11:54:18.3650,-0.04,-0.1,0.04
2020-08-13 11:54:18.4550,0.13,-0.02,0.01
2020-08-13 11:54:18.5450,0.22,-0.01,-0.03
2020-08-13 11:54:18.6350,0.08,-0.0,-0.0
2020-08-13 11:54:18.7260,-0.01,0.06,-0.01
2020-08-13 11:54:18.8240,-0.58,0.02,-0.17
2020-08-13 11:54:18.9240,0.3,0.08,-0.13
2020-08-13 11:54:18.9960,0.33,-0.0,-0.03
2020-08-13 11:54:19.0850,0.25,0.01,-0.01
2020-08-13 11:54:19.1780,0.23,-0.03,-0.06
2020-08-13 11:54:19.2800,0.25,-0.05,-0.03
2020-08-13 11:54:19.3630,0.26,-0.13,-0.06
2020-08-13 11:54:19.4610,0.27,-0.23,0.03
2020-08-13 11:54:19.5510,0.38,-0.64,0.07
2020-08-13 11:54:19.6410,0.21,-0.24,0.07
2020-08-13 11:54:19.7280,0.52,0.21,0.13
2020-08-13 11:54:19.8170,0.62,0.09,-0.04
2020-08-13 11:54:19.9190,0.18,-0.14,-0.03
2020-08-13 11:54:20.0150,0.07,-0.05,-0.01
2020-08-13 11:54:20.1160,0.17,-0.13,-0.02
2020-08-13 11:54:20.1760,0.25,-0.08,0.04
2020-08-13 11:54:20.2590,0.23,-0.07,0.01
2020-08-13 11:54:20.3470,0.21,-0.05,-0.0
2020-08-13 11:54:20.4510,0.06,-0.05,0.04
2020-08-13 11:54:20.5410,0.04,0.03,0.05
2020-08-13 11:54:20.6310,-0.09,0.04,-0.01
2020-08-13 11:54:20.7210,-0.09,0.01,-0.17
2020-08-13 11:54:20.8110,-0.21,-0.14,-0.16
2020-08-13 11:54:20.9110,0.11,-0.09,0.01
2020-08-13 11:54:21.0070,0.27,-0.05,0.02
2020-08-13 11:54:21.1060,0.26,0.01,0.0
2020-08-13 11:54:21.2140,0.24,-0.06,-0.05
2020-08-13 11:54:21.2770,0.26,-0.12,-0.05
2020-08-13 11:54:21.3570,0.24,-0.2,-0.05
2020-08-13 11:54:21.4460,0.32,-0.44,0.01
2020-08-13 11:54:21.5360,0.31,-0.45,0.01
2020-08-13 11:54:21.6240,0.3,-0.04,0.16
2020-08-13 11:54:21.7140,0.72,0.06,-0.11
2020-08-13 11:54:21.8040,0.44,-0.13,-0.08
2020-08-13 11:54:21.9010,0.15,-0.14,-0.01
2020-08-13 11:54:21.9980,0.17,-0.11,-0.05
2020-08-13 11:54:22.0960,0.19,-0.09,0.02
2020-08-13 11:54:22.1960,0.25,-0.11,0.05
2020-08-13 11:54:22.2660,0.13,-0.06,0.03
2020-08-13 11:54:22.3940,0.08,-0.03,0.08
2020-08-13 11:54:22.4500,0.17,-0.02,0.08
2020-08-13 11:54:22.5510,0.05,0.02,0.0
2020-08-13 11:54:22.6410,0.03,0.09,-0.07
2020-08-13 11:54:22.7240,-0.04,-0.19,0.27
2020-08-13 11:54:22.8220,0.47,-0.12,0.07
2020-08-13 11:54:22.9120,0.28,-0.05,-0.03
2020-08-13 11:54:23.0010,0.23,-0.04,0.02
2020-08-13 11:54:23.1020,0.23,-0.07,-0.04
2020-08-13 11:54:23.1970,0.24,-0.06,-0.02
2020-08-13 11:54:23.2870,0.19,-0.15,-0.01
2020-08-13 11:54:23.3850,0.29,-0.28,0.05
2020-08-13 11:54:23.4850,0.49,-0.72,0.12
2020-08-13 11:54:23.5570,0.2,-0.34,0.18
2020-08-13 11:54:23.6460,0.65,0.22,-0.02
2020-08-13 11:54:23.7270,0.46,0.02,-0.17
2020-08-13 11:54:23.8150,0.24,-0.11,0.07
2020-08-13 11:54:23.9050,0.12,-0.11,0.09
2020-08-13 11:54:23.9940,0.1,-0.15,0.02
2020-08-13 11:54:24.0850,0.17,-0.06,0.05
2020-08-13 11:54:24.1860,0.16,-0.1,0.05
2020-08-13 11:54:24.2770,0.13,-0.03,0.1
2020-08-13 11:54:24.3750,0.09,-0.02,0.02
2020-08-13 11:54:24.4750,0.03,0.01,-0.01
2020-08-13 11:54:24.5470,-0.02,0.02,-0.03
2020-08-13 11:54:24.6360,0.19,0.08,-0.03
2020-08-13 11:54:24.7260,-0.3,0.11,-0.28
2020-08-13 11:54:24.8160,-0.06,0.15,0.07
2020-08-13 11:54:24.9060,0.24,-0.02,0.0
2020-08-13 11:54:24.9960,0.23,-0.03,-0.02
2020-08-13 11:54:25.0860,0.19,0.0,-0.06
2020-08-13 11:54:25.1770,0.22,-0.05,-0.05
2020-08-13 11:54:25.2690,0.23,-0.15,-0.04
2020-08-13 11:54:25.3680,0.25,-0.35,-0.04
2020-08-13 11:54:25.4680,0.49,-0.65,0.02
2020-08-13 11:54:25.5660,0.14,-0.16,0.1
2020-08-13 11:54:25.6260,0.9,0.13,-0.08
2020-08-13 11:54:25.7160,0.41,0.07,-0.02
2020-08-13 11:54:25.8070,0.14,-0.02,0.05
2020-08-13 11:54:25.9120,0.16,-0.1,-0.01
2020-08-13 11:54:26.0020,0.21,-0.17,0.03
2020-08-13 11:54:26.0780,0.18,-0.09,0.03
2020-08-13 11:54:26.1820,0.07,-0.06,-0.02
2020-08-13 11:54:26.2730,0.04,-0.02,0.06
2020-08-13 11:54:26.3620,0.16,0.07,0.06
2020-08-13 11:54:26.4600,-0.09,0.04,0.04
2020-08-13 11:54:26.5660,-0.21,-0.0,-0.19
2020-08-13 11:54:26.6200,0.06,-0.25,-0.26
2020-08-13 11:54:26.7190,0.05,-0.04,0.04
2020-08-13 11:54:26.8020,0.2,-0.03,0.05
2020-08-13 11:54:26.8970,0.2,0.02,0.0
2020-08-13 11:54:26.9910,0.24,-0.02,0.0
2020-08-13 11:54:27.0830,0.26,-0.08,-0.03
2020-08-13 11:54:27.1760,0.21,-0.15,-0.02
2020-08-13 11:54:27.2650,0.45,-0.65,0.1
2020-08-13 11:54:27.3630,0.37,-0.41,0.08
2020-08-13 11:54:27.4500,0.15,0.1,0.13
2020-08-13 11:54:27.5490,0.55,0.01,-0.03
2020-08-13 11:54:27.6480,0.37,-0.07,0.0
2020-08-13 11:54:27.7580,0.1,-0.15,-0.01
2020-08-13 11:54:27.8170,0.0,-0.02,0.07
2020-08-13 11:54:27.9070,0.14,-0.11,-0.04
2020-08-13 11:54:27.9980,0.15,-0.07,0.01
2020-08-13 11:54:28.0860,0.09,-0.08,0.02
2020-08-13 11:54:28.1780,-0.01,-0.02,0.02
2020-08-13 11:54:28.2690,-0.02,0.04,0.01
2020-08-13 11:54:28.3560,-0.02,0.06,0.01
2020-08-13 11:54:28.4480,-0.12,0.01,-0.11
2020-08-13 11:54:28.5410,0.17,0.06,-0.08
2020-08-13 11:54:28.6390,0.21,-0.14,-0.04
2020-08-13 11:54:28.7410,0.31,-0.07,0.02
2020-08-13 11:54:28.8380,0.25,0.0,-0.01
2020-08-13 11:54:28.8970,0.18,-0.04,-0.01
2020-08-13 11:54:28.9870,0.22,-0.07,-0.01
2020-08-13 11:54:29.0770,0.23,-0.2,-0.06
2020-08-13 11:54:29.1680,0.33,-0.44,0.04
2020-08-13 11:54:29.2580,0.37,-0.34,0.06
2020-08-13 11:54:29.3470,0.41,-0.01,0.09
2020-08-13 11:54:29.4520,0.6,0.08,0.02
2020-08-13 11:54:29.5350,0.32,-0.12,-0.04
2020-08-13 11:54:29.6410,0.3,-0.09,0.03
2020-08-13 11:54:29.7330,0.22,-0.16,-0.04
2020-08-13 11:54:29.8300,0.05,-0.14,0.02
2020-08-13 11:54:29.9280,0.12,-0.15,0.04
2020-08-13 11:54:29.9900,0.06,-0.02,0.04
2020-08-13 11:54:30.0710,0.02,0.01,-0.02
2020-08-13 11:54:30.1690,-0.07,0.05,0.04
2020-08-13 11:54:30.2510,-0.05,0.08,-0.07
2020-08-13 11:54:30.3390,0.5,-0.34,0.27
2020-08-13 11:54:30.4380,0.48,0.06,0.05
2020-08-13 11:54:30.5240,0.33,-0.04,-0.08
2020-08-13 11:54:30.6220,0.26,-0.01,-0.01
2020-08-13 11:54:30.7210,0.28,0.02,-0.0
2020-08-13 11:54:30.8250,0.25,-0.06,-0.06
2020-08-13 11:54:30.9200,0.25,-0.11,-0.05
2020-08-13 11:54:30.9820,0.33,-0.25,-0.02
2020-08-13 11:54:31.1180,0.31,-0.46,-0.06
2020-08-13 11:54:31.1700,0.22,-0.35,0.11
2020-08-13 11:54:31.2540,0.34,-0.0,0.09
2020-08-13 11:54:31.3520,1.07,0.11,-0.12
2020-08-13 11:54:31.4490,0.52,-0.03,-0.12
2020-08-13 11:54:31.5240,0.12,-0.15,-0.01
2020-08-13 11:54:31.6290,0.17,-0.18,-0.0
2020-08-13 11:54:31.7150,0.23,-0.1,0.05
2020-08-13 11:54:31.8270,0.14,-0.13,0.06
2020-08-13 11:54:31.9130,0.08,-0.06,0.05
2020-08-13 11:54:31.9760,0.07,-0.01,0.03
2020-08-13 11:54:32.0740,-0.08,0.02,-0.01
2020-08-13 11:54:32.1570,-0.06,0.11,-0.08
2020-08-13 11:54:32.2450,0.27,-0.37,0.03
2020-08-13 11:54:32.3360,0.38,-0.01,0.01
2020-08-13 11:54:32.4320,0.33,-0.02,-0.03
2020-08-13 11:54:32.5280,0.29,-0.02,-0.02
2020-08-13 11:54:32.6100,0.23,-0.02,-0.0
2020-08-13 11:54:32.7090,0.38,-0.02,0.04
2020-08-13 11:54:32.8070,0.31,-0.14,-0.07
2020-08-13 11:54:32.9090,0.26,-0.2,-0.01
2020-08-13 11:54:32.9640,0.32,-0.54,0.01
2020-08-13 11:54:33.0560,0.2,-0.3,0.09
2020-08-13 11:54:33.1540,0.21,-0.01,0.13
2020-08-13 11:54:33.2380,0.74,0.05,-0.14
2020-08-13 11:54:33.3380,0.42,-0.18,-0.06
2020-08-13 11:54:33.4280,0.14,-0.17,0.02
2020-08-13 11:54:33.5180,0.13,-0.09,0.01
2020-08-13 11:54:33.6070,0.32,-0.1,-0.07
2020-08-13 11:54:33.6980,0.19,-0.06,0.04
2020-08-13 11:54:33.7960,0.16,-0.09,0.06
2020-08-13 11:54:33.9000,0.08,-0.08,0.02
2020-08-13 11:54:33.9950,0.27,-0.0,-0.02
2020-08-13 11:54:34.1040,0.06,0.03,0.03
2020-08-13 11:54:34.1640,-0.06,0.05,-0.02
2020-08-13 11:54:34.2540,-0.15,0.05,-0.29
2020-08-13 11:54:34.3440,-0.02,0.1,-0.09
2020-08-13 11:54:34.4340,0.14,-0.11,-0.01
2020-08-13 11:54:34.5160,0.26,-0.05,-0.03
2020-08-13 11:54:34.6150,0.23,-0.0,-0.03
2020-08-13 11:54:34.6940,0.25,-0.05,-0.04
2020-08-13 11:54:34.7890,0.31,-0.12,-0.07
2020-08-13 11:54:34.8900,0.24,-0.23,0.06
2020-08-13 11:54:34.9870,0.32,-0.56,-0.06
2020-08-13 11:54:35.0870,0.39,-0.57,0.02
2020-08-13 11:54:35.1480,0.45,0.04,-0.04
2020-08-13 11:54:35.2380,0.65,0.09,-0.07
2020-08-13 11:54:35.3290,0.34,-0.15,-0.04
2020-08-13 11:54:35.4240,0.14,-0.24,0.02
2020-08-13 11:54:35.5130,0.15,-0.07,-0.02
2020-08-13 11:54:35.6040,0.22,-0.06,-0.05
2020-08-13 11:54:35.6940,0.2,-0.1,-0.02
2020-08-13 11:54:35.7940,0.08,-0.07,0.11
2020-08-13 11:54:35.8890,0.13,-0.05,0.03
2020-08-13 11:54:35.9780,0.06,0.01,0.02
2020-08-13 11:54:36.0780,-0.09,0.07,-0.06
2020-08-13 11:54:36.1770,0.72,-0.12,0.24
2020-08-13 11:54:36.2770,0.56,0.05,0.04
2020-08-13 11:54:36.3380,0.35,-0.02,-0.03
2020-08-13 11:54:36.4160,0.31,-0.03,-0.01
2020-08-13 11:54:36.5180,0.26,-0.02,-0.01
2020-08-13 11:54:36.6180,0.26,-0.06,-0.04
2020-08-13 11:54:36.7060,0.24,-0.17,-0.01
2020-08-13 11:54:36.8040,0.28,-0.33,-0.04
2020-08-13 11:54:36.8940,0.45,-0.78,0.05
2020-08-13 11:54:36.9710,0.29,-0.28,0.05
2020-08-13 11:54:37.0720,0.83,0.15,-0.08
2020-08-13 11:54:37.1730,0.4,0.05,-0.05
2020-08-13 11:54:37.2700,0.19,-0.09,0.05
2020-08-13 11:54:37.3290,0.22,-0.11,0.03
2020-08-13 11:54:37.4190,0.18,-0.07,0.08
2020-08-13 11:54:37.5170,0.28,-0.12,0.05
2020-08-13 11:54:37.6080,0.36,-0.11,0.03
2020-08-13 11:54:37.6980,0.27,-0.1,0.09
2020-08-13 11:54:37.7950,0.17,-0.09,0.02
2020-08-13 11:54:37.8760,0.05,-0.04,-0.01
2020-08-13 11:54:37.9750,0.04,0.0,0.02
2020-08-13 11:54:38.0730,-0.02,0.07,-0.02
2020-08-13 11:54:38.1600,-0.42,0.1,0.28
2020-08-13 11:54:38.2590,0.55,0.09,-0.16
2020-08-13 11:54:38.3580,0.29,-0.02,-0.03
2020-08-13 11:54:38.4130,0.27,-0.02,-0.02
2020-08-13 11:54:38.5030,0.23,0.02,-0.01
2020-08-13 11:54:38.6010,0.26,-0.07,-0.01
2020-08-13 11:54:38.6940,0.29,-0.2,-0.07
2020-08-13 11:54:38.7850,0.33,-0.46,0.03
2020-08-13 11:54:38.8670,0.26,-0.31,0.05
2020-08-13 11:54:38.9660,0.25,-0.04,0.19
2020-08-13 11:54:39.0640,0.73,0.06,-0.05
2020-08-13 11:54:39.1520,0.34,-0.07,-0.14
2020-08-13 11:54:39.2600,0.07,-0.12,-0.02
2020-08-13 11:54:39.3490,0.14,-0.08,-0.02
2020-08-13 11:54:39.4110,0.18,-0.05,0.09
2020-08-13 11:54:39.4930,0.23,-0.08,0.03
2020-08-13 11:54:39.5900,0.3,-0.07,0.1
2020-08-13 11:54:39.6740,0.31,-0.05,0.14
2020-08-13 11:54:39.7640,0.19,-0.06,0.13
2020-08-13 11:54:39.8650,-0.07,-0.01,0.02
2020-08-13 11:54:39.9540,-0.27,0.06,-0.01
2020-08-13 11:54:40.0460,0.56,-0.66,-0.33
2020-08-13 11:54:40.1450,0.05,-0.09,0.12
2020-08-13 11:54:40.2430,0.22,-0.05,0.03
2020-08-13 11:54:40.3410,0.19,-0.03,0.02
2020-08-13 11:54:40.3930,0.18,-0.07,0.02
2020-08-13 11:54:40.4870,0.24,-0.15,-0.01
2020-08-13 11:54:40.5810,0.27,-0.24,0.08
2020-08-13 11:54:40.6630,0.49,-0.58,0.24
2020-08-13 11:54:40.7550,0.19,-0.0,0.04
2020-08-13 11:54:40.8500,0.45,0.15,0.03
2020-08-13 11:54:40.9360,0.1,-0.01,-0.03
2020-08-13 11:54:41.0440,0.07,-0.01,-0.04
2020-08-13 11:54:41.1370,0.14,-0.02,-0.02
2020-08-13 11:54:41.2360,0.25,-0.02,0.04
2020-08-13 11:54:41.3350,0.23,-0.04,0.0
2020-08-13 11:54:41.3950,0.1,-0.08,0.06
2020-08-13 11:54:41.4850,0.07,-0.07,0.1
2020-08-13 11:54:41.5750,0.06,-0.0,0.03
2020-08-13 11:54:41.6650,0.09,0.0,0.05
2020-08-13 11:54:41.7550,-0.08,0.0,0.11
2020-08-13 11:54:41.8440,-0.15,0.14,-0.02
2020-08-13 11:54:41.9350,0.21,-0.55,0.17
2020-08-13 11:54:42.0270,0.24,-0.06,0.09
2020-08-13 11:54:42.1270,0.26,-0.01,-0.0
2020-08-13 11:54:42.2360,0.16,0.04,0.08
2020-08-13 11:54:42.3260,0.14,-0.0,-0.02
2020-08-13 11:54:42.3840,0.17,-0.07,-0.04
2020-08-13 11:54:42.4750,0.23,-0.15,-0.03
2020-08-13 11:54:42.5740,0.22,-0.31,0.06
2020-08-13 11:54:42.6580,0.41,-0.32,-0.03
2020-08-13 11:54:42.7480,0.21,0.03,0.09
2020-08-13 11:54:42.8510,1.31,0.15,-0.01
2020-08-13 11:54:42.9400,0.45,0.03,-0.02
2020-08-13 11:54:43.0310,0.21,-0.08,0.05
2020-08-13 11:54:43.1200,0.28,-0.03,0.02
2020-08-13 11:54:43.2210,0.27,-0.03,-0.04
2020-08-13 11:54:43.3180,0.08,-0.16,-0.01
2020-08-13 11:54:43.4150,0.01,-0.06,0.14
2020-08-13 11:54:43.5160,0.08,-0.08,-0.04
2020-08-13 11:54:43.5860,-0.02,-0.06,0.04
2020-08-13 11:54:43.6670,-0.14,0.07,0.08
2020-08-13 11:54:43.7570,-0.33,0.11,-0.17
2020-08-13 11:54:43.8540,-0.11,-0.1,-0.26
2020-08-13 11:54:43.9360,0.08,-0.0,0.04
2020-08-13 11:54:44.0240,0.13,0.0,-0.03
2020-08-13 11:54:44.1140,0.11,0.01,-0.01
2020-08-13 11:54:44.2110,0.17,-0.01,0.03
2020-08-13 11:54:44.3090,0.14,-0.1,-0.06
2020-08-13 11:54:44.4070,0.18,-0.19,0.08
2020-08-13 11:54:44.5060,0.3,-0.5,0.04
2020-08-13 11:54:44.5680,0.17,-0.33,0.13
2020-08-13 11:54:44.6660,0.33,0.2,0.1
2020-08-13 11:54:44.7550,0.42,0.1,-0.06
2020-08-13 11:54:44.8370,0.28,-0.03,-0.03
2020-08-13 11:54:44.9270,0.09,-0.01,0.06
2020-08-13 11:54:45.0160,0.1,-0.04,-0.01
2020-08-13 11:54:45.1160,0.17,0.01,0.0
2020-08-13 11:54:45.2050,0.18,-0.1,0.04
2020-08-13 11:54:45.3010,0.09,-0.11,0.09
2020-08-13 11:54:45.3990,0.08,-0.02,0.06
2020-08-13 11:54:45.5010,0.05,0.05,0.07
2020-08-13 11:54:45.5970,-0.16,-0.0,0.12
2020-08-13 11:54:45.6550,-0.28,0.06,-0.05
2020-08-13 11:54:45.7460,0.04,0.0,-0.01
2020-08-13 11:54:45.8350,0.29,0.11,0.02
2020-08-13 11:54:45.9260,0.18,-0.04,-0.07
2020-08-13 11:54:46.0160,0.22,-0.03,-0.02
2020-08-13 11:54:46.1080,0.15,0.04,-0.01
2020-08-13 11:54:46.2110,0.18,-0.04,-0.03
2020-08-13 11:54:46.2930,0.17,-0.1,-0.06
2020-08-13 11:54:46.3910,0.18,-0.29,0.05
2020-08-13 11:54:46.4920,0.5,-0.43,0.12
2020-08-13 11:54:46.5890,0.15,-0.03,0.15
2020-08-13 11:54:46.6870,0.7,0.26,-0.06
2020-08-13 11:54:46.7930,0.22,-0.03,-0.06
2020-08-13 11:54:46.8870,-0.01,-0.07,-0.0
2020-08-13 11:54:46.9460,0.09,-0.05,-0.06
2020-08-13 11:54:47.0280,0.15,-0.0,0.04
2020-08-13 11:54:47.1180,0.18,-0.05,0.02
2020-08-13 11:54:47.2160,0.1,-0.01,0.03
2020-08-13 11:54:47.2950,0.03,-0.06,0.04
2020-08-13 11:54:47.3930,-0.04,0.0,0.02
2020-08-13 11:54:47.4810,-0.21,0.04,0.02
2020-08-13 11:54:47.5810,-0.02,0.12,-0.0
2020-08-13 11:54:47.6800,0.24,-0.47,0.1
2020-08-13 11:54:47.7820,0.45,-0.07,0.04
2020-08-13 11:54:47.8770,0.21,-0.06,0.0
2020-08-13 11:54:47.9360,0.17,-0.02,0.01
2020-08-13 11:54:48.0250,0.17,-0.03,-0.01
2020-08-13 11:54:48.1160,0.27,-0.04,-0.02
2020-08-13 11:54:48.2060,0.25,-0.14,-0.01
2020-08-13 11:54:48.2970,0.25,-0.3,-0.02
2020-08-13 11:54:48.3870,0.45,-0.65,0.15
2020-08-13 11:54:48.4760,0.13,-0.21,0.16
2020-08-13 11:54:48.5740,0.84,0.31,-0.25
2020-08-13 11:54:48.6710,0.12,-0.16,-0.04
2020-08-13 11:54:48.7720,-0.03,-0.05,-0.01
2020-08-13 11:54:48.8700,0.21,-0.09,-0.06
2020-08-13 11:54:48.9680,0.34,-0.07,0.03
2020-08-13 11:54:49.0290,0.22,-0.06,0.02
2020-08-13 11:54:49.1180,0.09,-0.09,0.06
2020-08-13 11:54:49.2070,0.17,-0.05,0.1
2020-08-13 11:54:49.2970,-0.04,-0.05,0.07
2020-08-13 11:54:49.3810,0.04,0.02,-0.03
2020-08-13 11:54:49.4780,-0.18,0.11,-0.09
2020-08-13 11:54:49.5640,0.09,-0.61,0.39
2020-08-13 11:54:49.6730,0.32,-0.02,0.13
2020-08-13 11:54:49.7620,0.21,-0.04,-0.01
2020-08-13 11:54:49.8610,0.16,-0.01,0.02
2020-08-13 11:54:49.9600,0.19,-0.01,-0.01
2020-08-13 11:54:50.0200,0.23,-0.03,0.0
2020-08-13 11:54:50.1090,0.11,-0.06,-0.02
2020-08-13 11:54:50.1860,0.26,-0.19,-0.0
2020-08-13 11:54:50.2880,0.28,-0.58,0.02
2020-08-13 11:54:50.3720,0.5,-0.37,0.04
2020-08-13 11:54:50.4680,0.07,0.15,-0.04
2020-08-13 11:54:50.5610,0.53,0.06,-0.03
2020-08-13 11:54:50.6630,0.41,-0.07,0.04
2020-08-13 11:54:50.7540,0.18,-0.06,0.0
2020-08-13 11:54:50.8520,0.21,-0.08,-0.05
2020-08-13 11:54:50.9510,0.17,-0.02,0.08
2020-08-13 11:54:51.0120,0.14,-0.08,0.07
2020-08-13 11:54:51.1010,0.15,-0.15,0.1
2020-08-13 11:54:51.2070,0.08,-0.04,0.03
2020-08-13 11:54:51.2910,0.05,0.06,-0.02
2020-08-13 11:54:51.3760,-0.11,0.06,-0.0
2020-08-13 11:54:51.4690,-0.62,0.07,-0.2
2020-08-13 11:54:51.5590,0.08,0.28,0.01
2020-08-13 11:54:51.6570,0.12,-0.01,-0.0
2020-08-13 11:54:51.7430,0.16,-0.04,-0.05
2020-08-13 11:54:51.8440,0.18,-0.01,-0.02
2020-08-13 11:54:51.9430,0.21,-0.07,-0.03
2020-08-13 11:54:52.0420,0.24,-0.14,-0.04
2020-08-13 11:54:52.0960,0.23,-0.2,-0.01
2020-08-13 11:54:52.1840,0.36,-0.79,0.13
2020-08-13 11:54:52.2740,0.42,-0.43,0.09
2020-08-13 11:54:52.3700,1.01,0.23,-0.21
2020-08-13 11:54:52.4670,0.38,0.1,-0.09
2020-08-13 11:54:52.5500,0.03,-0.11,0.01
2020-08-13 11:54:52.6480,0.02,-0.06,0.07
2020-08-13 11:54:52.7510,0.06,-0.03,0.04
2020-08-13 11:54:52.8420,0.03,-0.1,0.03
2020-08-13 11:54:52.9340,-0.04,-0.02,0.02
2020-08-13 11:54:53.0330,-0.07,0.03,-0.07
2020-08-13 11:54:53.1320,-0.22,0.24,0.2
2020-08-13 11:54:53.2310,0.19,0.01,-0.37
2020-08-13 11:54:53.2910,0.17,0.07,0.07
2020-08-13 11:54:53.3810,0.14,-0.04,0.01
2020-08-13 11:54:53.4700,0.15,-0.05,-0.03
2020-08-13 11:54:53.5590,0.13,-0.04,-0.06
2020-08-13 11:54:53.6410,0.19,-0.06,0.0
2020-08-13 11:54:53.7390,0.11,-0.01,-0.02
2020-08-13 11:54:53.8290,0.23,-0.11,-0.07
2020-08-13 11:54:53.9320,0.17,-0.01,-0.03
2020-08-13 11:54:54.0260,0.13,0.05,-0.01
2020-08-13 11:54:54.1240,0.12,-0.02,-0.04
2020-08-13 11:54:54.2230,0.1,-0.02,-0.02
2020-08-13 11:54:54.3150,0.03,0.03,-0.01
2020-08-13 11:54:54.3720,0.07,-0.0,-0.01
2020-08-13 11:54:54.4630,0.05,-0.0,-0.02
2020-08-13 11:54:54.5530,0.02,0.02,-0.01
2020-08-13 11:54:54.6440,0.02,0.03,-0.0
2020-08-13 11:54:54.7360,0.03,0.01,-0.01
2020-08-13 11:54:54.8380,0.0,0.01,-0.03
2020-08-13 11:54:54.9210,0.0,-0.01,-0.02
2020-08-13 11:54:55.0170,0.03,0.02,0.03
2020-08-13 11:54:55.1230,0.01,0.01,-0.02
2020-08-13 11:54:55.2070,0.01,0.05,0.03
2020-08-13 11:54:55.3060,0.03,0.01,0.01
2020-08-13 11:54:55.3630,0.02,0.03,0.01
2020-08-13 11:54:55.4550,-0.01,0.04,-0.04
2020-08-13 11:54:55.5450,0.09,0.01,-0.0
2020-08-13 11:54:55.6350,0.02,0.03,-0.03
2020-08-13 11:54:55.7250,0.34,-0.16,0.07
2020-08-13 11:54:55.8150,0.03,-0.02,-0.02
2020-08-13 11:54:55.9040,0.11,0.03,-0.05
2020-08-13 11:54:56.0080,-0.04,0.07,-0.02
2020-08-13 11:54:56.0990,0.12,-0.09,0.01
2020-08-13 11:54:56.1980,0.03,0.02,-0.0
2020-08-13 11:54:56.3000,0.05,0.03,0.0
2020-08-13 11:54:56.3540,0.05,0.01,-0.01
2020-08-13 11:54:56.4580,0.04,0.03,0.02
2020-08-13 11:54:56.5330,0.13,-0.02,-0.01
2020-08-13 11:54:56.6260,-0.13,0.03,-0.01
