time,ax,ay,az
2020-08-12 19:56:12.4270,-0.0,0.01,0.01
2020-08-12 19:56:12.5260,-0.02,0.01,0.01
2020-08-12 19:56:12.6260,0.0,0.0,0.01
2020-08-12 19:56:12.7250,-0.02,-0.01,-0.01
2020-08-12 19:56:12.8240,-0.02,0.01,-0.0
2020-08-12 19:56:12.9240,0.06,0.01,-0.04
2020-08-12 19:56:13.0220,0.02,0.01,0.0
2020-08-12 19:56:13.1210,0.02,0.02,0.0
2020-08-12 19:56:13.2210,-0.04,0.03,-0.01
2020-08-12 19:56:13.3200,0.01,-0.0,0.03
2020-08-12 19:56:13.4200,0.04,-0.01,-0.02
2020-08-12 19:56:13.5190,-0.05,0.02,0.01
2020-08-12 19:56:13.6190,-0.02,-0.04,0.04
2020-08-12 19:56:13.7170,-0.01,-0.02,0.02
2020-08-12 19:56:13.8160,-0.02,-0.03,0.03
2020-08-12 19:56:13.9160,-0.05,-0.06,0.03
2020-08-12 19:56:14.0150,-0.25,-0.11,0.04
2020-08-12 19:56:14.1150,-0.2,-0.16,0.48
2020-08-12 19:56:14.2130,-0.87,0.24,0.04
2020-08-12 19:56:14.3130,-0.33,-0.1,-0.2
2020-08-12 19:56:14.4110,-0.01,-0.25,-0.05
2020-08-12 19:56:14.5110,0.52,0.06,0.1
2020-08-12 19:56:14.6100,0.61,0.11,0.07
2020-08-12 19:56:14.7090,0.47,-0.21,-0.15
2020-08-12 19:56:14.8090,0.94,-0.31,-0.1
2020-08-12 19:56:14.9080,-0.16,0.09,-0.13
2020-08-12 19:56:15.0070,-0.04,-0.04,0.08
2020-08-12 19:56:15.1070,0.07,-0.03,-0.06
2020-08-12 19:56:15.2050,0.03,0.0,0.08
2020-08-12 19:56:15.3050,-0.04,0.01,0.02
2020-08-12 19:56:15.4040,-0.04,0.02,0.03
2020-08-12 19:56:15.5030,0.06,-0.0,-0.02
2020-08-12 19:56:15.6030,0.01,-0.0,-0.01
2020-08-12 19:56:15.7020,0.01,-0.02,-0.02
2020-08-12 19:56:15.8010,0.01,-0.0,0.01
2020-08-12 19:56:15.9010,-0.43,-0.1,0.11
2020-08-12 19:56:15.9990,-0.32,-0.42,0.3
2020-08-12 19:56:16.0990,-0.86,0.43,-0.07
2020-08-12 19:56:16.1990,-0.27,-0.22,-0.06
2020-08-12 19:56:16.2980,0.29,-0.32,0.01
2020-08-12 19:56:16.3970,0.55,-0.09,0.13
2020-08-12 19:56:16.4960,0.64,0.11,0.13
2020-08-12 19:56:16.5950,0.07,-0.28,-0.24
2020-08-12 19:56:16.6950,1.09,-0.42,-0.37
2020-08-12 19:56:16.7940,-0.06,0.09,-0.05
2020-08-12 19:56:16.8930,0.07,0.0,0.02
2020-08-12 19:56:16.9920,0.08,-0.09,-0.06
2020-08-12 19:56:17.0920,-0.0,-0.02,0.01
2020-08-12 19:56:17.1900,0.01,0.01,0.06
2020-08-12 19:56:17.2900,-0.04,0.03,0.05
2020-08-12 19:56:17.3900,-0.06,0.03,-0.0
2020-08-12 19:56:17.4890,-0.04,0.02,0.01
2020-08-12 19:56:17.5880,-0.02,0.02,0.0
2020-08-12 19:56:17.6870,0.02,0.02,-0.02
2020-08-12 19:56:17.7870,-0.04,-0.02,-0.04
2020-08-12 19:56:17.8860,-0.5,-0.53,0.22
2020-08-12 19:56:17.9850,-0.66,-0.25,0.52
2020-08-12 19:56:18.0840,-0.96,0.21,-0.21
2020-08-12 19:56:18.1830,-0.13,-0.45,-0.15
2020-08-12 19:56:18.2830,0.64,-0.37,0.13
2020-08-12 19:56:18.3820,0.99,0.02,0.18
2020-08-12 19:56:18.4810,-0.15,-0.58,-0.3
2020-08-12 19:56:18.5800,1.26,-0.56,-0.16
2020-08-12 19:56:18.6800,0.06,0.1,-0.19
2020-08-12 19:56:18.7790,-0.01,0.03,0.07
2020-08-12 19:56:18.8780,0.04,-0.02,-0.05
2020-08-12 19:56:18.9780,0.05,0.01,-0.03
2020-08-12 19:56:19.0770,0.01,-0.0,0.03
2020-08-12 19:56:19.1750,0.02,0.0,0.03
2020-08-12 19:56:19.2750,-0.01,0.04,0.04
2020-08-12 19:56:19.3740,-0.01,0.01,-0.01
2020-08-12 19:56:19.4740,-0.04,-0.0,0.02
2020-08-12 19:56:19.5730,-0.02,0.01,0.02
2020-08-12 19:56:19.6710,-0.01,0.02,-0.0
2020-08-12 19:56:19.7720,-0.26,-0.13,0.12
2020-08-12 19:56:19.8710,-0.61,-0.64,0.06
2020-08-12 19:56:19.9700,-1.03,0.3,-0.08
2020-08-12 19:56:20.0690,-0.52,-0.09,-0.05
2020-08-12 19:56:20.1680,0.23,-0.37,0.02
2020-08-12 19:56:20.2670,0.79,0.04,0.24
2020-08-12 19:56:20.3670,0.93,0.12,0.24
2020-08-12 19:56:20.4660,-0.62,-1.16,0.32
2020-08-12 19:56:20.5650,0.0,-0.07,0.34
2020-08-12 19:56:20.6650,0.01,0.02,0.01
2020-08-12 19:56:20.7640,-0.01,-0.02,0.01
2020-08-12 19:56:20.8630,0.01,0.02,-0.02
2020-08-12 19:56:20.9620,0.04,0.01,0.03
2020-08-12 19:56:21.0620,-0.06,0.01,-0.0
2020-08-12 19:56:21.1610,0.0,0.01,-0.02
2020-08-12 19:56:21.2590,-0.02,0.0,0.0
2020-08-12 19:56:21.3590,-0.03,0.01,0.03
2020-08-12 19:56:21.4590,-0.01,0.01,0.03
2020-08-12 19:56:21.5580,0.02,0.01,0.0
2020-08-12 19:56:21.6570,0.07,-0.05,-0.02
2020-08-12 19:56:21.7570,-0.5,-0.44,0.1
2020-08-12 19:56:21.8560,-0.46,-0.17,0.54
2020-08-12 19:56:21.9550,-0.81,0.33,-0.09
2020-08-12 19:56:22.0540,-0.18,-0.32,-0.14
2020-08-12 19:56:22.1540,0.44,-0.31,0.05
2020-08-12 19:56:22.2530,0.69,0.01,0.17
2020-08-12 19:56:22.3520,0.85,-0.01,0.23
2020-08-12 19:56:22.4510,0.59,-0.2,-0.21
2020-08-12 19:56:22.5500,-0.12,0.11,0.1
2020-08-12 19:56:22.6500,-0.03,-0.02,0.05
2020-08-12 19:56:22.7490,0.0,0.01,0.0
2020-08-12 19:56:22.8480,-0.02,0.03,0.04
2020-08-12 19:56:22.9470,0.04,-0.03,-0.04
2020-08-12 19:56:23.0470,-0.01,-0.0,0.02
2020-08-12 19:56:23.1460,0.02,-0.0,0.01
2020-08-12 19:56:23.2450,-0.02,0.01,0.02
2020-08-12 19:56:23.3450,-0.0,0.01,0.01
2020-08-12 19:56:23.4440,0.01,0.02,0.02
2020-08-12 19:56:23.5430,0.03,0.01,-0.03
2020-08-12 19:56:23.6420,-0.07,-0.09,0.02
2020-08-12 19:56:23.7410,-0.39,-0.51,-0.01
2020-08-12 19:56:23.8410,-0.17,-0.21,0.32
2020-08-12 19:56:23.9400,-0.73,0.12,-0.07
2020-08-12 19:56:24.0390,0.1,-0.49,-0.08
2020-08-12 19:56:24.1390,0.68,-0.28,0.11
2020-08-12 19:56:24.2380,1.05,0.05,0.05
2020-08-12 19:56:24.3370,-0.95,-0.22,-0.45
2020-08-12 19:56:24.4360,0.76,0.06,0.09
2020-08-12 19:56:24.5350,0.11,-0.04,-0.13
2020-08-12 19:56:24.6350,0.09,-0.02,0.04
2020-08-12 19:56:24.7340,-0.05,0.03,-0.01
2020-08-12 19:56:24.8330,-0.01,0.0,0.04
2020-08-12 19:56:24.9330,0.02,0.04,0.08
2020-08-12 19:56:25.0320,-0.09,-0.02,0.02
2020-08-12 19:56:25.1320,-0.09,0.01,-0.0
2020-08-12 19:56:25.2300,0.01,-0.0,-0.01
2020-08-12 19:56:25.3290,-0.02,-0.0,-0.0
2020-08-12 19:56:25.4290,-0.04,0.02,0.01
2020-08-12 19:56:25.5280,-0.16,-0.04,0.04
2020-08-12 19:56:25.6270,-0.57,-0.58,-0.02
2020-08-12 19:56:25.7270,-0.82,-0.04,0.13
2020-08-12 19:56:25.8260,-0.68,0.23,-0.13
2020-08-12 19:56:25.9250,-0.05,-0.42,-0.1
2020-08-12 19:56:26.0240,0.66,-0.24,0.14
2020-08-12 19:56:26.1240,0.77,0.04,0.13
2020-08-12 19:56:26.2230,-0.42,-0.6,-0.19
2020-08-12 19:56:26.3220,0.67,-0.23,0.26
2020-08-12 19:56:26.4210,-0.19,0.05,-0.08
2020-08-12 19:56:26.5210,-0.08,0.03,0.06
2020-08-12 19:56:26.6200,-0.06,0.02,0.01
2020-08-12 19:56:26.7190,0.01,-0.01,-0.02
2020-08-12 19:56:26.8180,-0.01,0.02,0.02
2020-08-12 19:56:26.9170,0.02,0.01,0.02
2020-08-12 19:56:27.0170,-0.0,0.0,0.01
2020-08-12 19:56:27.1160,-0.01,0.01,0.01
2020-08-12 19:56:27.2150,0.02,-0.01,0.0
2020-08-12 19:56:27.3150,-0.04,0.01,0.01
2020-08-12 19:56:27.4140,-0.04,-0.02,0.01
2020-08-12 19:56:27.5130,-0.23,-0.62,-0.04
2020-08-12 19:56:27.6120,-0.5,-0.08,0.36
2020-08-12 19:56:27.7110,-1.16,0.36,-0.06
2020-08-12 19:56:27.8110,-0.37,-0.3,-0.13
2020-08-12 19:56:27.9100,0.43,-0.49,0.17
2020-08-12 19:56:28.0090,1.55,0.0,0.17
2020-08-12 19:56:28.1090,-0.62,-0.49,-0.73
2020-08-12 19:56:28.2080,0.65,-0.22,0.02
2020-08-12 19:56:28.3070,-0.01,0.03,-0.03
2020-08-12 19:56:28.4070,-0.1,-0.02,0.05
2020-08-12 19:56:28.5050,-0.05,0.01,-0.01
2020-08-12 19:56:28.6040,-0.02,0.0,-0.01
2020-08-12 19:56:28.7030,0.03,0.0,0.02
2020-08-12 19:56:28.8020,0.01,0.03,0.0
2020-08-12 19:56:28.9020,0.05,-0.02,-0.02
2020-08-12 19:56:29.0020,0.01,0.0,-0.0
2020-08-12 19:56:29.1010,-0.03,0.0,0.01
2020-08-12 19:56:29.2000,-0.01,0.0,-0.0
2020-08-12 19:56:29.3000,-0.05,-0.01,0.01
2020-08-12 19:56:29.3990,-0.17,-0.16,-0.05
2020-08-12 19:56:29.4980,-0.96,-0.53,0.15
2020-08-12 19:56:29.5970,-1.23,0.48,-0.01
2020-08-12 19:56:29.6970,-0.61,-0.07,-0.13
2020-08-12 19:56:29.7960,0.35,-0.49,-0.05
2020-08-12 19:56:29.8950,0.91,-0.15,0.19
2020-08-12 19:56:29.9930,1.0,0.07,0.25
2020-08-12 19:56:30.0930,-0.29,-0.87,0.0
2020-08-12 19:56:30.1920,-0.02,0.13,0.21
2020-08-12 19:56:30.2910,0.07,-0.03,-0.03
2020-08-12 19:56:30.3900,0.02,-0.02,0.0
2020-08-12 19:56:30.4900,0.01,-0.01,-0.08
2020-08-12 19:56:30.5890,0.02,-0.01,0.05
2020-08-12 19:56:30.6880,0.01,0.02,-0.0
2020-08-12 19:56:30.7870,0.02,-0.01,-0.02
2020-08-12 19:56:30.8870,0.0,0.01,0.02
2020-08-12 19:56:30.9860,0.01,-0.0,0.0
2020-08-12 19:56:31.0850,-0.01,0.0,0.02
2020-08-12 19:56:31.1850,-0.02,0.01,0.01
2020-08-12 19:56:31.2840,-0.06,-0.02,0.01
2020-08-12 19:56:31.3840,-0.36,-0.35,0.03
2020-08-12 19:56:31.4830,-0.46,-0.28,0.33
2020-08-12 19:56:31.5820,-0.9,0.35,-0.1
2020-08-12 19:56:31.6810,-0.19,-0.34,-0.21
2020-08-12 19:56:31.7800,0.39,-0.33,-0.05
2020-08-12 19:56:31.8790,0.77,-0.06,0.21
2020-08-12 19:56:31.9790,0.89,-0.03,0.33
2020-08-12 19:56:32.0780,0.27,-0.12,-0.12
2020-08-12 19:56:32.1770,0.11,-0.07,0.04
2020-08-12 19:56:32.2760,-0.02,0.01,0.09
2020-08-12 19:56:32.3760,0.11,-0.02,-0.06
2020-08-12 19:56:32.4760,0.06,-0.01,-0.01
2020-08-12 19:56:32.5740,0.0,-0.03,0.01
2020-08-12 19:56:32.6730,-0.03,0.01,0.04
2020-08-12 19:56:32.7730,-0.03,0.01,0.04
2020-08-12 19:56:32.8720,0.0,-0.0,0.0
2020-08-12 19:56:32.9720,-0.03,0.01,-0.0
2020-08-12 19:56:33.0700,-0.04,-0.0,0.01
2020-08-12 19:56:33.1700,-0.03,-0.01,0.02
2020-08-12 19:56:33.2690,-0.07,-0.02,0.01
2020-08-12 19:56:33.3680,-0.3,-0.38,-0.02
2020-08-12 19:56:33.4670,-0.55,-0.25,0.3
2020-08-12 19:56:33.5670,-1.24,0.44,0.12
2020-08-12 19:56:33.6660,-0.4,-0.28,-0.14
2020-08-12 19:56:33.7650,0.36,-0.43,0.01
2020-08-12 19:56:33.8640,0.95,-0.03,0.18
2020-08-12 19:56:33.9640,1.02,-0.09,0.11
2020-08-12 19:56:34.0630,0.64,-0.14,-0.13
2020-08-12 19:56:34.1620,0.02,0.02,0.01
2020-08-12 19:56:34.2610,0.07,-0.02,-0.02
2020-08-12 19:56:34.3610,0.01,0.02,0.01
2020-08-12 19:56:34.4600,-0.0,0.03,0.04
2020-08-12 19:56:34.5590,0.03,-0.0,-0.02
2020-08-12 19:56:34.6580,-0.06,0.0,0.06
2020-08-12 19:56:34.7590,0.0,-0.02,-0.01
2020-08-12 19:56:34.8580,0.01,0.0,-0.0
2020-08-12 19:56:34.9560,-0.01,-0.01,0.0
2020-08-12 19:56:35.0550,-0.01,0.02,0.0
2020-08-12 19:56:35.1550,-0.05,-0.0,0.01
2020-08-12 19:56:35.2540,-0.24,-0.47,0.02
2020-08-12 19:56:35.3530,-0.43,-0.19,0.21
2020-08-12 19:56:35.4520,-1.08,0.36,0.1
2020-08-12 19:56:35.5520,-0.3,-0.21,-0.15
2020-08-12 19:56:35.6510,0.24,-0.28,-0.04
2020-08-12 19:56:35.7500,0.49,-0.1,0.11
2020-08-12 19:56:35.8490,0.68,0.04,0.19
2020-08-12 19:56:35.9490,0.77,-0.12,-0.1
2020-08-12 19:56:36.0480,0.76,0.03,-0.22
2020-08-12 19:56:36.1470,0.13,-0.01,-0.21
2020-08-12 19:56:36.2460,0.05,0.03,0.03
2020-08-12 19:56:36.3460,0.03,-0.05,-0.0
2020-08-12 19:56:36.4450,0.0,-0.0,-0.02
2020-08-12 19:56:36.5450,0.0,0.01,0.03
2020-08-12 19:56:36.6430,-0.01,-0.0,0.01
2020-08-12 19:56:36.7430,-0.14,0.08,0.1
2020-08-12 19:56:36.8420,-0.07,0.01,-0.04
2020-08-12 19:56:36.9410,-0.03,0.01,-0.01
2020-08-12 19:56:37.0410,-0.01,0.0,-0.0
2020-08-12 19:56:37.1400,-0.0,-0.02,0.01
2020-08-12 19:56:37.2390,-0.38,-0.15,0.11
2020-08-12 19:56:37.3390,-0.5,-0.55,0.37
2020-08-12 19:56:37.4370,-1.11,0.2,-0.18
2020-08-12 19:56:37.5370,-0.2,-0.24,-0.27
2020-08-12 19:56:37.6370,0.33,-0.24,-0.02
2020-08-12 19:56:37.7350,0.71,-0.05,0.18
2020-08-12 19:56:37.8350,0.73,0.08,0.42
2020-08-12 19:56:37.9340,-0.41,-0.98,0.21
2020-08-12 19:56:38.0330,0.23,-0.09,0.21
2020-08-12 19:56:38.1320,-0.02,0.01,0.01
2020-08-12 19:56:38.2310,-0.02,0.0,-0.02
2020-08-12 19:56:38.3310,0.04,0.02,0.08
2020-08-12 19:56:38.4300,-0.01,-0.04,0.01
2020-08-12 19:56:38.5290,-0.21,-0.03,-0.03
2020-08-12 19:56:38.6280,-0.06,0.01,-0.0
2020-08-12 19:56:38.7280,-0.01,0.01,-0.0
2020-08-12 19:56:38.8270,-0.02,0.02,0.02
2020-08-12 19:56:38.9260,-0.04,0.0,0.01
2020-08-12 19:56:39.0250,-0.02,0.0,0.01
2020-08-12 19:56:39.1250,-0.09,-0.01,0.02
2020-08-12 19:56:39.2240,-0.28,-0.28,0.03
2020-08-12 19:56:39.3230,-0.44,-0.4,0.4
2020-08-12 19:56:39.4220,-0.98,0.28,0.06
2020-08-12 19:56:39.5220,-0.18,-0.2,-0.09
2020-08-12 19:56:39.6220,0.26,-0.3,-0.05
2020-08-12 19:56:39.7200,0.96,-0.27,0.02
2020-08-12 19:56:39.8200,0.91,-0.09,0.14
2020-08-12 19:56:39.9190,0.1,-0.24,-0.07
2020-08-12 19:56:40.0180,0.25,-0.1,0.19
2020-08-12 19:56:40.1170,0.01,-0.03,0.06
2020-08-12 19:56:40.2160,-0.03,0.04,0.07
2020-08-12 19:56:40.3160,0.02,-0.02,0.01
2020-08-12 19:56:40.4150,0.06,-0.02,-0.03
2020-08-12 19:56:40.5140,0.07,-0.0,-0.04
2020-08-12 19:56:40.6140,0.0,0.01,0.02
2020-08-12 19:56:40.7130,0.01,-0.01,-0.01
2020-08-12 19:56:40.8120,-0.03,0.02,0.0
2020-08-12 19:56:40.9110,-0.01,-0.0,0.01
2020-08-12 19:56:41.0100,-0.01,0.01,0.02
2020-08-12 19:56:41.1100,-0.09,-0.08,0.07
2020-08-12 19:56:41.2090,-0.66,-0.61,0.03
2020-08-12 19:56:41.3080,-0.87,0.14,-0.16
2020-08-12 19:56:41.4070,-0.65,0.03,-0.14
2020-08-12 19:56:41.5070,0.11,-0.43,-0.0
2020-08-12 19:56:41.6070,0.59,-0.2,0.09
2020-08-12 19:56:41.7050,1.06,0.0,0.14
2020-08-12 19:56:41.8050,-1.4,-0.19,0.19
2020-08-12 19:56:41.9040,0.58,-0.3,0.15
2020-08-12 19:56:42.0030,0.13,0.03,0.02
2020-08-12 19:56:42.1020,0.0,-0.01,0.01
2020-08-12 19:56:42.2030,-0.03,0.02,0.01
2020-08-12 19:56:42.3010,0.01,0.01,-0.02
2020-08-12 19:56:42.4000,0.03,-0.0,-0.0
2020-08-12 19:56:42.4990,-0.01,0.02,-0.01
2020-08-12 19:56:42.5990,0.01,0.01,0.0
2020-08-12 19:56:42.6980,0.01,-0.01,0.03
2020-08-12 19:56:42.7970,0.02,-0.01,-0.02
2020-08-12 19:56:42.8960,-0.01,-0.01,-0.01
2020-08-12 19:56:42.9950,-0.05,0.0,0.06
2020-08-12 19:56:43.0950,-0.18,-0.15,-0.02
2020-08-12 19:56:43.1940,-0.8,-0.64,0.09
2020-08-12 19:56:43.2930,-1.2,0.32,-0.03
2020-08-12 19:56:43.3930,-0.59,-0.08,-0.07
2020-08-12 19:56:43.4920,0.24,-0.4,-0.02
2020-08-12 19:56:43.5920,0.93,-0.29,0.02
2020-08-12 19:56:43.6910,0.99,-0.0,0.25
2020-08-12 19:56:43.7890,-1.58,0.26,0.51
2020-08-12 19:56:43.8890,0.41,-0.1,0.23
2020-08-12 19:56:43.9880,-0.01,0.02,-0.08
2020-08-12 19:56:44.0870,0.02,-0.04,-0.03
2020-08-12 19:56:44.1870,0.03,-0.02,-0.0
2020-08-12 19:56:44.2860,-0.02,0.02,-0.0
2020-08-12 19:56:44.3860,0.01,0.01,-0.0
2020-08-12 19:56:44.4840,-0.04,0.01,0.03
2020-08-12 19:56:44.5840,-0.0,-0.0,-0.02
2020-08-12 19:56:44.6830,-0.01,0.0,-0.0
2020-08-12 19:56:44.7820,-0.05,0.01,0.01
2020-08-12 19:56:44.8820,-0.08,0.0,0.03
2020-08-12 19:56:44.9810,-0.12,-0.03,0.05
2020-08-12 19:56:45.0810,-0.36,-0.44,-0.22
2020-08-12 19:56:45.1800,-0.31,-0.15,0.43
2020-08-12 19:56:45.2790,-0.84,0.18,-0.14
2020-08-12 19:56:45.3780,-0.02,-0.49,-0.09
2020-08-12 19:56:45.4770,0.44,-0.24,0.12
2020-08-12 19:56:45.5760,0.81,-0.07,0.23
2020-08-12 19:56:45.6760,0.82,-0.33,0.17
2020-08-12 19:56:45.7750,0.69,0.06,-0.13
2020-08-12 19:56:45.8750,-0.16,0.02,-0.1
2020-08-12 19:56:45.9730,-0.11,0.01,0.08
2020-08-12 19:56:46.0720,-0.04,0.03,0.01
2020-08-12 19:56:46.1720,0.1,-0.08,-0.11
2020-08-12 19:56:46.2720,0.13,-0.02,-0.04
2020-08-12 19:56:46.3700,0.01,-0.0,0.01
2020-08-12 19:56:46.4690,0.01,0.01,-0.02
2020-08-12 19:56:46.5690,-0.01,-0.0,-0.03
2020-08-12 19:56:46.6690,-0.04,0.01,0.01
2020-08-12 19:56:46.7680,-0.05,-0.01,0.02
2020-08-12 19:56:46.8670,-0.11,-0.19,0.03
2020-08-12 19:56:46.9670,-0.77,-0.57,0.03
2020-08-12 19:56:47.0650,-0.95,0.22,-0.12
2020-08-12 19:56:47.1640,-0.61,0.02,-0.06
2020-08-12 19:56:47.2630,0.14,-0.37,-0.01
2020-08-12 19:56:47.3630,0.73,-0.25,0.09
2020-08-12 19:56:47.4620,1.0,-0.02,0.16
2020-08-12 19:56:47.5610,-0.81,-0.31,-0.3
2020-08-12 19:56:47.6600,0.33,-0.02,0.03
2020-08-12 19:56:47.7600,-0.04,-0.0,-0.12
2020-08-12 19:56:47.8600,-0.05,0.01,0.05
2020-08-12 19:56:47.9590,0.01,-0.0,-0.0
2020-08-12 19:56:48.0570,0.01,0.04,0.03
2020-08-12 19:56:48.1570,0.03,-0.03,-0.03
2020-08-12 19:56:48.2570,-0.01,0.0,-0.01
2020-08-12 19:56:48.3550,-0.02,-0.02,0.0
2020-08-12 19:56:48.4550,-0.04,-0.01,-0.01
2020-08-12 19:56:48.5540,-0.03,-0.01,0.03
2020-08-12 19:56:48.6530,-0.06,0.0,0.02
2020-08-12 19:56:48.7530,-0.1,-0.06,0.03
2020-08-12 19:56:48.8530,-0.36,-0.34,-0.06
2020-08-12 19:56:48.9510,-0.17,-0.26,0.4
2020-08-12 19:56:49.0510,-1.18,0.25,0.12
2020-08-12 19:56:49.1500,-0.17,-0.27,-0.11
2020-08-12 19:56:49.2480,0.38,-0.3,-0.01
2020-08-12 19:56:49.3490,0.71,-0.26,0.21
2020-08-12 19:56:49.4480,1.03,0.02,0.13
2020-08-12 19:56:49.5470,-0.45,-0.72,0.17
2020-08-12 19:56:49.6460,0.2,0.05,0.26
2020-08-12 19:56:49.7460,0.12,0.02,0.02
2020-08-12 19:56:49.8440,0.06,-0.03,-0.04
2020-08-12 19:56:49.9430,-0.05,0.01,0.05
2020-08-12 19:56:50.0420,-0.01,-0.01,0.01
2020-08-12 19:56:50.1420,0.01,-0.01,-0.03
2020-08-12 19:56:50.2420,0.03,-0.01,-0.01
2020-08-12 19:56:50.3410,0.01,-0.03,-0.01
2020-08-12 19:56:50.4400,-0.04,0.01,0.01
2020-08-12 19:56:50.5400,-0.04,-0.0,0.02
2020-08-12 19:56:50.6380,-0.04,-0.0,-0.02
2020-08-12 19:56:50.7380,-0.14,-0.19,-0.1
2020-08-12 19:56:50.8360,-0.61,-0.38,0.13
2020-08-12 19:56:50.9370,-0.84,-0.08,0.1
2020-08-12 19:56:51.0360,-0.66,0.05,-0.07
2020-08-12 19:56:51.1350,0.07,-0.38,-0.04
2020-08-12 19:56:51.2340,0.5,-0.32,-0.03
2020-08-12 19:56:51.3330,1.11,-0.06,0.09
2020-08-12 19:56:51.4330,-0.06,-0.74,-0.27
2020-08-12 19:56:51.5320,0.64,-0.19,-0.21
2020-08-12 19:56:51.6310,-0.02,0.02,-0.08
2020-08-12 19:56:51.7300,-0.04,0.02,0.04
2020-08-12 19:56:51.8300,0.01,0.03,-0.01
2020-08-12 19:56:51.9290,0.06,-0.03,-0.05
2020-08-12 19:56:52.0270,0.02,0.01,0.01
2020-08-12 19:56:52.1280,-0.07,0.01,-0.02
2020-08-12 19:56:52.2260,-0.04,-0.01,0.02
2020-08-12 19:56:52.3260,-0.01,0.0,-0.0
2020-08-12 19:56:52.4250,-0.03,0.02,-0.03
2020-08-12 19:56:52.5250,-0.06,0.01,0.04
2020-08-12 19:56:52.6230,-0.29,-0.47,0.05
2020-08-12 19:56:52.7230,-0.62,-0.26,0.28
2020-08-12 19:56:52.8220,-1.39,0.52,0.04
2020-08-12 19:56:52.9220,-0.45,-0.16,-0.07
2020-08-12 19:56:53.0200,0.13,-0.33,0.04
2020-08-12 19:56:53.1200,0.68,-0.22,0.1
2020-08-12 19:56:53.2190,0.84,-0.01,0.14
2020-08-12 19:56:53.3190,-0.99,-0.11,-0.18
2020-08-12 19:56:53.4170,0.35,-0.08,0.15
2020-08-12 19:56:53.5160,-0.12,0.05,-0.02
2020-08-12 19:56:53.6160,0.01,-0.01,-0.01
2020-08-12 19:56:53.7160,-0.04,0.04,0.08
2020-08-12 19:56:53.8150,-0.02,-0.03,-0.05
2020-08-12 19:56:53.9130,-0.05,-0.02,0.01
2020-08-12 19:56:54.0130,-0.03,0.01,0.03
2020-08-12 19:56:54.1120,-0.03,-0.0,0.01
2020-08-12 19:56:54.2120,-0.03,0.0,0.01
2020-08-12 19:56:54.3100,0.0,-0.0,-0.0
2020-08-12 19:56:54.4090,-0.03,-0.01,-0.01
2020-08-12 19:56:54.5100,-0.25,-0.3,-0.01
2020-08-12 19:56:54.6080,-0.29,-0.4,0.24
2020-08-12 19:56:54.7080,-1.3,0.45,0.23
2020-08-12 19:56:54.8070,-0.41,-0.2,-0.14
2020-08-12 19:56:54.9060,0.09,-0.34,-0.05
2020-08-12 19:56:55.0050,0.71,-0.31,0.06
2020-08-12 19:56:55.1050,0.82,-0.07,0.2
2020-08-12 19:56:55.2050,-0.42,-0.6,-0.5
2020-08-12 19:56:55.3030,0.67,-0.16,0.02
2020-08-12 19:56:55.4020,-0.06,-0.02,-0.06
2020-08-12 19:56:55.5020,0.01,-0.03,-0.04
2020-08-12 19:56:55.6020,0.04,-0.0,0.01
2020-08-12 19:56:55.7010,-0.01,-0.01,-0.01
2020-08-12 19:56:55.7990,-0.02,0.01,-0.0
2020-08-12 19:56:55.8990,0.01,-0.0,0.0
2020-08-12 19:56:55.9980,0.03,-0.02,-0.04
2020-08-12 19:56:56.0970,0.02,0.0,-0.01
2020-08-12 19:56:56.1960,0.02,-0.0,-0.0
2020-08-12 19:56:56.2950,-0.04,0.01,-0.0
2020-08-12 19:56:56.3950,-0.16,-0.23,-0.07
2020-08-12 19:56:56.4940,-0.57,-0.36,0.12
2020-08-12 19:56:56.5930,-0.96,0.34,-0.02
2020-08-12 19:56:56.6930,-0.58,-0.02,-0.05
2020-08-12 19:56:56.7920,0.04,-0.28,-0.07
2020-08-12 19:56:56.8910,0.27,-0.27,0.03
2020-08-12 19:56:56.9900,0.62,-0.1,0.07
2020-08-12 19:56:57.0900,0.95,0.09,0.18
2020-08-12 19:56:57.1900,-0.25,-0.63,0.08
2020-08-12 19:56:57.2880,0.11,0.02,0.06
2020-08-12 19:56:57.3870,-0.02,0.03,0.11
2020-08-12 19:56:57.4870,0.07,-0.03,-0.02
2020-08-12 19:56:57.5860,-0.03,0.02,-0.0
2020-08-12 19:56:57.6850,0.01,-0.01,-0.03
2020-08-12 19:56:57.7840,-0.02,0.0,0.02
2020-08-12 19:56:57.8840,-0.04,-0.01,0.0
2020-08-12 19:56:57.9830,-0.09,0.01,0.01
2020-08-12 19:56:58.0830,-0.1,0.0,0.01
2020-08-12 19:56:58.1820,-0.06,-0.03,0.04
2020-08-12 19:56:58.2810,-0.07,-0.02,0.0
2020-08-12 19:56:58.3810,-0.35,-0.44,0.12
2020-08-12 19:56:58.4790,-0.36,-0.23,0.42
2020-08-12 19:56:58.5780,-1.02,0.3,-0.01
2020-08-12 19:56:58.6770,-0.29,-0.31,-0.1
2020-08-12 19:56:58.7780,0.26,-0.33,0.05
2020-08-12 19:56:58.8770,0.69,-0.03,0.11
2020-08-12 19:56:58.9760,1.11,-0.06,0.37
2020-08-12 19:56:59.0740,-0.17,-0.42,-0.24
2020-08-12 19:56:59.1740,0.1,-0.03,0.19
2020-08-12 19:56:59.2740,0.01,0.0,0.09
2020-08-12 19:56:59.3720,-0.01,0.01,-0.03
2020-08-12 19:56:59.4720,0.02,0.01,-0.01
2020-08-12 19:56:59.5710,0.04,-0.01,-0.03
2020-08-12 19:56:59.6700,0.03,-0.01,-0.04
2020-08-12 19:56:59.7690,-0.01,0.0,0.02
2020-08-12 19:56:59.8690,-0.05,0.01,0.01
2020-08-12 19:56:59.9680,0.01,-0.01,-0.0
2020-08-12 19:57:00.0680,0.0,-0.01,0.0
2020-08-12 19:57:00.1670,-0.07,-0.04,0.02
2020-08-12 19:57:00.2670,-0.2,-0.33,-0.02
2020-08-12 19:57:00.3650,-0.63,-0.37,0.05
2020-08-12 19:57:00.4650,-1.0,0.27,0.02
2020-08-12 19:57:00.5630,-0.69,0.03,-0.09
2020-08-12 19:57:00.6620,-0.04,-0.4,-0.08
2020-08-12 19:57:00.7620,0.55,-0.24,0.17
2020-08-12 19:57:00.8620,0.66,-0.06,0.17
2020-08-12 19:57:00.9600,0.85,0.05,0.18
2020-08-12 19:57:01.0600,0.57,-0.19,-0.02
2020-08-12 19:57:01.1590,-0.01,-0.01,0.02
2020-08-12 19:57:01.2580,-0.08,0.03,0.04
2020-08-12 19:57:01.3580,0.01,-0.01,0.02
2020-08-12 19:57:01.4570,0.02,0.0,0.0
2020-08-12 19:57:01.5560,-0.03,0.02,-0.0
2020-08-12 19:57:01.6560,-0.11,0.01,0.06
2020-08-12 19:57:01.7540,-0.05,0.0,0.02
2020-08-12 19:57:01.8540,-0.02,0.01,-0.01
2020-08-12 19:57:01.9530,-0.0,-0.01,-0.01
2020-08-12 19:57:02.0530,0.0,0.0,-0.01
2020-08-12 19:57:02.1510,-0.05,-0.1,0.02
2020-08-12 19:57:02.2500,-0.6,-0.61,-0.05
2020-08-12 19:57:02.3500,-0.54,-0.06,0.0
2020-08-12 19:57:02.4490,-0.79,0.18,-0.09
2020-08-12 19:57:02.5490,-0.03,-0.34,-0.12
2020-08-12 19:57:02.6490,0.38,-0.34,0.01
2020-08-12 19:57:02.7480,0.89,-0.09,0.15
2020-08-12 19:57:02.8470,0.97,-0.07,0.12
2020-08-12 19:57:02.9450,0.62,-0.04,-0.18
2020-08-12 19:57:03.0450,0.17,0.04,-0.27
2020-08-12 19:57:03.1440,0.05,-0.01,-0.06
2020-08-12 19:57:03.2430,0.02,-0.01,-0.0
2020-08-12 19:57:03.3420,0.01,-0.02,-0.04
2020-08-12 19:57:03.4420,-0.0,-0.01,-0.02
2020-08-12 19:57:03.5410,0.0,-0.0,0.0
2020-08-12 19:57:03.6410,-0.01,0.01,-0.01
2020-08-12 19:57:03.7400,-0.03,0.0,-0.0
2020-08-12 19:57:03.8390,-0.03,-0.01,0.01
2020-08-12 19:57:03.9390,-0.03,-0.0,-0.0
2020-08-12 19:57:04.0380,-0.08,-0.0,0.01
2020-08-12 19:57:04.1370,-0.09,-0.05,0.04
2020-08-12 19:57:04.2360,-0.45,-0.53,0.07
2020-08-12 19:57:04.3360,-0.09,-0.25,0.28
2020-08-12 19:57:04.4340,-0.89,0.16,-0.09
2020-08-12 19:57:04.5330,-0.17,-0.3,-0.11
2020-08-12 19:57:04.6340,0.23,-0.35,0.12
2020-08-12 19:57:04.7320,0.81,-0.07,0.15
2020-08-12 19:57:04.8310,0.96,-0.06,0.03
2020-08-12 19:57:04.9310,0.43,-0.12,-0.11
2020-08-12 19:57:05.0310,-0.02,0.19,-0.05
2020-08-12 19:57:05.1300,0.04,-0.06,-0.05
2020-08-12 19:57:05.2280,0.06,-0.0,0.03
2020-08-12 19:57:05.3270,0.0,0.01,-0.01
2020-08-12 19:57:05.4270,0.03,-0.03,-0.06
2020-08-12 19:57:05.5270,0.07,-0.03,-0.05
2020-08-12 19:57:05.6250,-0.0,-0.02,-0.02
2020-08-12 19:57:05.7240,-0.04,-0.0,0.02
2020-08-12 19:57:05.8240,-0.06,-0.0,0.0
2020-08-12 19:57:05.9240,-0.03,0.0,0.01
2020-08-12 19:57:06.0220,0.02,-0.02,0.0
2020-08-12 19:57:06.1220,-0.22,-0.24,0.01
2020-08-12 19:57:06.2210,-0.3,-0.34,0.17
2020-08-12 19:57:06.3200,-1.04,0.3,0.03
2020-08-12 19:57:06.4190,-0.5,-0.07,-0.12
2020-08-12 19:57:06.5180,0.05,-0.3,-0.04
2020-08-12 19:57:06.6180,0.55,-0.26,0.05
2020-08-12 19:57:06.7170,0.8,-0.02,0.14
2020-08-12 19:57:06.8160,0.86,-0.03,0.11
2020-08-12 19:57:06.9150,0.55,-0.2,-0.0
2020-08-12 19:57:07.0160,-0.08,0.02,-0.03
2020-08-12 19:57:07.1140,-0.06,0.03,0.01
2020-08-12 19:57:07.2130,0.01,-0.0,-0.01
2020-08-12 19:57:07.3120,-0.06,0.02,0.02
2020-08-12 19:57:07.4120,-0.1,0.03,0.03
2020-08-12 19:57:07.5120,-0.08,0.03,-0.0
2020-08-12 19:57:07.6100,-0.06,0.01,-0.0
2020-08-12 19:57:07.7100,-0.06,0.0,0.01
2020-08-12 19:57:07.8100,-0.05,-0.0,0.0
2020-08-12 19:57:07.9090,-0.02,-0.0,0.01
2020-08-12 19:57:08.0070,-0.02,-0.03,-0.02
2020-08-12 19:57:08.1060,-0.09,-0.12,0.0
2020-08-12 19:57:08.2060,-0.53,-0.51,0.01
2020-08-12 19:57:08.3060,-0.59,0.0,0.23
2020-08-12 19:57:08.4040,-0.76,0.06,-0.1
2020-08-12 19:57:08.5030,-0.15,-0.37,-0.15
2020-08-12 19:57:08.6030,0.43,-0.34,0.02
2020-08-12 19:57:08.7030,0.8,-0.14,0.2
2020-08-12 19:57:08.8020,1.05,0.01,0.26
2020-08-12 19:57:08.9010,0.35,-0.13,-0.06
2020-08-12 19:57:09.0000,0.07,-0.04,0.02
2020-08-12 19:57:09.1000,-0.0,0.04,0.03
2020-08-12 19:57:09.1990,0.05,-0.01,-0.05
2020-08-12 19:57:09.2980,-0.0,0.0,0.03
2020-08-12 19:57:09.3970,-0.05,0.01,0.03
2020-08-12 19:57:09.4960,-0.02,0.01,0.01
2020-08-12 19:57:09.5960,0.0,-0.01,-0.01
2020-08-12 19:57:09.6940,-0.02,0.01,-0.0
2020-08-12 19:57:09.7940,-0.02,-0.0,-0.0
2020-08-12 19:57:09.8940,-0.0,0.01,-0.01
2020-08-12 19:57:09.9920,-0.04,0.01,0.01
2020-08-12 19:57:10.0920,-0.09,-0.07,0.02
2020-08-12 19:57:10.1910,-0.4,-0.47,-0.13
2020-08-12 19:57:10.2910,-0.13,-0.21,0.21
2020-08-12 19:57:10.3900,-1.08,0.27,0.08
2020-08-12 19:57:10.4890,-0.31,-0.29,-0.18
2020-08-12 19:57:10.5890,0.24,-0.43,0.02
2020-08-12 19:57:10.6880,0.82,-0.16,0.16
2020-08-12 19:57:10.7870,0.81,-0.09,0.2
2020-08-12 19:57:10.8860,-0.09,-0.26,-0.13
2020-08-12 19:57:10.9860,0.24,-0.04,-0.02
2020-08-12 19:57:11.0850,0.07,-0.0,0.06
2020-08-12 19:57:11.1830,0.06,-0.01,-0.02
2020-08-12 19:57:11.2830,-0.02,0.01,0.04
2020-08-12 19:57:11.3820,0.01,0.02,0.03
2020-08-12 19:57:11.4810,-0.05,-0.01,-0.02
2020-08-12 19:57:11.5800,0.0,0.01,-0.01
2020-08-12 19:57:11.6810,-0.0,-0.01,-0.02
2020-08-12 19:57:11.7800,-0.05,-0.0,0.0
2020-08-12 19:57:11.8790,-0.03,-0.02,0.01
2020-08-12 19:57:11.9780,-0.05,0.01,-0.02
2020-08-12 19:57:12.0770,-0.16,-0.19,0.01
2020-08-12 19:57:12.1770,-0.27,-0.33,0.26
2020-08-12 19:57:12.2750,-1.0,0.29,0.11
2020-08-12 19:57:12.3750,-0.44,-0.13,-0.14
2020-08-12 19:57:12.4740,0.02,-0.3,0.01
2020-08-12 19:57:12.5740,0.37,-0.2,0.08
2020-08-12 19:57:12.6730,0.77,-0.03,0.16
2020-08-12 19:57:12.7720,0.87,0.05,0.21
2020-08-12 19:57:12.8700,0.27,-0.32,-0.11
2020-08-12 19:57:12.9710,0.08,-0.04,0.15
2020-08-12 19:57:13.0690,-0.07,-0.01,0.02
2020-08-12 19:57:13.1690,-0.05,0.03,-0.04
2020-08-12 19:57:13.2670,0.02,0.02,0.07
2020-08-12 19:57:13.3680,-0.0,-0.0,-0.02
2020-08-12 19:57:13.4670,-0.03,0.02,0.01
2020-08-12 19:57:13.5660,0.07,-0.04,-0.05
2020-08-12 19:57:13.6650,0.05,0.01,-0.03
2020-08-12 19:57:13.7640,-0.02,-0.0,0.0
2020-08-12 19:57:13.8630,-0.06,-0.0,-0.01
2020-08-12 19:57:13.9620,-0.08,-0.03,0.03
2020-08-12 19:57:14.0630,-0.16,-0.07,0.02
2020-08-12 19:57:14.1620,-0.35,-0.26,-0.08
2020-08-12 19:57:14.2610,-0.24,-0.27,0.49
2020-08-12 19:57:14.3600,-0.84,0.11,-0.07
2020-08-12 19:57:14.4590,-0.1,-0.28,-0.09
2020-08-12 19:57:14.5590,0.35,-0.33,-0.0
2020-08-12 19:57:14.6580,0.68,-0.06,0.1
2020-08-12 19:57:14.7560,0.81,0.05,0.21
2020-08-12 19:57:14.8550,-1.08,-0.76,0.52
2020-08-12 19:57:14.9550,0.06,-0.2,0.49
2020-08-12 19:57:15.0540,-0.15,0.04,-0.03
2020-08-12 19:57:15.1530,-0.07,0.02,-0.01
2020-08-12 19:57:15.2530,0.06,-0.04,-0.11
2020-08-12 19:57:15.3520,0.09,-0.02,-0.03
2020-08-12 19:57:15.4510,-0.02,0.0,-0.0
2020-08-12 19:57:15.5510,-0.04,0.0,0.03
2020-08-12 19:57:15.6500,-0.04,0.01,0.01
2020-08-12 19:57:15.7490,-0.04,0.01,0.01
2020-08-12 19:57:15.8480,0.02,0.01,-0.01
2020-08-12 19:57:15.9470,0.04,-0.01,-0.0
2020-08-12 19:57:16.0470,-0.07,-0.03,0.02
2020-08-12 19:57:16.1470,-0.41,-0.54,-0.14
2020-08-12 19:57:16.2450,-0.3,-0.12,0.34
2020-08-12 19:57:16.3440,-0.83,0.17,-0.09
2020-08-12 19:57:16.4440,-0.13,-0.33,-0.08
2020-08-12 19:57:16.5430,0.49,-0.36,0.06
2020-08-12 19:57:16.6420,0.82,-0.08,0.17
2020-08-12 19:57:16.7410,0.91,-0.09,0.11
2020-08-12 19:57:16.8410,0.82,-0.09,-0.28
2020-08-12 19:57:16.9410,0.03,0.03,-0.05
2020-08-12 19:57:17.0390,0.08,-0.01,-0.01
2020-08-12 19:57:17.1380,0.05,-0.0,-0.05
2020-08-12 19:57:17.2390,-0.0,0.01,-0.01
2020-08-12 19:57:17.3370,-0.05,0.01,0.03
2020-08-12 19:57:17.4370,-0.01,0.0,-0.02
2020-08-12 19:57:17.5350,-0.01,0.02,0.03
2020-08-12 19:57:17.6350,-0.04,0.0,-0.01
2020-08-12 19:57:17.7340,-0.04,-0.0,0.01
2020-08-12 19:57:17.8340,-0.02,-0.01,0.02
2020-08-12 19:57:17.9320,0.01,-0.01,0.04
2020-08-12 19:57:18.0320,-0.26,-0.26,-0.14
2020-08-12 19:57:18.1310,-0.26,-0.23,0.31
2020-08-12 19:57:18.2310,-0.91,0.18,-0.03
2020-08-12 19:57:18.3290,-0.27,-0.23,0.01
2020-08-12 19:57:18.4300,0.18,-0.25,-0.03
2020-08-12 19:57:18.5290,0.47,-0.19,0.07
2020-08-12 19:57:18.6280,0.83,-0.04,0.11
2020-08-12 19:57:18.7270,0.57,-0.41,-0.07
2020-08-12 19:57:18.8260,0.79,0.09,-0.17
2020-08-12 19:57:18.9260,0.2,-0.0,-0.15
2020-08-12 19:57:19.0250,0.17,-0.03,-0.05
2020-08-12 19:57:19.1240,-0.02,-0.02,0.0
2020-08-12 19:57:19.2230,-0.01,0.0,-0.04
2020-08-12 19:57:19.3220,0.0,0.0,-0.0
2020-08-12 19:57:19.4220,-0.05,-0.0,-0.0
2020-08-12 19:57:19.5210,0.0,-0.0,0.02
2020-08-12 19:57:19.6210,-0.06,0.0,0.01
2020-08-12 19:57:19.7190,-0.02,-0.01,0.0
2020-08-12 19:57:19.8180,-0.02,-0.03,0.0
2020-08-12 19:57:19.9180,-0.1,-0.14,0.0
2020-08-12 19:57:20.0180,-0.31,-0.3,0.01
2020-08-12 19:57:20.1170,-0.55,-0.07,0.14
2020-08-12 19:57:20.2150,-0.87,0.11,0.01
2020-08-12 19:57:20.3150,-0.25,-0.3,-0.14
2020-08-12 19:57:20.4140,0.26,-0.3,0.02
2020-08-12 19:57:20.5140,0.68,0.0,0.14
2020-08-12 19:57:20.6120,1.06,0.08,0.29
2020-08-12 19:57:20.7120,-0.58,-0.69,0.21
2020-08-12 19:57:20.8120,0.04,0.04,-0.02
2020-08-12 19:57:20.9100,0.0,0.02,0.03
2020-08-12 19:57:21.0090,-0.08,0.07,0.06
2020-08-12 19:57:21.1090,-0.02,-0.02,-0.06
2020-08-12 19:57:21.2090,-0.0,0.0,-0.02
2020-08-12 19:57:21.3080,-0.05,0.02,0.04
2020-08-12 19:57:21.4060,-0.01,0.02,-0.01
2020-08-12 19:57:21.5060,-0.02,-0.01,-0.02
2020-08-12 19:57:21.6060,-0.0,-0.03,-0.03
2020-08-12 19:57:21.7040,-0.02,-0.02,-0.02
2020-08-12 19:57:21.8030,-0.06,-0.02,0.0
2020-08-12 19:57:21.9020,-0.18,-0.16,-0.05
2020-08-12 19:57:22.0020,-0.6,-0.49,0.17
2020-08-12 19:57:22.1020,-1.64,0.41,0.03
2020-08-12 19:57:22.2010,-0.54,-0.24,-0.09
2020-08-12 19:57:22.3000,0.23,-0.4,0.02
2020-08-12 19:57:22.3990,0.92,-0.16,0.21
2020-08-12 19:57:22.4990,1.13,0.02,0.13
2020-08-12 19:57:22.5970,-0.07,-0.65,-0.08
2020-08-12 19:57:22.6970,0.11,-0.22,0.25
2020-08-12 19:57:22.7960,-0.09,0.05,0.09
2020-08-12 19:57:22.8960,0.03,-0.04,-0.11
2020-08-12 19:57:22.9950,0.05,-0.02,-0.01
2020-08-12 19:57:23.0940,0.01,0.01,0.0
2020-08-12 19:57:23.1940,-0.05,-0.0,0.02
2020-08-12 19:57:23.2930,-0.06,-0.0,0.02
2020-08-12 19:57:23.3920,-0.03,0.01,0.02
2020-08-12 19:57:23.4920,-0.02,0.02,-0.0
2020-08-12 19:57:23.5910,-0.01,-0.0,0.0
2020-08-12 19:57:23.6900,-0.04,-0.02,-0.01
2020-08-12 19:57:23.7890,-0.1,-0.1,0.04
2020-08-12 19:57:23.8880,-0.5,-0.54,-0.11
2020-08-12 19:57:23.9880,-1.14,0.2,0.01
2020-08-12 19:57:24.0870,-0.64,-0.0,-0.08
2020-08-12 19:57:24.1850,0.02,-0.25,0.04
2020-08-12 19:57:24.2860,0.32,-0.2,0.06
2020-08-12 19:57:24.3850,0.75,-0.13,0.12
2020-08-12 19:57:24.4840,0.86,0.08,0.13
2020-08-12 19:57:24.5830,0.19,-0.3,-0.23
2020-08-12 19:57:24.6820,0.16,-0.07,0.02
2020-08-12 19:57:24.7820,0.22,-0.08,-0.01
2020-08-12 19:57:24.8810,0.07,-0.0,-0.04
2020-08-12 19:57:24.9800,0.04,-0.01,-0.04
2020-08-12 19:57:25.0790,-0.04,-0.0,0.02
2020-08-12 19:57:25.1780,-0.04,0.04,0.06
2020-08-12 19:57:25.2770,-0.0,0.02,0.06
2020-08-12 19:57:25.3770,-0.1,-0.01,0.01
2020-08-12 19:57:25.4760,-0.06,-0.01,0.01
2020-08-12 19:57:25.5760,-0.02,-0.0,-0.01
2020-08-12 19:57:25.6740,-0.08,-0.03,-0.03
2020-08-12 19:57:25.7740,-0.27,-0.25,-0.07
2020-08-12 19:57:25.8730,-0.2,-0.44,0.5
2020-08-12 19:57:25.9730,-1.27,0.24,0.23
2020-08-12 19:57:26.0710,-0.43,-0.22,-0.11
2020-08-12 19:57:26.1710,0.25,-0.32,0.04
2020-08-12 19:57:26.2700,0.77,-0.3,0.12
2020-08-12 19:57:26.3700,1.18,0.06,0.27
2020-08-12 19:57:26.4690,-0.42,-0.8,0.22
2020-08-12 19:57:26.5680,0.09,-0.09,0.27
2020-08-12 19:57:26.6670,-0.08,0.04,0.06
2020-08-12 19:57:26.7670,-0.01,-0.03,-0.04
2020-08-12 19:57:26.8660,0.06,-0.0,0.01
2020-08-12 19:57:26.9650,0.07,-0.0,-0.03
2020-08-12 19:57:27.0640,-0.04,0.01,-0.0
2020-08-12 19:57:27.1640,-0.06,0.0,0.05
2020-08-12 19:57:27.2620,-0.06,0.0,-0.02
2020-08-12 19:57:27.3610,-0.03,0.01,-0.02
2020-08-12 19:57:27.4600,-0.02,0.01,-0.01
2020-08-12 19:57:27.5610,0.01,-0.02,0.03
2020-08-12 19:57:27.6590,-0.25,-0.19,0.1
2020-08-12 19:57:27.7580,-0.36,-0.38,0.23
2020-08-12 19:57:27.8590,-1.09,0.29,-0.0
2020-08-12 19:57:27.9580,-0.51,-0.14,-0.07
2020-08-12 19:57:28.0560,0.06,-0.28,-0.04
2020-08-12 19:57:28.1550,0.34,-0.2,-0.02
2020-08-12 19:57:28.2550,0.65,-0.07,0.12
2020-08-12 19:57:28.3540,0.76,0.02,0.22
2020-08-12 19:57:28.4540,-0.79,-0.64,0.55
2020-08-12 19:57:28.5530,-0.08,-0.07,0.3
2020-08-12 19:57:28.6530,-0.08,-0.02,0.03
2020-08-12 19:57:28.7510,-0.04,-0.03,-0.03
2020-08-12 19:57:28.8510,0.01,-0.01,0.0
2020-08-12 19:57:28.9500,-0.04,0.03,0.02
2020-08-12 19:57:29.0490,-0.0,-0.01,0.0
2020-08-12 19:57:29.1490,0.01,0.01,0.02
2020-08-12 19:57:29.2480,0.03,0.0,-0.01
2020-08-12 19:57:29.3470,-0.03,-0.01,-0.01
2020-08-12 19:57:29.4470,0.01,-0.0,-0.02
2020-08-12 19:57:29.5450,-0.01,-0.01,0.02
2020-08-12 19:57:29.6440,-0.14,-0.2,-0.06
2020-08-12 19:57:29.7440,-0.48,-0.27,0.05
2020-08-12 19:57:29.8440,-0.54,-0.11,0.21
2020-08-12 19:57:29.9430,-0.73,0.07,-0.03
2020-08-12 19:57:30.0420,-0.03,-0.34,-0.09
2020-08-12 19:57:30.1410,0.45,-0.39,-0.05
2020-08-12 19:57:30.2410,0.98,-0.07,0.13
2020-08-12 19:57:30.3400,0.84,-0.05,0.18
2020-08-12 19:57:30.4390,0.87,-0.01,-0.17
2020-08-12 19:57:30.5380,0.1,0.01,-0.17
2020-08-12 19:57:30.6370,0.04,0.02,-0.03
2020-08-12 19:57:30.7370,0.04,-0.02,-0.06
2020-08-12 19:57:30.8350,-0.02,0.03,0.0
2020-08-12 19:57:30.9350,-0.01,-0.01,-0.01
2020-08-12 19:57:31.0350,0.0,-0.01,-0.0
2020-08-12 19:57:31.1330,-0.04,0.01,0.01
2020-08-12 19:57:31.2330,-0.06,0.0,0.0
2020-08-12 19:57:31.3320,-0.1,-0.01,0.01
2020-08-12 19:57:31.4320,-0.09,-0.04,0.0
2020-08-12 19:57:31.5310,-0.16,-0.14,0.0
2020-08-12 19:57:31.6300,-0.63,-0.51,-0.01
2020-08-12 19:57:31.7290,-1.39,0.43,-0.05
2020-08-12 19:57:31.8290,-0.61,-0.02,-0.09
2020-08-12 19:57:31.9280,-0.0,-0.38,-0.06
2020-08-12 19:57:32.0260,0.42,-0.27,-0.02
2020-08-12 19:57:32.1260,0.95,-0.09,0.14
2020-08-12 19:57:32.2260,1.06,0.0,0.06
2020-08-12 19:57:32.3250,0.77,0.04,-0.24
2020-08-12 19:57:32.4230,0.03,0.15,-0.18
2020-08-12 19:57:32.5230,0.02,-0.01,0.04
2020-08-12 19:57:32.6220,0.0,-0.02,-0.06
2020-08-12 19:57:32.7220,-0.05,0.01,0.02
2020-08-12 19:57:32.8200,-0.02,0.0,-0.02
2020-08-12 19:57:32.9200,-0.0,0.0,-0.01
2020-08-12 19:57:33.0200,0.01,-0.0,0.0
2020-08-12 19:57:33.1190,-0.02,0.0,0.0
2020-08-12 19:57:33.2180,-0.03,-0.0,-0.0
2020-08-12 19:57:33.3170,-0.05,0.0,0.02
2020-08-12 19:57:33.4170,-0.06,-0.03,0.02
2020-08-12 19:57:33.5160,-0.24,-0.44,-0.08
2020-08-12 19:57:33.6140,-0.43,-0.22,0.44
2020-08-12 19:57:33.7150,-1.27,0.34,0.18
2020-08-12 19:57:33.8140,-0.42,-0.22,-0.1
2020-08-12 19:57:33.9130,0.17,-0.48,0.0
2020-08-12 19:57:34.0120,0.79,-0.25,0.14
2020-08-12 19:57:34.1110,1.08,-0.02,0.14
2020-08-12 19:57:34.2110,-0.04,-0.26,-0.23
2020-08-12 19:57:34.3090,0.28,0.2,0.04
2020-08-12 19:57:34.4090,0.1,0.01,-0.03
2020-08-12 19:57:34.5090,0.0,0.02,0.02
2020-08-12 19:57:34.6070,0.01,-0.01,0.02
2020-08-12 19:57:34.7070,0.0,0.0,0.02
2020-08-12 19:57:34.8060,0.02,0.01,0.01
2020-08-12 19:57:34.9060,-0.03,-0.0,0.04
2020-08-12 19:57:35.0040,-0.01,0.02,0.0
2020-08-12 19:57:35.1030,-0.02,0.01,0.0
2020-08-12 19:57:35.2030,-0.0,-0.01,-0.01
2020-08-12 19:57:35.3020,-0.06,-0.08,0.05
2020-08-12 19:57:35.4010,-0.58,-0.61,-0.05
2020-08-12 19:57:35.5010,-0.71,-0.05,0.2
2020-08-12 19:57:35.5990,-0.76,0.11,-0.06
2020-08-12 19:57:35.6990,-0.1,-0.33,-0.05
2020-08-12 19:57:35.7990,0.39,-0.46,0.12
2020-08-12 19:57:35.8970,0.79,-0.12,0.19
2020-08-12 19:57:35.9970,0.88,-0.07,0.08
2020-08-12 19:57:36.0960,0.55,-0.15,-0.11
2020-08-12 19:57:36.1960,0.0,0.18,-0.22
2020-08-12 19:57:36.2950,-0.06,-0.01,0.04
2020-08-12 19:57:36.3940,-0.04,0.0,0.02
2020-08-12 19:57:36.4930,-0.0,0.01,-0.02
2020-08-12 19:57:36.5930,-0.02,0.05,0.07
2020-08-12 19:57:36.6910,-0.12,-0.01,0.02
2020-08-12 19:57:36.7910,0.0,0.01,0.01
2020-08-12 19:57:36.8900,-0.0,0.01,-0.02
2020-08-12 19:57:36.9900,0.02,0.01,-0.02
2020-08-12 19:57:37.0880,0.03,0.01,-0.02
2020-08-12 19:57:37.1870,-0.03,0.01,0.03
2020-08-12 19:57:37.2870,-0.16,-0.2,0.01
2020-08-12 19:57:37.3860,-0.52,-0.44,-0.03
2020-08-12 19:57:37.4860,-0.74,-0.02,0.12
2020-08-12 19:57:37.5850,-0.77,0.09,-0.07
2020-08-12 19:57:37.6840,-0.14,-0.27,-0.05
2020-08-12 19:57:37.7840,0.32,-0.31,-0.01
2020-08-12 19:57:37.8830,0.78,-0.15,0.1
2020-08-12 19:57:37.9820,1.06,-0.1,0.18
2020-08-12 19:57:38.0810,0.1,-0.16,-0.24
2020-08-12 19:57:38.1810,0.34,-0.25,-0.04
2020-08-12 19:57:38.2800,0.07,0.02,0.11
2020-08-12 19:57:38.3780,0.01,-0.0,-0.02
2020-08-12 19:57:38.4780,0.0,-0.0,-0.01
2020-08-12 19:57:38.5780,0.02,0.0,-0.04
2020-08-12 19:57:38.6770,0.09,0.0,-0.02
2020-08-12 19:57:38.7760,0.02,0.02,-0.02
2020-08-12 19:57:38.8750,-0.0,0.01,0.02
2020-08-12 19:57:38.9750,-0.06,0.01,0.01
2020-08-12 19:57:39.0740,-0.02,-0.0,-0.02
2020-08-12 19:57:39.1730,-0.01,-0.03,-0.0
2020-08-12 19:57:39.2730,-0.14,-0.2,-0.03
2020-08-12 19:57:39.3720,-0.84,-0.49,0.05
2020-08-12 19:57:39.4710,-0.6,-0.04,0.09
2020-08-12 19:57:39.5700,-0.69,0.14,-0.0
2020-08-12 19:57:39.6700,-0.01,-0.4,-0.05
2020-08-12 19:57:39.7690,0.42,-0.42,0.01
2020-08-12 19:57:39.8670,0.73,-0.13,0.14
2020-08-12 19:57:39.9670,0.98,0.01,0.27
2020-08-12 19:57:40.0670,0.17,-0.15,-0.19
2020-08-12 19:57:40.1660,0.34,-0.06,-0.08
2020-08-12 19:57:40.2650,0.16,-0.01,0.06
2020-08-12 19:57:40.3640,0.0,-0.0,0.01
2020-08-12 19:57:40.4630,0.11,-0.07,-0.1
2020-08-12 19:57:40.5620,0.02,0.02,-0.01
2020-08-12 19:57:40.6620,0.04,0.0,0.0
2020-08-12 19:57:40.7610,0.03,-0.02,0.01
2020-08-12 19:57:40.8610,-0.0,0.01,0.01
2020-08-12 19:57:40.9600,-0.0,-0.01,-0.0
2020-08-12 19:57:41.0590,-0.03,-0.01,-0.01
2020-08-12 19:57:41.1580,-0.01,-0.01,-0.02
2020-08-12 19:57:41.2580,-0.05,-0.08,-0.01
2020-08-12 19:57:41.3570,-0.44,-0.36,-0.05
2020-08-12 19:57:41.4560,-0.25,-0.23,0.36
2020-08-12 19:57:41.5550,-1.02,0.17,-0.07
2020-08-12 19:57:41.6550,-0.27,-0.32,-0.1
2020-08-12 19:57:41.7540,0.24,-0.3,0.01
2020-08-12 19:57:41.8530,0.76,-0.19,0.14
2020-08-12 19:57:41.9520,1.24,0.05,0.17
2020-08-12 19:57:42.0520,-0.09,-0.73,0.0
2020-08-12 19:57:42.1510,0.08,-0.12,0.26
2020-08-12 19:57:42.2500,0.16,0.03,0.07
2020-08-12 19:57:42.3480,0.06,-0.02,-0.1
2020-08-12 19:57:42.4490,-0.01,0.0,0.01
2020-08-12 19:57:42.5470,0.0,0.01,0.01
2020-08-12 19:57:42.6480,0.01,-0.0,0.0
2020-08-12 19:57:42.7460,0.01,0.01,-0.04
2020-08-12 19:57:42.8460,-0.03,-0.01,-0.02
2020-08-12 19:57:42.9450,-0.03,0.0,-0.0
2020-08-12 19:57:43.0430,-0.03,-0.01,-0.0
2020-08-12 19:57:43.1430,-0.03,-0.0,-0.0
2020-08-12 19:57:43.2430,-0.16,-0.27,0.01
2020-08-12 19:57:43.3420,-0.7,-0.49,0.12
2020-08-12 19:57:43.4410,-1.07,-0.01,0.3
2020-08-12 19:57:43.5400,-0.76,0.03,-0.05
2020-08-12 19:57:43.6400,0.12,-0.55,-0.06
2020-08-12 19:57:43.7390,0.72,-0.32,0.14
2020-08-12 19:57:43.8380,1.16,-0.03,0.24
2020-08-12 19:57:43.9370,-1.56,0.05,0.63
2020-08-12 19:57:44.0370,0.76,-0.37,0.46
2020-08-12 19:57:44.1360,-0.1,0.06,0.1
2020-08-12 19:57:44.2340,0.01,-0.01,-0.01
2020-08-12 19:57:44.3340,-0.01,0.01,-0.01
2020-08-12 19:57:44.4340,0.02,0.01,-0.0
2020-08-12 19:57:44.5330,0.03,-0.0,-0.04
2020-08-12 19:57:44.6320,-0.0,0.0,-0.01
2020-08-12 19:57:44.7320,-0.01,-0.01,0.0
2020-08-12 19:57:44.8310,-0.03,0.0,0.01
2020-08-12 19:57:44.9290,-0.04,-0.0,-0.01
2020-08-12 19:57:45.0290,-0.01,-0.02,-0.01
2020-08-12 19:57:45.1290,-0.1,-0.11,-0.03
2020-08-12 19:57:45.2280,-0.57,-0.38,0.01
2020-08-12 19:57:45.3270,0.08,-0.33,0.29
2020-08-12 19:57:45.4260,-1.01,0.18,0.05
2020-08-12 19:57:45.5250,-0.28,-0.26,-0.14
2020-08-12 19:57:45.6250,0.24,-0.45,0.0
2020-08-12 19:57:45.7230,1.21,-0.24,0.18
2020-08-12 19:57:45.8220,1.05,0.07,0.22
2020-08-12 19:57:45.9230,0.67,-0.0,-0.1
2020-08-12 19:57:46.0220,0.34,-0.01,0.02
2020-08-12 19:57:46.1210,0.11,-0.01,0.06
2020-08-12 19:57:46.2200,0.06,0.01,-0.04
2020-08-12 19:57:46.3190,0.04,-0.02,-0.05
2020-08-12 19:57:46.4190,0.02,0.01,0.02
2020-08-12 19:57:46.5170,-0.03,0.0,0.01
2020-08-12 19:57:46.6170,-0.04,-0.01,-0.01
2020-08-12 19:57:46.7170,-0.03,-0.0,-0.01
2020-08-12 19:57:46.8160,-0.02,0.01,0.02
2020-08-12 19:57:46.9150,0.04,-0.03,-0.02
2020-08-12 19:57:47.0140,-0.02,-0.03,-0.01
2020-08-12 19:57:47.1140,-0.16,-0.15,0.02
2020-08-12 19:57:47.2120,-0.58,-0.36,0.01
2020-08-12 19:57:47.3120,0.03,-0.69,0.5
2020-08-12 19:57:47.4120,-1.31,0.24,-0.04
2020-08-12 19:57:47.5110,-0.17,-0.48,-0.22
2020-08-12 19:57:47.6100,0.7,-0.64,0.14
2020-08-12 19:57:47.7080,1.63,-0.12,0.16
2020-08-12 19:57:47.8080,-1.52,0.39,0.29
2020-08-12 19:57:47.9080,0.64,-0.27,0.21
2020-08-12 19:57:48.0060,-0.08,0.03,-0.0
2020-08-12 19:57:48.1050,-0.02,-0.01,0.03
2020-08-12 19:57:48.2050,-0.04,0.02,0.03
2020-08-12 19:57:48.3050,-0.05,0.02,0.03
2020-08-12 19:57:48.4040,0.03,-0.0,-0.01
2020-08-12 19:57:48.5020,-0.02,-0.01,0.01
2020-08-12 19:57:48.6020,-0.06,0.01,0.02
2020-08-12 19:57:48.7010,-0.02,0.03,0.0
2020-08-12 19:57:48.8010,-0.04,0.01,0.0
2020-08-12 19:57:48.9000,-0.03,0.0,-0.02
2020-08-12 19:57:48.9990,-0.03,-0.06,-0.04
2020-08-12 19:57:49.0990,-0.27,-0.35,0.04
2020-08-12 19:57:49.1970,-0.47,-0.38,0.29
2020-08-12 19:57:49.2970,-1.68,0.32,0.23
2020-08-12 19:57:49.3950,-0.54,-0.18,-0.12
2020-08-12 19:57:49.4940,0.24,-0.45,0.0
2020-08-12 19:57:49.5940,0.9,-0.23,0.24
2020-08-12 19:57:49.6930,1.04,-0.08,0.11
2020-08-12 19:57:49.7920,0.08,-0.03,-0.13
2020-08-12 19:57:49.8910,0.18,-0.01,0.1
2020-08-12 19:57:49.9900,0.17,0.0,-0.02
2020-08-12 19:57:50.0890,0.05,-0.02,-0.09
2020-08-12 19:57:50.1900,-0.08,0.01,0.05
2020-08-12 19:57:50.2900,-0.02,0.02,0.03
2020-08-12 19:57:50.3890,-0.02,0.01,-0.02
2020-08-12 19:57:50.4880,-0.03,0.01,0.0
2020-08-12 19:57:50.5870,-0.03,-0.01,-0.01
2020-08-12 19:57:50.6870,-0.0,-0.02,-0.01
2020-08-12 19:57:50.7860,-0.01,-0.01,0.0
2020-08-12 19:57:50.8850,-0.06,-0.02,0.01
2020-08-12 19:57:50.9840,-0.21,-0.36,0.04
2020-08-12 19:57:51.0830,-0.52,-0.26,0.13
2020-08-12 19:57:51.1830,-0.36,-0.07,0.21
2020-08-12 19:57:51.2820,-0.78,0.07,-0.06
2020-08-12 19:57:51.3810,-0.19,-0.29,-0.06
2020-08-12 19:57:51.4810,0.21,-0.37,0.03
2020-08-12 19:57:51.5790,0.69,-0.15,0.09
2020-08-12 19:57:51.6790,1.05,0.01,0.09
2020-08-12 19:57:51.7770,-0.24,-0.94,0.14
2020-08-12 19:57:51.8780,0.1,-0.17,0.43
2020-08-12 19:57:51.9770,-0.07,0.04,0.07
2020-08-12 19:57:52.0750,-0.05,-0.0,-0.03
2020-08-12 19:57:52.1750,-0.02,0.02,-0.03
2020-08-12 19:57:52.2750,-0.04,0.0,0.01
2020-08-12 19:57:52.3730,-0.06,0.05,0.05
2020-08-12 19:57:52.4730,-0.09,0.01,0.05
2020-08-12 19:57:52.5730,-0.07,0.01,0.0
2020-08-12 19:57:52.6710,-0.01,-0.01,-0.02
2020-08-12 19:57:52.7710,-0.04,-0.01,0.01
2020-08-12 19:57:52.8700,-0.05,-0.07,-0.02
2020-08-12 19:57:52.9690,-0.28,-0.2,-0.09
2020-08-12 19:57:53.0690,-0.46,-0.3,0.18
2020-08-12 19:57:53.1680,-1.08,0.24,0.17
2020-08-12 19:57:53.2670,-0.63,0.03,-0.04
2020-08-12 19:57:53.3670,-0.13,-0.41,-0.11
2020-08-12 19:57:53.4650,0.38,-0.38,0.0
2020-08-12 19:57:53.5640,0.74,-0.08,0.15
2020-08-12 19:57:53.6640,1.01,-0.06,0.15
2020-08-12 19:57:53.7640,0.62,-0.07,-0.12
2020-08-12 19:57:53.8630,0.12,0.13,-0.24
2020-08-12 19:57:53.9620,-0.0,0.01,0.05
2020-08-12 19:57:54.0610,0.0,-0.02,0.03
2020-08-12 19:57:54.1600,-0.05,-0.01,-0.02
2020-08-12 19:57:54.2590,-0.05,0.01,0.0
2020-08-12 19:57:54.3590,0.0,0.0,-0.02
2020-08-12 19:57:54.4580,-0.0,-0.01,-0.02
2020-08-12 19:57:54.5580,0.0,-0.01,-0.01
2020-08-12 19:57:54.6570,-0.03,-0.01,0.01
2020-08-12 19:57:54.7560,-0.02,-0.0,-0.01
2020-08-12 19:57:54.8550,-0.05,-0.02,-0.02
2020-08-12 19:57:54.9550,-0.2,-0.28,-0.01
2020-08-12 19:57:55.0540,-0.75,-0.43,0.02
2020-08-12 19:57:55.1530,-0.46,-0.09,0.18
2020-08-12 19:57:55.2520,-0.65,-0.03,-0.14
2020-08-12 19:57:55.3520,0.08,-0.5,-0.05
2020-08-12 19:57:55.4500,0.57,-0.31,0.08
2020-08-12 19:57:55.5500,1.26,-0.03,0.08
2020-08-12 19:57:55.6490,-1.04,-0.06,-0.24
2020-08-12 19:57:55.7480,0.61,-0.17,0.06
2020-08-12 19:57:55.8480,0.01,0.03,-0.08
2020-08-12 19:57:55.9470,-0.01,0.02,0.02
2020-08-12 19:57:56.0450,-0.04,0.03,-0.01
2020-08-12 19:57:56.1460,0.07,-0.07,-0.06
2020-08-12 19:57:56.2450,0.0,-0.02,-0.03
2020-08-12 19:57:56.3430,-0.01,0.0,-0.01
2020-08-12 19:57:56.4430,-0.05,-0.01,0.03
2020-08-12 19:57:56.5430,0.03,-0.0,-0.05
2020-08-12 19:57:56.6420,0.0,-0.01,-0.0
2020-08-12 19:57:56.7410,-0.03,-0.02,-0.01
2020-08-12 19:57:56.8390,-0.17,-0.21,0.02
2020-08-12 19:57:56.9390,-0.58,-0.51,0.07
2020-08-12 19:57:57.0380,-0.79,-0.08,0.22
2020-08-12 19:57:57.1370,-0.7,0.03,-0.08
2020-08-12 19:57:57.2360,0.01,-0.47,-0.07
2020-08-12 19:57:57.3370,0.57,-0.21,0.33
2020-08-12 19:57:57.4360,0.88,-0.16,0.22
2020-08-12 19:57:57.5340,0.54,-0.75,-0.62
2020-08-12 19:57:57.6330,0.85,-0.08,0.03
2020-08-12 19:57:57.7340,0.0,0.02,-0.11
2020-08-12 19:57:57.8320,-0.05,0.05,0.02
2020-08-12 19:57:57.9320,0.04,-0.01,-0.02
2020-08-12 19:57:58.0320,-0.02,0.0,-0.01
2020-08-12 19:57:58.1310,-0.02,-0.01,-0.01
2020-08-12 19:57:58.2290,0.01,-0.0,-0.04
2020-08-12 19:57:58.3290,-0.04,0.0,0.03
2020-08-12 19:57:58.4280,-0.02,-0.01,-0.01
2020-08-12 19:57:58.5270,-0.03,-0.01,0.01
2020-08-12 19:57:58.6260,-0.05,-0.02,0.03
2020-08-12 19:57:58.7260,-0.17,-0.36,-0.04
2020-08-12 19:57:58.8250,-0.53,-0.28,0.15
2020-08-12 19:57:58.9240,-1.21,0.3,0.0
2020-08-12 19:57:59.0230,-0.67,-0.04,-0.04
2020-08-12 19:57:59.1230,-0.06,-0.41,-0.1
2020-08-12 19:57:59.2220,0.45,-0.29,0.16
2020-08-12 19:57:59.3210,0.95,-0.08,0.2
2020-08-12 19:57:59.4210,0.12,-0.58,-0.57
2020-08-12 19:57:59.5200,0.81,-0.34,-0.19
2020-08-12 19:57:59.6190,-0.04,0.05,-0.1
2020-08-12 19:57:59.7190,-0.03,0.02,-0.01
2020-08-12 19:57:59.8180,0.04,-0.01,-0.02
2020-08-12 19:57:59.9170,0.02,-0.02,-0.02
2020-08-12 19:58:00.0170,-0.02,0.03,0.03
2020-08-12 19:58:00.1160,0.0,-0.01,0.0
2020-08-12 19:58:00.2150,-0.02,0.01,-0.03
2020-08-12 19:58:00.3130,-0.09,0.02,-0.01
2020-08-12 19:58:00.4130,-0.0,-0.01,-0.01
2020-08-12 19:58:00.5120,0.03,-0.01,-0.01
2020-08-12 19:58:00.6120,-0.01,-0.06,-0.03
2020-08-12 19:58:00.7100,-0.23,-0.26,-0.02
2020-08-12 19:58:00.8100,-0.49,-0.41,0.24
2020-08-12 19:58:00.9100,-1.86,0.53,-0.31
2020-08-12 19:58:01.0080,-0.62,-0.17,-0.13
2020-08-12 19:58:01.1080,0.33,-0.56,-0.04
2020-08-12 19:58:01.2070,0.89,-0.18,0.18
2020-08-12 19:58:01.3070,1.36,0.01,0.22
2020-08-12 19:58:01.4060,0.07,-0.08,-0.25
2020-08-12 19:58:01.5050,0.17,-0.07,-0.01
2020-08-12 19:58:01.6040,0.09,0.01,0.05
2020-08-12 19:58:01.7030,0.04,-0.01,-0.02
2020-08-12 19:58:01.8030,-0.01,0.01,0.02
2020-08-12 19:58:01.9020,0.01,-0.01,0.01
2020-08-12 19:58:02.0010,0.01,0.01,-0.01
2020-08-12 19:58:02.1010,-0.06,0.02,0.01
2020-08-12 19:58:02.2000,-0.02,0.01,-0.01
2020-08-12 19:58:02.2990,0.01,-0.01,-0.02
2020-08-12 19:58:02.3990,-0.01,-0.02,-0.0
2020-08-12 19:58:02.4980,-0.03,-0.02,-0.01
2020-08-12 19:58:02.5960,-0.2,-0.28,0.01
2020-08-12 19:58:02.6960,-0.68,-0.35,0.2
2020-08-12 19:58:02.7960,-0.75,-0.03,0.21
2020-08-12 19:58:02.8940,-0.75,-0.0,-0.13
2020-08-12 19:58:02.9940,-0.02,-0.42,-0.1
2020-08-12 19:58:03.0930,0.46,-0.3,0.07
2020-08-12 19:58:03.1920,1.03,-0.07,0.18
2020-08-12 19:58:03.2920,0.13,-0.93,-0.62
2020-08-12 19:58:03.3910,0.77,-0.19,0.05
2020-08-12 19:58:03.4890,-0.09,-0.04,-0.07
2020-08-12 19:58:03.5900,-0.14,-0.0,0.04
2020-08-12 19:58:03.6890,-0.02,0.02,0.01
2020-08-12 19:58:03.7880,0.01,0.01,-0.03
2020-08-12 19:58:03.8860,0.01,0.01,-0.0
2020-08-12 19:58:03.9870,-0.01,-0.01,0.0
2020-08-12 19:58:04.0860,-0.02,0.0,0.0
2020-08-12 19:58:04.1850,-0.02,0.0,-0.0
2020-08-12 19:58:04.2840,-0.03,-0.0,-0.0
2020-08-12 19:58:04.3840,-0.01,-0.03,-0.02
2020-08-12 19:58:04.4830,-0.0,-0.01,-0.02
2020-08-12 19:58:04.5810,-0.11,-0.17,-0.04
2020-08-12 19:58:04.6810,-0.49,-0.29,-0.0
2020-08-12 19:58:04.7810,0.04,-0.42,0.3
2020-08-12 19:58:04.8800,-1.3,0.23,0.14
2020-08-12 19:58:04.9790,-0.43,-0.29,-0.08
2020-08-12 19:58:05.0780,0.36,-0.42,0.08
2020-08-12 19:58:05.1770,0.77,-0.12,0.21
2020-08-12 19:58:05.2770,1.09,-0.03,0.3
2020-08-12 19:58:05.3760,0.22,-0.23,-0.12
2020-08-12 19:58:05.4750,0.31,-0.17,-0.01
2020-08-12 19:58:05.5750,0.02,-0.0,0.09
2020-08-12 19:58:05.6730,0.12,-0.0,-0.06
2020-08-12 19:58:05.7730,0.03,-0.01,0.0
2020-08-12 19:58:05.8730,0.02,-0.0,0.01
2020-08-12 19:58:05.9720,-0.0,0.01,0.0
2020-08-12 19:58:06.0700,-0.02,-0.01,0.02
2020-08-12 19:58:06.1700,-0.04,0.01,-0.01
2020-08-12 19:58:06.2690,0.0,0.01,-0.01
2020-08-12 19:58:06.3690,-0.01,0.01,-0.04
2020-08-12 19:58:06.4670,-0.05,-0.03,-0.01
2020-08-12 19:58:06.5670,-0.27,-0.34,-0.03
2020-08-12 19:58:06.6670,-0.36,-0.24,0.43
2020-08-12 19:58:06.7650,-0.97,0.26,-0.08
2020-08-12 19:58:06.8650,-0.34,-0.26,-0.18
2020-08-12 19:58:06.9630,0.16,-0.39,0.09
2020-08-12 19:58:07.0630,0.53,-0.11,0.14
2020-08-12 19:58:07.1630,0.91,0.02,0.1
2020-08-12 19:58:07.2620,-0.6,-0.55,-0.72
2020-08-12 19:58:07.3610,0.9,-0.4,0.42
2020-08-12 19:58:07.4600,-0.13,0.03,-0.1
2020-08-12 19:58:07.5590,0.05,-0.03,0.0
2020-08-12 19:58:07.6590,-0.01,0.0,-0.0
2020-08-12 19:58:07.7570,0.02,0.01,-0.02
2020-08-12 19:58:07.8570,-0.0,0.02,0.02
2020-08-12 19:58:07.9550,-0.03,0.03,0.01
2020-08-12 19:58:08.0540,-0.02,-0.0,-0.03
2020-08-12 19:58:08.1540,-0.05,-0.0,0.01
2020-08-12 19:58:08.2550,-0.02,0.0,0.0
2020-08-12 19:58:08.3530,-0.03,0.01,0.01
2020-08-12 19:58:08.4520,-0.05,-0.01,-0.02
2020-08-12 19:58:08.5520,-0.14,-0.2,-0.04
2020-08-12 19:58:08.6520,-0.6,-0.47,-0.17
2020-08-12 19:58:08.7510,-0.42,0.07,0.16
2020-08-12 19:58:08.8500,-0.64,0.05,-0.13
2020-08-12 19:58:08.9480,-0.05,-0.44,-0.08
2020-08-12 19:58:09.0480,0.7,-0.48,0.12
2020-08-12 19:58:09.1470,1.16,-0.1,0.16
2020-08-12 19:58:09.2470,0.53,-0.15,0.03
2020-08-12 19:58:09.3460,0.78,-0.04,-0.17
2020-08-12 19:58:09.4460,0.06,0.04,-0.12
2020-08-12 19:58:09.5450,0.08,-0.03,-0.03
2020-08-12 19:58:09.6440,-0.04,0.02,-0.01
2020-08-12 19:58:09.7420,-0.02,0.0,0.0
2020-08-12 19:58:09.8430,-0.01,0.01,0.0
2020-08-12 19:58:09.9420,-0.05,0.01,0.02
2020-08-12 19:58:10.0410,-0.04,0.01,0.01
2020-08-12 19:58:10.1400,-0.01,0.0,-0.01
2020-08-12 19:58:10.2400,-0.04,-0.01,0.01
2020-08-12 19:58:10.3390,-0.05,-0.04,0.0
2020-08-12 19:58:10.4370,-0.23,-0.42,0.01
2020-08-12 19:58:10.5370,-0.65,-0.24,0.14
2020-08-12 19:58:10.6370,-1.02,0.19,0.32
2020-08-12 19:58:10.7360,-0.7,0.01,0.02
2020-08-12 19:58:10.8340,0.07,-0.52,-0.04
2020-08-12 19:58:10.9340,0.49,-0.34,0.03
2020-08-12 19:58:11.0340,1.07,-0.12,0.13
2020-08-12 19:58:11.1340,-0.09,-0.87,-0.39
2020-08-12 19:58:11.2310,0.45,-0.05,-0.05
2020-08-12 19:58:11.3300,0.14,0.0,-0.26
2020-08-12 19:58:11.4310,0.05,-0.0,-0.01
2020-08-12 19:58:11.5290,-0.08,0.04,0.06
2020-08-12 19:58:11.6290,-0.03,0.01,-0.01
2020-08-12 19:58:11.7280,0.13,-0.05,-0.09
2020-08-12 19:58:11.8280,0.06,-0.01,-0.01
2020-08-12 19:58:11.9270,-0.02,0.01,-0.03
2020-08-12 19:58:12.0250,-0.02,0.0,-0.03
2020-08-12 19:58:12.1260,-0.0,0.01,-0.01
2020-08-12 19:58:12.2250,-0.01,-0.0,-0.01
2020-08-12 19:58:12.3240,-0.01,-0.0,-0.01
2020-08-12 19:58:12.4230,-0.12,-0.08,0.05
2020-08-12 19:58:12.5220,-0.61,-0.83,-0.08
2020-08-12 19:58:12.6220,-0.01,-0.23,0.28
2020-08-12 19:58:12.7210,-0.84,0.15,-0.06
2020-08-12 19:58:12.8200,-0.08,-0.38,-0.12
2020-08-12 19:58:12.9190,0.41,-0.36,0.05
2020-08-12 19:58:13.0180,1.0,-0.09,0.14
2020-08-12 19:58:13.1180,0.93,-0.24,0.11
2020-08-12 19:58:13.2160,0.8,-0.08,-0.28
2020-08-12 19:58:13.3170,0.35,-0.0,-0.12
2020-08-12 19:58:13.4160,0.2,-0.01,-0.01
2020-08-12 19:58:13.5140,0.06,-0.01,-0.03
2020-08-12 19:58:13.6140,-0.04,-0.0,0.03
2020-08-12 19:58:13.7130,-0.01,0.01,0.0
2020-08-12 19:58:13.8130,-0.01,-0.01,0.01
2020-08-12 19:58:13.9120,-0.02,-0.0,-0.0
2020-08-12 19:58:14.0110,-0.05,-0.0,0.02
2020-08-12 19:58:14.1100,-0.02,-0.0,0.0
2020-08-12 19:58:14.2100,-0.02,0.0,0.01
2020-08-12 19:58:14.3090,-0.04,-0.03,0.0
2020-08-12 19:58:14.4080,-0.25,-0.6,0.03
2020-08-12 19:58:14.5080,-0.57,-0.11,0.2
2020-08-12 19:58:14.6060,-1.56,0.45,0.16
2020-08-12 19:58:14.7060,-0.52,-0.19,-0.05
2020-08-12 19:58:14.8050,0.1,-0.48,0.01
2020-08-12 19:58:14.9050,0.68,-0.23,0.19
2020-08-12 19:58:15.0030,1.03,-0.07,0.12
2020-08-12 19:58:15.1030,-1.42,0.11,0.22
2020-08-12 19:58:15.2030,0.09,-0.11,0.71
2020-08-12 19:58:15.3010,-0.21,0.01,-0.03
2020-08-12 19:58:15.4010,-0.06,0.01,-0.01
2020-08-12 19:58:15.4990,-0.06,0.01,0.03
2020-08-12 19:58:15.5990,-0.04,0.02,0.01
2020-08-12 19:58:15.6990,0.01,-0.0,0.01
2020-08-12 19:58:15.7970,0.03,-0.0,-0.0
2020-08-12 19:58:15.8970,-0.01,0.0,-0.01
2020-08-12 19:58:15.9960,-0.03,-0.0,0.0
2020-08-12 19:58:16.0960,-0.03,-0.01,-0.0
2020-08-12 19:58:16.1940,-0.04,-0.01,0.0
2020-08-12 19:58:16.2930,-0.18,-0.34,0.01
2020-08-12 19:58:16.3930,-0.77,-0.29,0.08
2020-08-12 19:58:16.4930,-0.8,0.06,0.16
2020-08-12 19:58:16.5910,-0.78,0.02,-0.03
2020-08-12 19:58:16.6910,-0.12,-0.42,-0.0
2020-08-12 19:58:16.7900,0.46,-0.4,0.03
2020-08-12 19:58:16.8900,1.11,-0.18,0.14
2020-08-12 19:58:16.9890,0.45,-0.7,-0.64
2020-08-12 19:58:17.0870,0.76,-0.11,0.08
2020-08-12 19:58:17.1870,-0.19,-0.03,-0.1
2020-08-12 19:58:17.2870,-0.12,0.04,0.04
2020-08-12 19:58:17.3850,-0.06,0.01,-0.02
2020-08-12 19:58:17.4850,-0.02,-0.01,-0.01
2020-08-12 19:58:17.5840,0.0,0.0,0.02
2020-08-12 19:58:17.6840,0.02,0.0,0.01
2020-08-12 19:58:17.7830,-0.04,0.01,0.03
2020-08-12 19:58:17.8820,-0.04,-0.01,0.0
2020-08-12 19:58:17.9800,-0.02,-0.02,-0.0
2020-08-12 19:58:18.0810,-0.03,-0.01,-0.01
2020-08-12 19:58:18.1790,-0.1,-0.08,-0.02
2020-08-12 19:58:18.2790,-0.49,-0.37,-0.07
2020-08-12 19:58:18.3790,0.11,-0.45,0.3
2020-08-12 19:58:18.4780,-1.15,0.19,-0.02
2020-08-12 19:58:18.5770,-0.18,-0.38,-0.17
2020-08-12 19:58:18.6760,0.46,-0.37,0.06
2020-08-12 19:58:18.7750,0.96,-0.02,0.22
2020-08-12 19:58:18.8750,1.01,-0.51,-0.05
2020-08-12 19:58:18.9730,0.54,0.04,0.1
2020-08-12 19:58:19.0730,-0.01,-0.0,-0.16
2020-08-12 19:58:19.1730,-0.1,0.04,0.04
2020-08-12 19:58:19.2720,-0.05,0.02,-0.0
2020-08-12 19:58:19.3710,0.01,-0.0,0.0
2020-08-12 19:58:19.4700,0.06,-0.01,-0.03
2020-08-12 19:58:19.5690,-0.08,0.01,0.05
2020-08-12 19:58:19.6690,-0.01,-0.01,-0.03
2020-08-12 19:58:19.7670,-0.03,-0.0,-0.04
2020-08-12 19:58:19.8670,-0.05,-0.01,0.0
2020-08-12 19:58:19.9670,0.0,-0.01,-0.0
2020-08-12 19:58:20.0660,-0.06,-0.06,0.0
2020-08-12 19:58:20.1650,-0.28,-0.47,0.05
2020-08-12 19:58:20.2640,-1.0,-0.4,0.27
2020-08-12 19:58:20.3630,-1.01,0.3,0.04
2020-08-12 19:58:20.4620,-0.46,-0.08,-0.1
2020-08-12 19:58:20.5620,0.35,-0.71,-0.02
2020-08-12 19:58:20.6600,0.67,-0.31,0.12
2020-08-12 19:58:20.7610,1.37,-0.05,0.23
2020-08-12 19:58:20.8590,-0.73,-0.87,0.19
2020-08-12 19:58:20.9590,0.2,-0.22,0.28
2020-08-12 19:58:21.0580,-0.09,0.04,0.12
2020-08-12 19:58:21.1570,0.01,-0.0,-0.03
2020-08-12 19:58:21.2560,-0.02,-0.0,0.04
2020-08-12 19:58:21.3560,0.02,-0.0,-0.03
2020-08-12 19:58:21.4550,0.0,-0.0,-0.02
2020-08-12 19:58:21.5540,-0.01,0.0,-0.02
2020-08-12 19:58:21.6530,-0.0,0.01,-0.02
2020-08-12 19:58:21.7530,0.02,0.0,-0.05
2020-08-12 19:58:21.8520,-0.01,0.01,-0.01
2020-08-12 19:58:21.9510,-0.06,-0.01,0.02
2020-08-12 19:58:22.0500,-0.19,-0.23,-0.09
2020-08-12 19:58:22.1490,-0.63,-0.36,0.24
2020-08-12 19:58:22.2480,-1.55,0.31,-0.13
2020-08-12 19:58:22.3490,-0.68,-0.05,-0.05
2020-08-12 19:58:22.4470,0.1,-0.46,-0.03
2020-08-12 19:58:22.5460,0.82,-0.35,0.11
2020-08-12 19:58:22.6460,1.1,-0.04,0.12
2020-08-12 19:58:22.7460,-1.24,0.26,-0.04
2020-08-12 19:58:22.8450,0.23,-0.02,0.25
2020-08-12 19:58:22.9440,-0.0,0.01,-0.16
2020-08-12 19:58:23.0430,0.05,-0.03,0.03
2020-08-12 19:58:23.1420,-0.02,0.02,0.01
2020-08-12 19:58:23.2410,0.05,-0.01,-0.01
2020-08-12 19:58:23.3400,-0.0,0.01,0.02
2020-08-12 19:58:23.4400,-0.06,0.02,0.05
2020-08-12 19:58:23.5400,-0.03,0.01,-0.0
2020-08-12 19:58:23.6380,-0.06,0.03,0.03
2020-08-12 19:58:23.7380,-0.1,0.02,0.01
2020-08-12 19:58:23.8370,-0.09,0.03,0.01
2020-08-12 19:58:23.9360,-0.03,-0.03,0.04
2020-08-12 19:58:24.0360,0.02,-0.06,-0.03
2020-08-12 19:58:24.1350,-0.29,-0.43,0.03
2020-08-12 19:58:24.2340,-0.27,-0.38,0.43
2020-08-12 19:58:24.3340,-1.26,0.29,0.04
2020-08-12 19:58:24.4320,-0.29,-0.36,-0.15
2020-08-12 19:58:24.5310,0.39,-0.29,0.08
2020-08-12 19:58:24.6320,0.84,-0.17,0.23
2020-08-12 19:58:24.7310,1.02,-0.03,0.26
2020-08-12 19:58:24.8300,0.27,-0.45,-0.1
2020-08-12 19:58:24.9290,-0.15,-0.01,0.23
2020-08-12 19:58:25.0290,0.03,-0.01,0.05
2020-08-12 19:58:25.1270,0.03,-0.02,-0.02
2020-08-12 19:58:25.2260,-0.01,0.02,0.0
2020-08-12 19:58:25.3260,-0.01,-0.01,0.0
2020-08-12 19:58:25.4250,-0.01,0.01,-0.0
2020-08-12 19:58:25.5240,-0.06,-0.01,-0.01
2020-08-12 19:58:25.6230,-0.03,-0.01,0.01
2020-08-12 19:58:25.7220,-0.06,0.01,0.02
2020-08-12 19:58:25.8220,-0.06,-0.01,0.0
2020-08-12 19:58:25.9210,-0.07,-0.01,0.01
2020-08-12 19:58:26.0210,-0.08,-0.03,-0.07
2020-08-12 19:58:26.1190,-0.51,-0.58,-0.05
2020-08-12 19:58:26.2190,0.07,-0.47,0.22
2020-08-12 19:58:26.3190,-1.32,0.19,-0.03
2020-08-12 19:58:26.4170,-0.24,-0.46,-0.17
2020-08-12 19:58:26.5170,0.7,-0.43,0.02
2020-08-12 19:58:26.6160,1.29,-0.12,0.12
2020-08-12 19:58:26.7150,-0.26,-0.66,-0.66
2020-08-12 19:58:26.8140,0.91,-0.15,0.05
2020-08-12 19:58:26.9130,0.06,-0.0,-0.24
2020-08-12 19:58:27.0130,0.08,0.01,0.01
2020-08-12 19:58:27.1120,-0.02,0.01,0.02
2020-08-12 19:58:27.2110,0.01,-0.01,-0.02
2020-08-12 19:58:27.3100,-0.06,0.0,0.03
2020-08-12 19:58:27.4110,0.01,-0.01,0.02
2020-08-12 19:58:27.5100,-0.01,0.01,-0.01
2020-08-12 19:58:27.6090,0.01,-0.01,-0.01
2020-08-12 19:58:27.7070,-0.02,0.02,-0.0
2020-08-12 19:58:27.8070,-0.03,-0.02,-0.02
2020-08-12 19:58:27.9070,-0.07,-0.08,-0.05
2020-08-12 19:58:28.0050,-0.34,-0.3,0.03
2020-08-12 19:58:28.1050,-0.54,-0.3,0.23
2020-08-12 19:58:28.2050,-1.73,0.6,-0.03
2020-08-12 19:58:28.3030,-0.54,-0.13,-0.03
2020-08-12 19:58:28.4020,0.34,-0.55,0.12
2020-08-12 19:58:28.5020,0.77,-0.37,0.13
2020-08-12 19:58:28.6010,1.24,-0.01,0.18
2020-08-12 19:58:28.7010,-1.2,-0.7,0.13
2020-08-12 19:58:28.8000,-0.01,-0.01,0.32
2020-08-12 19:58:28.9000,-0.01,0.0,0.03
2020-08-12 19:58:28.9980,0.08,-0.02,-0.07
2020-08-12 19:58:29.0970,0.01,0.01,0.0
2020-08-12 19:58:29.1960,-0.08,-0.01,0.06
2020-08-12 19:58:29.2960,-0.06,-0.0,0.0
2020-08-12 19:58:29.3950,-0.0,0.02,0.01
2020-08-12 19:58:29.4950,-0.03,-0.02,-0.02
2020-08-12 19:58:29.5930,-0.02,-0.01,-0.01
2020-08-12 19:58:29.6920,0.01,0.0,-0.02
2020-08-12 19:58:29.7930,-0.01,-0.05,0.02
2020-08-12 19:58:29.8910,-0.15,-0.14,0.03
2020-08-12 19:58:29.9900,-0.52,-0.32,-0.02
2020-08-12 19:58:30.0900,0.01,-0.51,0.3
2020-08-12 19:58:30.1890,-0.97,0.06,-0.04
2020-08-12 19:58:30.2890,-0.06,-0.52,-0.09
2020-08-12 19:58:30.3870,0.75,-0.61,0.02
2020-08-12 19:58:30.4870,1.16,-0.14,0.17
2020-08-12 19:58:30.5860,0.52,-0.15,0.01
2020-08-12 19:58:30.6850,0.71,0.1,-0.28
2020-08-12 19:58:30.7850,-0.17,-0.06,-0.1
2020-08-12 19:58:30.8850,-0.13,0.06,0.05
2020-08-12 19:58:30.9840,-0.03,-0.0,-0.01
2020-08-12 19:58:31.0820,0.0,0.02,-0.05
2020-08-12 19:58:31.1820,-0.01,-0.0,-0.02
2020-08-12 19:58:31.2810,-0.01,0.02,-0.0
2020-08-12 19:58:31.3810,0.03,-0.02,-0.06
2020-08-12 19:58:31.4800,-0.02,-0.01,-0.01
2020-08-12 19:58:31.5780,-0.01,-0.03,-0.02
2020-08-12 19:58:31.6780,-0.08,-0.02,0.03
2020-08-12 19:58:31.7780,-0.11,-0.05,0.02
2020-08-12 19:58:31.8760,-0.37,-0.31,0.02
2020-08-12 19:58:31.9760,-0.26,-0.38,0.13
2020-08-12 19:58:32.0750,-1.71,0.59,-0.06
2020-08-12 19:58:32.1740,-0.59,-0.16,-0.12
2020-08-12 19:58:32.2740,0.14,-0.31,-0.02
2020-08-12 19:58:32.3730,0.54,-0.29,0.09
2020-08-12 19:58:32.4720,1.04,-0.03,0.2
2020-08-12 19:58:32.5710,-1.14,0.05,-0.36
2020-08-12 19:58:32.6710,0.28,0.03,0.46
2020-08-12 19:58:32.7700,-0.25,0.01,-0.03
2020-08-12 19:58:32.8700,-0.17,0.02,0.05
2020-08-12 19:58:32.9680,-0.08,0.05,0.04
2020-08-12 19:58:33.0670,-0.05,0.02,0.01
2020-08-12 19:58:33.1670,-0.05,0.02,-0.02
2020-08-12 19:58:33.2660,-0.03,-0.0,0.05
2020-08-12 19:58:33.3660,-0.02,-0.01,-0.03
2020-08-12 19:58:33.4650,-0.03,-0.0,-0.02
2020-08-12 19:58:33.5640,-0.05,-0.0,-0.0
2020-08-12 19:58:33.6630,-0.02,-0.02,-0.01
2020-08-12 19:58:33.7620,-0.21,-0.23,-0.06
2020-08-12 19:58:33.8620,-0.79,-0.46,0.2
2020-08-12 19:58:33.9610,-1.12,0.14,0.09
2020-08-12 19:58:34.0610,-0.72,-0.07,-0.08
2020-08-12 19:58:34.1590,0.14,-0.54,0.01
2020-08-12 19:58:34.2580,0.56,-0.35,0.11
2020-08-12 19:58:34.3570,1.17,-0.13,0.21
2020-08-12 19:58:34.4570,-0.4,-0.45,-0.57
2020-08-12 19:58:34.5570,0.85,-0.13,-0.12
2020-08-12 19:58:34.6550,0.07,-0.01,-0.13
2020-08-12 19:58:34.7550,-0.0,0.01,-0.01
2020-08-12 19:58:34.8550,-0.01,-0.0,-0.01
2020-08-12 19:58:34.9530,0.02,-0.02,-0.03
2020-08-12 19:58:35.0530,0.01,-0.01,0.01
2020-08-12 19:58:35.1520,-0.02,0.01,0.03
2020-08-12 19:58:35.2510,0.04,-0.02,-0.07
2020-08-12 19:58:35.3500,0.03,0.0,-0.03
2020-08-12 19:58:35.4500,-0.07,-0.03,0.05
2020-08-12 19:58:35.5500,-0.04,-0.04,-0.02
2020-08-12 19:58:35.6480,-0.04,-0.04,-0.03
2020-08-12 19:58:35.7480,-0.42,-0.52,-0.01
2020-08-12 19:58:35.8460,-0.26,-0.14,0.12
2020-08-12 19:58:35.9450,-1.53,0.61,0.25
2020-08-12 19:58:36.0450,-0.55,-0.12,-0.04
2020-08-12 19:58:36.1440,0.29,-0.6,0.07
2020-08-12 19:58:36.2430,1.01,-0.35,0.32
2020-08-12 19:58:36.3420,1.3,0.07,0.27
2020-08-12 19:58:36.4430,0.64,0.01,-0.12
2020-08-12 19:58:36.5420,0.42,-0.04,-0.1
2020-08-12 19:58:36.6400,0.15,-0.01,0.1
2020-08-12 19:58:36.7400,-0.0,0.0,-0.03
2020-08-12 19:58:36.8390,-0.01,0.0,-0.02
2020-08-12 19:58:36.9380,-0.04,0.01,0.03
2020-08-12 19:58:37.0370,0.01,-0.02,0.01
2020-08-12 19:58:37.1370,-0.02,0.04,0.1
2020-08-12 19:58:37.2370,-0.13,0.01,0.01
2020-08-12 19:58:37.3360,-0.1,-0.02,-0.06
2020-08-12 19:58:37.4340,-0.06,-0.01,-0.02
2020-08-12 19:58:37.5340,-0.01,-0.03,-0.05
2020-08-12 19:58:37.6340,-0.02,-0.03,0.01
2020-08-12 19:58:37.7320,-0.28,-0.29,-0.06
2020-08-12 19:58:37.8320,-0.72,-0.42,0.22
2020-08-12 19:58:37.9310,-1.55,0.28,-0.01
2020-08-12 19:58:38.0300,-0.58,-0.12,-0.23
2020-08-12 19:58:38.1290,0.37,-0.6,0.12
2020-08-12 19:58:38.2280,0.74,-0.34,0.21
2020-08-12 19:58:38.3270,1.16,0.04,0.33
2020-08-12 19:58:38.4280,-1.66,0.04,0.25
2020-08-12 19:58:38.5270,0.44,-0.3,0.3
2020-08-12 19:58:38.6250,0.13,0.01,0.02
2020-08-12 19:58:38.7250,-0.01,0.01,0.03
2020-08-12 19:58:38.8240,0.01,0.04,0.03
2020-08-12 19:58:38.9240,-0.09,-0.02,0.02
2020-08-12 19:58:39.0220,-0.08,-0.0,-0.03
2020-08-12 19:58:39.1220,-0.07,0.0,0.01
2020-08-12 19:58:39.2210,-0.02,-0.01,0.02
2020-08-12 19:58:39.3210,-0.02,-0.03,0.01
2020-08-12 19:58:39.4190,-0.02,0.01,-0.01
2020-08-12 19:58:39.5190,-0.07,-0.01,-0.0
2020-08-12 19:58:39.6180,-0.05,0.01,-0.03
2020-08-12 19:58:39.7180,-0.14,-0.19,-0.07
2020-08-12 19:58:39.8170,-0.77,-0.5,0.25
2020-08-12 19:58:39.9160,-1.52,0.42,-0.25
2020-08-12 19:58:40.0160,-0.72,-0.12,-0.04
2020-08-12 19:58:40.1140,0.22,-0.55,0.03
2020-08-12 19:58:40.2130,0.49,-0.3,0.05
2020-08-12 19:58:40.3130,1.13,-0.05,0.26
2020-08-12 19:58:40.4120,-0.51,-0.71,-1.03
2020-08-12 19:58:40.5120,0.73,-0.15,0.33
2020-08-12 19:58:40.6100,0.05,-0.05,-0.03
2020-08-12 19:58:40.7100,-0.01,-0.01,0.01
2020-08-12 19:58:40.8090,-0.03,0.01,0.02
2020-08-12 19:58:40.9090,0.0,0.01,0.0
2020-08-12 19:58:41.0070,-0.02,0.02,-0.05
2020-08-12 19:58:41.1070,-0.1,0.02,-0.02
2020-08-12 19:58:41.2070,-0.06,0.02,0.05
2020-08-12 19:58:41.3060,-0.03,0.0,0.0
2020-08-12 19:58:41.4050,-0.03,-0.02,-0.01
2020-08-12 19:58:41.5040,-0.05,-0.0,-0.02
2020-08-12 19:58:41.6030,-0.03,-0.02,-0.04
2020-08-12 19:58:41.7020,-0.19,-0.15,-0.08
2020-08-12 19:58:41.8020,-0.73,-0.47,0.06
2020-08-12 19:58:41.9020,-0.3,-0.11,-0.04
2020-08-12 19:58:42.0000,-0.67,0.08,-0.02
2020-08-12 19:58:42.0990,-0.07,-0.47,-0.14
2020-08-12 19:58:42.1990,0.64,-0.45,0.14
2020-08-12 19:58:42.2990,0.93,-0.1,0.05
2020-08-12 19:58:42.3980,-0.06,-0.89,-0.35
2020-08-12 19:58:42.4960,0.7,-0.09,-0.08
2020-08-12 19:58:42.5950,-0.16,0.06,-0.07
2020-08-12 19:58:42.6960,-0.04,0.01,0.05
2020-08-12 19:58:42.7950,-0.1,0.07,0.1
2020-08-12 19:58:42.8940,-0.06,0.02,-0.04
2020-08-12 19:58:42.9920,-0.01,-0.0,-0.04
2020-08-12 19:58:43.0920,-0.0,0.01,0.02
2020-08-12 19:58:43.1910,-0.03,0.0,0.01
2020-08-12 19:58:43.2900,0.01,-0.0,-0.04
2020-08-12 19:58:43.3900,-0.0,-0.01,-0.01
2020-08-12 19:58:43.4890,-0.06,-0.02,-0.02
2020-08-12 19:58:43.5880,-0.27,-0.61,-0.01
2020-08-12 19:58:43.6870,-0.35,-0.13,0.15
2020-08-12 19:58:43.7860,-1.19,0.43,0.17
2020-08-12 19:58:43.8860,-0.41,-0.19,-0.13
2020-08-12 19:58:43.9850,0.19,-0.44,-0.03
2020-08-12 19:58:44.0840,0.79,-0.22,0.17
2020-08-12 19:58:44.1840,0.96,0.02,0.04
2020-08-12 19:58:44.2830,-1.54,0.09,0.04
2020-08-12 19:58:44.3830,0.19,-0.14,0.35
2020-08-12 19:58:44.4810,-0.14,-0.01,-0.02
2020-08-12 19:58:44.5800,-0.05,0.02,-0.03
2020-08-12 19:58:44.6800,-0.02,0.01,0.02
2020-08-12 19:58:44.7790,-0.04,-0.0,0.01
2020-08-12 19:58:44.8790,0.01,0.01,-0.02
2020-08-12 19:58:44.9780,-0.01,0.01,-0.01
2020-08-12 19:58:45.0770,-0.06,-0.01,0.04
2020-08-12 19:58:45.1770,-0.01,-0.01,-0.01
2020-08-12 19:58:45.2750,-0.05,-0.02,-0.01
2020-08-12 19:58:45.3750,-0.08,-0.01,0.01
2020-08-12 19:58:45.4740,-0.15,-0.15,-0.04
2020-08-12 19:58:45.5730,-0.64,-0.52,0.03
2020-08-12 19:58:45.6720,0.23,-0.47,0.18
2020-08-12 19:58:45.7720,-1.13,0.23,0.03
2020-08-12 19:58:45.8710,-0.22,-0.37,-0.17
2020-08-12 19:58:45.9700,0.42,-0.4,0.19
2020-08-12 19:58:46.0690,1.04,-0.08,0.17
2020-08-12 19:58:46.1680,0.78,-0.29,-0.06
2020-08-12 19:58:46.2680,0.69,-0.23,0.01
2020-08-12 19:58:46.3670,-0.05,-0.07,-0.06
2020-08-12 19:58:46.4660,-0.11,0.04,0.03
2020-08-12 19:58:46.5670,-0.07,0.02,-0.04
2020-08-12 19:58:46.6650,-0.04,0.04,0.03
2020-08-12 19:58:46.7640,-0.02,-0.01,-0.03
2020-08-12 19:58:46.8640,-0.03,0.02,0.04
2020-08-12 19:58:46.9630,-0.02,0.01,-0.01
2020-08-12 19:58:47.0620,0.02,0.01,-0.02
2020-08-12 19:58:47.1610,-0.04,-0.01,-0.0
2020-08-12 19:58:47.2600,-0.05,-0.01,-0.01
2020-08-12 19:58:47.3600,-0.02,-0.01,-0.03
2020-08-12 19:58:47.4590,-0.21,-0.4,-0.04
2020-08-12 19:58:47.5590,-0.77,-0.43,0.25
2020-08-12 19:58:47.6570,-1.73,0.48,-0.31
2020-08-12 19:58:47.7580,-0.65,-0.19,-0.09
2020-08-12 19:58:47.8560,0.17,-0.47,-0.03
2020-08-12 19:58:47.9550,0.62,-0.17,0.04
2020-08-12 19:58:48.0540,1.17,-0.09,0.17
2020-08-12 19:58:48.1540,-1.11,-0.01,0.02
2020-08-12 19:58:48.2530,0.48,-0.15,0.2
2020-08-12 19:58:48.3520,-0.17,0.05,-0.04
2020-08-12 19:58:48.4510,-0.11,-0.0,0.04
2020-08-12 19:58:48.5510,-0.02,0.03,0.04
2020-08-12 19:58:48.6500,-0.04,-0.0,0.02
2020-08-12 19:58:48.7500,0.01,-0.02,-0.04
2020-08-12 19:58:48.8490,0.02,0.0,0.0
2020-08-12 19:58:48.9490,-0.06,-0.02,-0.01
2020-08-12 19:58:49.0470,-0.0,-0.02,-0.02
2020-08-12 19:58:49.1460,0.03,0.04,-0.05
2020-08-12 19:58:49.2450,-0.05,-0.02,-0.0
2020-08-12 19:58:49.3450,-0.09,-0.07,-0.01
2020-08-12 19:58:49.4440,-0.64,-0.47,0.12
2020-08-12 19:58:49.5430,0.01,-0.43,0.35
2020-08-12 19:58:49.6430,-0.85,0.06,-0.06
2020-08-12 19:58:49.7420,-0.02,-0.54,-0.1
2020-08-12 19:58:49.8410,0.46,-0.31,0.07
2020-08-12 19:58:49.9400,1.08,-0.14,0.19
2020-08-12 19:58:50.0400,1.02,-0.16,0.13
2020-08-12 19:58:50.1390,0.8,-0.12,-0.06
2020-08-12 19:58:50.2380,0.02,0.07,-0.24
2020-08-12 19:58:50.3370,-0.02,0.06,0.01
2020-08-12 19:58:50.4360,0.09,-0.02,-0.06
2020-08-12 19:58:50.5370,0.01,0.01,-0.02
2020-08-12 19:58:50.6360,-0.02,-0.01,0.01
2020-08-12 19:58:50.7340,0.0,0.01,0.02
2020-08-12 19:58:50.8330,-0.04,0.01,-0.01
2020-08-12 19:58:50.9330,-0.03,0.01,-0.01
2020-08-12 19:58:51.0320,-0.06,-0.01,-0.01
2020-08-12 19:58:51.1310,-0.04,-0.05,-0.02
2020-08-12 19:58:51.2310,-0.06,-0.06,-0.04
2020-08-12 19:58:51.3300,-0.21,-0.31,-0.03
2020-08-12 19:58:51.4300,-0.79,-0.37,0.23
2020-08-12 19:58:51.5290,-1.67,0.51,-0.15
2020-08-12 19:58:51.6280,-0.65,-0.15,-0.02
2020-08-12 19:58:51.7270,0.04,-0.54,-0.01
2020-08-12 19:58:51.8260,0.89,-0.46,0.19
2020-08-12 19:58:51.9250,1.43,0.02,0.27
2020-08-12 19:58:52.0240,-0.32,-0.82,0.36
2020-08-12 19:58:52.1240,0.01,-0.11,0.42
2020-08-12 19:58:52.2230,0.03,-0.01,0.01
2020-08-12 19:58:52.3230,0.03,-0.02,-0.02
2020-08-12 19:58:52.4210,-0.02,0.01,-0.03
2020-08-12 19:58:52.5210,-0.01,0.01,-0.02
2020-08-12 19:58:52.6200,-0.02,0.01,-0.0
2020-08-12 19:58:52.7190,-0.02,-0.0,-0.0
2020-08-12 19:58:52.8180,-0.02,0.0,-0.01
2020-08-12 19:58:52.9180,-0.03,-0.01,-0.0
2020-08-12 19:58:53.0170,-0.06,0.01,0.04
2020-08-12 19:58:53.1160,0.03,-0.0,-0.02
2020-08-12 19:58:53.2160,-0.02,-0.07,-0.02
2020-08-12 19:58:53.3150,-0.33,-0.34,0.0
2020-08-12 19:58:53.4140,-0.68,-0.26,0.34
2020-08-12 19:58:53.5130,-1.96,0.59,-0.07
2020-08-12 19:58:53.6130,-0.53,-0.2,-0.08
2020-08-12 19:58:53.7130,0.34,-0.51,0.03
2020-08-12 19:58:53.8120,1.04,-0.23,0.38
2020-08-12 19:58:53.9110,1.3,0.02,0.46
2020-08-12 19:58:54.0100,0.65,0.1,-0.18
2020-08-12 19:58:54.1090,0.01,0.05,-0.05
2020-08-12 19:58:54.2090,0.07,-0.0,-0.02
2020-08-12 19:58:54.3070,0.06,-0.02,-0.06
2020-08-12 19:58:54.4070,-0.01,0.0,-0.03
2020-08-12 19:58:54.5060,-0.06,-0.0,0.06
2020-08-12 19:58:54.6050,-0.04,-0.0,0.01
2020-08-12 19:58:54.7050,-0.02,-0.02,-0.01
2020-08-12 19:58:54.8030,-0.01,-0.02,0.01
2020-08-12 19:58:54.9030,-0.05,0.0,0.02
2020-08-12 19:58:55.0020,-0.03,-0.01,-0.01
2020-08-12 19:58:55.1010,-0.06,-0.1,-0.04
2020-08-12 19:58:55.2010,-0.82,-0.5,-0.04
2020-08-12 19:58:55.3010,0.26,-0.15,0.29
2020-08-12 19:58:55.4000,-0.93,0.07,-0.07
2020-08-12 19:58:55.4980,-0.04,-0.5,-0.06
2020-08-12 19:58:55.5980,0.43,-0.29,0.04
2020-08-12 19:58:55.6980,0.88,-0.14,0.19
2020-08-12 19:58:55.7960,1.11,-0.06,0.18
2020-08-12 19:58:55.8960,0.69,0.01,-0.09
2020-08-12 19:58:55.9950,-0.22,0.1,-0.12
2020-08-12 19:58:56.0950,-0.03,0.02,-0.03
2020-08-12 19:58:56.1930,-0.0,0.0,-0.01
2020-08-12 19:58:56.2930,0.02,-0.01,-0.02
2020-08-12 19:58:56.3920,-0.01,0.01,-0.0
2020-08-12 19:58:56.4920,-0.03,-0.01,0.01
2020-08-12 19:58:56.5900,-0.0,0.0,-0.01
2020-08-12 19:58:56.6890,-0.04,0.01,0.01
2020-08-12 19:58:56.7880,-0.04,-0.01,0.01
2020-08-12 19:58:56.8880,-0.05,-0.03,0.01
2020-08-12 19:58:56.9870,-0.08,-0.03,0.01
2020-08-12 19:58:57.0870,-0.05,-0.03,0.02
2020-08-12 19:58:57.1860,-0.37,-0.54,-0.03
2020-08-12 19:58:57.2850,-0.48,-0.22,0.13
2020-08-12 19:58:57.3840,-1.82,0.7,0.03
2020-08-12 19:58:57.4830,-0.5,-0.19,-0.24
2020-08-12 19:58:57.5830,0.35,-0.48,0.04
2020-08-12 19:58:57.6820,0.89,-0.2,0.24
2020-08-12 19:58:57.7810,1.31,0.03,0.36
2020-08-12 19:58:57.8810,0.42,-0.11,-0.14
2020-08-12 19:58:57.9810,-0.01,-0.01,0.12
2020-08-12 19:58:58.0790,0.02,-0.01,0.08
2020-08-12 19:58:58.1780,-0.05,0.04,0.05
2020-08-12 19:58:58.2780,0.18,-0.15,-0.04
2020-08-12 19:58:58.3780,0.04,-0.0,0.0
2020-08-12 19:58:58.4770,0.0,-0.01,-0.02
2020-08-12 19:58:58.5760,-0.02,0.01,0.01
2020-08-12 19:58:58.6740,-0.03,0.02,-0.01
2020-08-12 19:58:58.7740,-0.01,-0.02,-0.07
2020-08-12 19:58:58.8740,-0.09,-0.0,0.04
2020-08-12 19:58:58.9730,-0.09,-0.05,-0.02
2020-08-12 19:58:59.0710,-0.38,-0.39,0.01
2020-08-12 19:58:59.1710,-0.52,-0.29,0.18
2020-08-12 19:58:59.2710,-1.4,0.4,0.07
2020-08-12 19:58:59.3690,-0.55,-0.03,-0.19
2020-08-12 19:58:59.4690,0.3,-0.57,0.01
2020-08-12 19:58:59.5680,0.68,-0.41,0.16
2020-08-12 19:58:59.6670,1.14,0.02,0.23
2020-08-12 19:58:59.7660,-1.63,-0.29,-0.18
2020-08-12 19:58:59.8660,-0.12,-0.05,0.39
2020-08-12 19:58:59.9660,-0.15,0.02,-0.05
2020-08-12 19:59:00.0650,-0.06,0.01,0.0
2020-08-12 19:59:00.1630,0.05,-0.02,-0.04
2020-08-12 19:59:00.2620,0.02,0.0,0.01
2020-08-12 19:59:00.3610,-0.07,0.0,0.01
2020-08-12 19:59:00.4620,-0.05,-0.0,-0.0
2020-08-12 19:59:00.5600,-0.06,-0.01,0.01
2020-08-12 19:59:00.6600,-0.03,-0.01,-0.03
2020-08-12 19:59:00.7600,-0.09,0.0,-0.0
2020-08-12 19:59:00.8580,-0.06,0.0,0.0
2020-08-12 19:59:00.9580,-0.19,-0.17,-0.04
2020-08-12 19:59:01.0560,-0.72,-0.31,-0.01
2020-08-12 19:59:01.1570,-0.82,-0.05,0.15
2020-08-12 19:59:01.2560,-0.59,-0.01,-0.08
2020-08-12 19:59:01.3540,0.16,-0.56,0.01
2020-08-12 19:59:01.4540,0.47,-0.34,0.15
2020-08-12 19:59:01.5530,1.15,-0.09,0.14
2020-08-12 19:59:01.6530,-0.19,-0.75,-0.33
2020-08-12 19:59:01.7510,0.57,-0.13,0.09
2020-08-12 19:59:01.8510,-0.1,0.07,-0.09
2020-08-12 19:59:01.9510,-0.09,-0.01,0.06
2020-08-12 19:59:02.0500,-0.07,0.06,0.04
2020-08-12 19:59:02.1480,0.04,-0.02,-0.08
2020-08-12 19:59:02.2480,-0.02,0.0,-0.02
2020-08-12 19:59:02.3470,-0.01,0.01,-0.0
2020-08-12 19:59:02.4460,-0.01,0.02,-0.0
2020-08-12 19:59:02.5460,-0.02,0.0,0.0
2020-08-12 19:59:02.6450,0.0,-0.0,-0.0
2020-08-12 19:59:02.7450,-0.06,-0.01,0.02
2020-08-12 19:59:02.8440,-0.15,-0.11,0.08
2020-08-12 19:59:02.9430,-0.41,-0.48,-0.11
2020-08-12 19:59:03.0420,-0.07,-0.24,0.27
2020-08-12 19:59:03.1410,-0.84,0.18,-0.05
2020-08-12 19:59:03.2400,-0.24,-0.26,-0.08
2020-08-12 19:59:03.3400,0.12,-0.37,0.04
2020-08-12 19:59:03.4390,0.9,-0.17,0.17
2020-08-12 19:59:03.5390,0.91,0.05,0.07
2020-08-12 19:59:03.6380,-1.7,0.2,-0.12
2020-08-12 19:59:03.7360,0.15,-0.08,0.41
2020-08-12 19:59:03.8360,-0.16,0.04,-0.08
2020-08-12 19:59:03.9360,-0.04,-0.02,-0.03
2020-08-12 19:59:04.0340,-0.02,0.0,0.01
2020-08-12 19:59:04.1340,-0.04,0.01,-0.0
2020-08-12 19:59:04.2340,0.0,0.01,-0.01
2020-08-12 19:59:04.3330,-0.04,-0.0,0.01
2020-08-12 19:59:04.4320,-0.02,-0.0,0.02
2020-08-12 19:59:04.5310,-0.02,-0.01,0.02
2020-08-12 19:59:04.6300,0.01,0.01,-0.02
2020-08-12 19:59:04.7300,0.02,-0.0,-0.05
2020-08-12 19:59:04.8280,-0.29,-0.24,0.08
2020-08-12 19:59:04.9270,-0.35,-0.21,0.22
2020-08-12 19:59:05.0270,-1.2,0.29,-0.07
2020-08-12 19:59:05.1260,-0.56,-0.07,-0.11
2020-08-12 19:59:05.2260,-0.1,-0.3,-0.09
2020-08-12 19:59:05.3240,0.36,-0.36,-0.08
2020-08-12 19:59:05.4250,0.7,-0.18,0.16
2020-08-12 19:59:05.5230,0.7,0.04,0.15
2020-08-12 19:59:05.6230,-1.45,-0.23,0.09
2020-08-12 19:59:05.7210,-0.08,-0.05,0.32
2020-08-12 19:59:05.8210,-0.03,0.05,-0.05
2020-08-12 19:59:05.9210,-0.04,-0.01,0.01
2020-08-12 19:59:06.0190,0.01,-0.0,-0.01
2020-08-12 19:59:06.1180,-0.07,0.01,-0.02
2020-08-12 19:59:06.2190,-0.03,0.0,0.02
2020-08-12 19:59:06.3170,-0.02,-0.0,0.02
2020-08-12 19:59:06.4170,-0.02,0.01,-0.02
2020-08-12 19:59:06.5160,-0.06,0.01,0.02
2020-08-12 19:59:06.6160,-0.04,-0.02,0.0
2020-08-12 19:59:06.7150,-0.05,-0.0,0.0
2020-08-12 19:59:06.8130,-0.09,-0.04,-0.0
2020-08-12 19:59:06.9130,-0.31,-0.41,0.1
2020-08-12 19:59:07.0120,-0.6,-0.26,0.08
2020-08-12 19:59:07.1110,-1.06,0.15,0.02
2020-08-12 19:59:07.2110,-0.59,-0.02,-0.05
2020-08-12 19:59:07.3100,-0.15,-0.39,-0.05
2020-08-12 19:59:07.4090,0.46,-0.46,0.11
2020-08-12 19:59:07.5090,0.85,-0.04,0.17
2020-08-12 19:59:07.6080,0.89,-0.01,0.17
2020-08-12 19:59:07.7060,0.75,-0.26,0.01
2020-08-12 19:59:07.8060,-0.11,0.03,-0.03
2020-08-12 19:59:07.9050,-0.08,0.03,-0.03
2020-08-12 19:59:08.0050,-0.03,0.02,-0.02
2020-08-12 19:59:08.1050,-0.03,0.01,-0.01
2020-08-12 19:59:08.2030,-0.01,0.03,0.0
2020-08-12 19:59:08.3030,-0.02,0.01,0.01
2020-08-12 19:59:08.4010,0.0,0.0,-0.01
2020-08-12 19:59:08.5010,0.0,-0.0,-0.02
2020-08-12 19:59:08.6010,-0.01,-0.0,-0.0
2020-08-12 19:59:08.7000,-0.02,-0.02,-0.01
2020-08-12 19:59:08.7980,-0.05,-0.02,-0.0
2020-08-12 19:59:08.8980,-0.15,-0.16,-0.06
2020-08-12 19:59:08.9970,-0.51,-0.38,0.02
2020-08-12 19:59:09.0970,0.07,-0.5,0.14
2020-08-12 19:59:09.1950,-1.13,0.22,0.15
2020-08-12 19:59:09.2950,-0.25,-0.31,-0.13
2020-08-12 19:59:09.3940,0.23,-0.35,0.07
2020-08-12 19:59:09.4940,0.71,-0.12,0.09
2020-08-12 19:59:09.5920,1.2,0.03,0.17
2020-08-12 19:59:09.6920,-0.6,-0.57,0.18
2020-08-12 19:59:09.7920,0.2,-0.04,0.12
2020-08-12 19:59:09.8900,0.13,-0.08,0.02
2020-08-12 19:59:09.9900,-0.01,0.0,0.0
2020-08-12 19:59:10.0880,0.01,0.0,-0.0
2020-08-12 19:59:10.1890,-0.01,-0.01,-0.01
2020-08-12 19:59:10.2880,0.02,0.02,-0.01
2020-08-12 19:59:10.3870,0.01,-0.0,-0.03
2020-08-12 19:59:10.4860,-0.03,0.0,0.02
2020-08-12 19:59:10.5860,0.02,-0.01,-0.03
2020-08-12 19:59:10.6850,0.0,-0.01,-0.0
2020-08-12 19:59:10.7830,-0.1,-0.12,0.0
2020-08-12 19:59:10.8830,-0.44,-0.28,-0.02
2020-08-12 19:59:10.9830,-0.07,-0.3,0.22
2020-08-12 19:59:11.0810,-1.31,0.28,0.13
2020-08-12 19:59:11.1810,-0.26,-0.3,-0.19
2020-08-12 19:59:11.2810,0.18,-0.42,0.06
2020-08-12 19:59:11.3790,1.03,-0.15,0.22
2020-08-12 19:59:11.4790,0.74,0.09,0.14
2020-08-12 19:59:11.5780,-1.6,0.15,-0.22
2020-08-12 19:59:11.6770,0.44,-0.28,0.33
2020-08-12 19:59:11.7770,-0.1,0.06,0.05
2020-08-12 19:59:11.8760,-0.0,-0.02,-0.07
2020-08-12 19:59:11.9750,-0.06,0.01,0.04
2020-08-12 19:59:12.0740,0.01,0.04,0.05
2020-08-12 19:59:12.1740,-0.03,0.03,0.02
2020-08-12 19:59:12.2720,-0.04,0.0,-0.01
2020-08-12 19:59:12.3720,-0.03,-0.0,0.01
2020-08-12 19:59:12.4720,-0.01,0.01,-0.02
2020-08-12 19:59:12.5700,0.01,-0.02,-0.07
2020-08-12 19:59:12.6700,-0.05,-0.08,-0.03
2020-08-12 19:59:12.7690,-0.36,-0.24,-0.02
2020-08-12 19:59:12.8680,-0.22,-0.34,0.29
2020-08-12 19:59:12.9680,-1.56,0.54,-0.21
2020-08-12 19:59:13.0660,-0.4,-0.08,-0.11
2020-08-12 19:59:13.1660,0.09,-0.33,-0.02
2020-08-12 19:59:13.2650,0.53,-0.39,0.14
2020-08-12 19:59:13.3650,0.7,-0.11,0.17
2020-08-12 19:59:13.4630,0.72,-0.05,0.05
2020-08-12 19:59:13.5630,0.14,-0.23,0.06
2020-08-12 19:59:13.6620,0.12,0.03,-0.02
2020-08-12 19:59:13.7620,0.03,0.01,0.05
2020-08-12 19:59:13.8610,0.05,-0.03,-0.05
2020-08-12 19:59:13.9600,0.02,-0.02,-0.03
2020-08-12 19:59:14.0590,0.05,-0.04,-0.05
2020-08-12 19:59:14.1590,0.02,0.0,0.02
2020-08-12 19:59:14.2580,-0.02,0.05,0.01
2020-08-12 19:59:14.3560,-0.07,0.01,0.0
2020-08-12 19:59:14.4570,-0.05,-0.0,0.01
2020-08-12 19:59:14.5560,-0.02,0.0,-0.03
2020-08-12 19:59:14.6540,0.0,0.0,-0.02
2020-08-12 19:59:14.7540,-0.09,-0.04,-0.0
2020-08-12 19:59:14.8540,-0.16,-0.26,-0.0
2020-08-12 19:59:14.9530,-0.57,-0.39,0.07
2020-08-12 19:59:15.0510,-0.85,0.12,0.08
2020-08-12 19:59:15.1510,-0.68,0.02,-0.04
2020-08-12 19:59:15.2500,-0.11,-0.33,-0.05
2020-08-12 19:59:15.3490,0.3,-0.38,0.09
2020-08-12 19:59:15.4490,0.59,-0.17,0.17
2020-08-12 19:59:15.5470,0.85,0.08,0.15
2020-08-12 19:59:15.6480,0.13,-0.65,-0.15
2020-08-12 19:59:15.7470,0.35,-0.2,0.07
2020-08-12 19:59:15.8450,0.19,-0.05,0.07
2020-08-12 19:59:15.9440,0.05,0.01,0.03
2020-08-12 19:59:16.0450,0.01,-0.0,-0.03
2020-08-12 19:59:16.1430,0.01,0.01,-0.01
2020-08-12 19:59:16.2430,0.0,0.02,0.01
2020-08-12 19:59:16.3420,-0.02,0.01,-0.02
2020-08-12 19:59:16.4420,-0.04,0.01,0.0
2020-08-12 19:59:16.5400,-0.02,0.02,-0.02
2020-08-12 19:59:16.6390,0.02,-0.01,-0.08
2020-08-12 19:59:16.7390,-0.09,-0.01,0.05
2020-08-12 19:59:16.8390,-0.13,-0.12,-0.1
2020-08-12 19:59:16.9380,-0.62,-0.46,0.08
2020-08-12 19:59:17.0370,-0.84,0.25,-0.0
2020-08-12 19:59:17.1360,-0.58,-0.02,-0.03
2020-08-12 19:59:17.2360,-0.09,-0.28,-0.05
2020-08-12 19:59:17.3350,0.25,-0.25,0.03
2020-08-12 19:59:17.4330,0.6,-0.07,0.12
2020-08-12 19:59:17.5330,0.71,0.08,0.21
2020-08-12 19:59:17.6320,-1.01,-0.39,-0.28
2020-08-12 19:59:17.7320,0.24,-0.06,0.24
2020-08-12 19:59:17.8300,0.03,0.01,-0.06
2020-08-12 19:59:17.9300,-0.02,0.02,-0.01
2020-08-12 19:59:18.0300,-0.0,0.01,-0.01
2020-08-12 19:59:18.1280,-0.01,0.0,0.01
2020-08-12 19:59:18.2280,0.01,-0.01,-0.02
2020-08-12 19:59:18.3260,-0.01,-0.02,0.04
2020-08-12 19:59:18.4270,0.01,0.0,0.02
2020-08-12 19:59:18.5260,-0.02,-0.06,0.08
2020-08-12 19:59:18.6250,-0.01,-0.02,-0.03
2020-08-12 19:59:18.7240,-0.1,0.04,0.04
2020-08-12 19:59:18.8230,-0.04,0.02,0.04
2020-08-12 19:59:18.9230,0.1,-0.01,-0.12
2020-08-12 19:59:19.0220,0.05,0.05,0.02
2020-08-12 19:59:19.1200,0.0,-0.03,-0.06
2020-08-12 19:59:19.2210,-0.17,-0.01,0.02
2020-08-12 19:59:19.3200,-0.06,0.0,-0.04
2020-08-12 19:59:19.4180,0.03,-0.01,-0.01
2020-08-12 19:59:19.5180,0.07,0.01,-0.01
2020-08-12 19:59:19.6180,0.05,0.02,-0.0
2020-08-12 19:59:19.7170,-0.0,0.0,-0.0
2020-08-12 19:59:19.8150,-0.02,0.01,-0.02
2020-08-12 19:59:19.9150,-0.0,-0.01,0.01
2020-08-12 19:59:20.0150,0.01,-0.0,0.0
2020-08-12 19:59:20.1140,0.01,0.01,-0.01
2020-08-12 19:59:20.2130,0.03,-0.0,-0.0
2020-08-12 19:59:20.3120,-0.03,0.02,-0.01
2020-08-12 19:59:20.4110,0.02,-0.01,-0.0
2020-08-12 19:59:20.5110,0.05,-0.02,-0.07
2020-08-12 19:59:20.6120,0.02,0.07,0.0
