time,ax,ay,az
2020-08-13 11:51:58.4830,-0.03,0.01,0.03
2020-08-13 11:51:58.5780,-0.04,0.0,-0.0
2020-08-13 11:51:58.6780,-0.02,0.02,-0.01
2020-08-13 11:51:58.7760,-0.02,-0.01,0.03
2020-08-13 11:51:58.8760,0.03,0.01,-0.02
2020-08-13 11:51:58.9750,0.05,-0.0,0.01
2020-08-13 11:51:59.0750,0.04,0.0,-0.01
2020-08-13 11:51:59.1730,0.01,0.0,-0.04
2020-08-13 11:51:59.2730,-0.08,0.03,-0.03
2020-08-13 11:51:59.3720,-0.01,0.01,-0.07
2020-08-13 11:51:59.4720,0.06,-0.03,-0.06
2020-08-13 11:51:59.5700,-0.16,-0.03,0.11
2020-08-13 11:51:59.6700,0.02,0.03,-0.06
2020-08-13 11:51:59.7690,0.03,-0.02,0.02
2020-08-13 11:51:59.8680,0.0,-0.01,-0.0
2020-08-13 11:51:59.9670,-0.0,-0.03,-0.03
2020-08-13 11:52:00.0670,0.04,0.01,0.01
2020-08-13 11:52:00.1660,-0.0,0.01,-0.01
2020-08-13 11:52:00.2660,0.01,-0.0,-0.01
2020-08-13 11:52:00.3640,0.01,0.0,-0.02
2020-08-13 11:52:00.4640,-0.01,0.01,0.01
2020-08-13 11:52:00.5630,-0.01,-0.0,-0.01
2020-08-13 11:52:00.6620,-0.01,0.01,-0.0
2020-08-13 11:52:00.7620,0.0,-0.01,0.02
2020-08-13 11:52:00.8610,0.02,0.01,0.01
2020-08-13 11:52:00.9600,0.01,0.01,-0.02
2020-08-13 11:52:01.0600,-0.05,0.0,0.05
2020-08-13 11:52:01.1590,-0.0,0.06,0.02
2020-08-13 11:52:01.2580,0.02,-0.04,-0.09
2020-08-13 11:52:01.3570,0.05,-0.0,-0.03
2020-08-13 11:52:01.4560,0.02,-0.02,0.03
2020-08-13 11:52:01.5550,0.01,-0.0,0.01
2020-08-13 11:52:01.6560,0.03,-0.02,-0.04
2020-08-13 11:52:01.7540,-0.03,-0.0,0.02
2020-08-13 11:52:01.8540,-0.09,0.02,-0.01
2020-08-13 11:52:01.9530,0.12,-0.05,-0.04
2020-08-13 11:52:02.0530,-0.13,-0.01,0.12
2020-08-13 11:52:02.1510,-0.2,-0.07,0.14
2020-08-13 11:52:02.2510,-0.25,-0.26,0.45
2020-08-13 11:52:02.3500,-0.54,0.21,-0.11
2020-08-13 11:52:02.4490,-0.32,-0.07,-0.18
2020-08-13 11:52:02.5480,0.02,-0.21,-0.17
2020-08-13 11:52:02.6480,0.14,0.09,-0.06
2020-08-13 11:52:02.7470,0.84,0.07,0.12
2020-08-13 11:52:02.8470,-0.89,-0.65,-0.42
2020-08-13 11:52:02.9450,0.52,-0.22,0.34
2020-08-13 11:52:03.0450,0.09,0.06,0.06
2020-08-13 11:52:03.1440,-0.0,-0.0,-0.02
2020-08-13 11:52:03.2440,0.1,-0.01,-0.06
2020-08-13 11:52:03.3420,0.02,0.01,-0.03
2020-08-13 11:52:03.4420,-0.01,0.0,0.03
2020-08-13 11:52:03.5410,0.1,-0.04,-0.15
2020-08-13 11:52:03.6410,-0.02,0.06,0.05
2020-08-13 11:52:03.7390,-0.05,0.05,0.0
2020-08-13 11:52:03.8390,-0.18,-0.11,0.15
2020-08-13 11:52:03.9380,-0.12,-0.12,-0.15
2020-08-13 11:52:04.0380,-0.48,-0.41,0.17
2020-08-13 11:52:04.1360,-0.8,0.08,0.08
2020-08-13 11:52:04.2360,-0.59,0.03,-0.08
2020-08-13 11:52:04.3350,-0.1,-0.22,-0.11
2020-08-13 11:52:04.4340,0.18,-0.25,-0.03
2020-08-13 11:52:04.5330,0.07,0.0,-0.06
2020-08-13 11:52:04.6330,0.6,0.03,0.02
2020-08-13 11:52:04.7320,0.93,0.13,0.08
2020-08-13 11:52:04.8320,0.78,0.17,-0.06
2020-08-13 11:52:04.9300,-0.09,-0.01,0.05
2020-08-13 11:52:05.0300,-0.09,0.13,0.11
2020-08-13 11:52:05.1290,0.01,-0.03,-0.05
2020-08-13 11:52:05.2290,-0.05,0.02,-0.02
2020-08-13 11:52:05.3270,-0.03,0.01,0.01
2020-08-13 11:52:05.4270,-0.02,0.01,-0.0
2020-08-13 11:52:05.5260,-0.1,0.03,-0.02
2020-08-13 11:52:05.6260,-0.01,-0.05,0.03
2020-08-13 11:52:05.7250,-0.3,-0.19,0.06
2020-08-13 11:52:05.8240,-0.37,-0.29,0.02
2020-08-13 11:52:05.9230,-0.64,-0.1,0.13
2020-08-13 11:52:06.0230,-0.6,0.18,0.01
2020-08-13 11:52:06.1220,-0.04,-0.15,-0.06
2020-08-13 11:52:06.2210,0.09,-0.19,-0.02
2020-08-13 11:52:06.3200,0.29,-0.14,-0.11
2020-08-13 11:52:06.4200,0.23,0.09,-0.03
2020-08-13 11:52:06.5190,0.51,0.13,0.06
2020-08-13 11:52:06.6180,-1.89,-0.98,-0.85
2020-08-13 11:52:06.7170,-0.03,0.01,0.26
2020-08-13 11:52:06.8170,0.15,0.03,-0.06
2020-08-13 11:52:06.9160,-0.03,0.02,0.03
2020-08-13 11:52:07.0150,0.03,0.01,0.06
2020-08-13 11:52:07.1140,-0.01,-0.04,-0.05
2020-08-13 11:52:07.2140,0.05,0.01,-0.03
2020-08-13 11:52:07.3130,-0.04,0.01,0.03
2020-08-13 11:52:07.4120,0.03,-0.0,-0.0
2020-08-13 11:52:07.5110,-0.05,-0.06,0.03
2020-08-13 11:52:07.6110,-0.28,-0.02,0.05
2020-08-13 11:52:07.7100,-0.62,-0.42,0.04
2020-08-13 11:52:07.8100,-0.78,0.21,0.17
2020-08-13 11:52:07.9080,-0.62,0.02,-0.07
2020-08-13 11:52:08.0080,-0.03,-0.3,-0.1
2020-08-13 11:52:08.1070,0.28,-0.21,-0.02
2020-08-13 11:52:08.2070,0.38,-0.01,0.04
2020-08-13 11:52:08.3050,0.93,0.15,0.19
2020-08-13 11:52:08.4050,-0.94,-1.25,1.39
2020-08-13 11:52:08.5040,-0.19,-0.08,0.18
2020-08-13 11:52:08.6040,0.02,0.07,0.04
2020-08-13 11:52:08.7020,-0.15,0.01,0.02
2020-08-13 11:52:08.8020,-0.03,0.01,0.01
2020-08-13 11:52:08.9010,0.03,-0.02,-0.04
2020-08-13 11:52:09.0010,-0.02,0.0,0.01
2020-08-13 11:52:09.0990,0.03,-0.02,0.0
2020-08-13 11:52:09.1990,-0.0,-0.01,-0.06
2020-08-13 11:52:09.2980,0.0,-0.01,0.01
2020-08-13 11:52:09.3980,-0.27,-0.14,0.05
2020-08-13 11:52:09.4960,-0.46,-0.39,-0.01
2020-08-13 11:52:09.5960,-0.4,-0.02,0.23
2020-08-13 11:52:09.6950,-0.69,0.19,0.04
2020-08-13 11:52:09.7950,-0.12,-0.19,-0.09
2020-08-13 11:52:09.8930,0.1,-0.29,-0.03
2020-08-13 11:52:09.9930,0.33,-0.12,-0.12
2020-08-13 11:52:10.0920,0.39,0.02,0.01
2020-08-13 11:52:10.1920,0.6,0.29,-0.0
2020-08-13 11:52:10.2900,0.85,0.17,-0.8
2020-08-13 11:52:10.3900,0.54,-0.15,-0.05
2020-08-13 11:52:10.4890,-0.04,0.04,0.04
2020-08-13 11:52:10.5890,0.0,0.02,-0.07
2020-08-13 11:52:10.6880,0.06,-0.01,0.0
2020-08-13 11:52:10.7870,-0.1,-0.01,0.04
2020-08-13 11:52:10.8860,-0.02,0.0,0.0
2020-08-13 11:52:10.9850,-0.02,0.02,0.0
2020-08-13 11:52:11.0850,-0.06,0.03,-0.0
2020-08-13 11:52:11.1840,-0.11,-0.0,0.01
2020-08-13 11:52:11.2840,-0.12,-0.09,0.02
2020-08-13 11:52:11.3820,-0.49,-0.25,0.04
2020-08-13 11:52:11.4820,-0.08,-0.23,0.4
2020-08-13 11:52:11.5810,-0.93,0.2,0.0
2020-08-13 11:52:11.6810,-0.27,-0.19,-0.09
2020-08-13 11:52:11.7790,0.12,-0.32,-0.04
2020-08-13 11:52:11.8790,0.42,-0.18,0.05
2020-08-13 11:52:11.9780,0.72,0.07,0.05
2020-08-13 11:52:12.0780,0.25,-0.17,0.43
2020-08-13 11:52:12.1760,0.15,0.11,-0.07
2020-08-13 11:52:12.2760,-0.07,0.02,0.05
2020-08-13 11:52:12.3750,-0.03,0.0,-0.04
2020-08-13 11:52:12.4750,0.07,-0.02,-0.06
2020-08-13 11:52:12.5730,0.03,-0.0,-0.02
2020-08-13 11:52:12.6730,-0.04,0.01,-0.02
2020-08-13 11:52:12.7720,-0.02,-0.01,0.02
2020-08-13 11:52:12.8720,0.02,-0.0,0.05
2020-08-13 11:52:12.9700,-0.11,-0.02,0.05
2020-08-13 11:52:13.0710,-0.12,-0.02,0.04
2020-08-13 11:52:13.1690,-0.25,-0.18,0.01
2020-08-13 11:52:13.2690,-0.47,-0.33,0.2
2020-08-13 11:52:13.3680,-0.91,0.15,0.06
2020-08-13 11:52:13.4670,-0.61,0.1,-0.05
2020-08-13 11:52:13.5660,-0.1,-0.28,-0.1
2020-08-13 11:52:13.6660,0.17,-0.27,-0.0
2020-08-13 11:52:13.7650,0.66,-0.05,0.01
2020-08-13 11:52:13.8640,1.01,0.24,0.13
2020-08-13 11:52:13.9630,1.94,-0.06,-0.25
2020-08-13 11:52:14.0620,0.11,-0.08,0.05
2020-08-13 11:52:14.1620,-0.05,0.02,0.02
2020-08-13 11:52:14.2610,-0.08,-0.02,-0.01
2020-08-13 11:52:14.3600,-0.08,-0.03,0.04
2020-08-13 11:52:14.4600,0.07,-0.04,-0.09
2020-08-13 11:52:14.5590,0.01,-0.02,-0.02
2020-08-13 11:52:14.6580,-0.04,-0.0,0.02
2020-08-13 11:52:14.7580,-0.03,0.02,-0.0
2020-08-13 11:52:14.8570,-0.05,0.01,0.0
2020-08-13 11:52:14.9560,-0.05,-0.01,0.02
2020-08-13 11:52:15.0550,-0.32,-0.26,0.01
2020-08-13 11:52:15.1540,-0.61,-0.37,0.05
2020-08-13 11:52:15.2530,-1.0,0.27,0.12
2020-08-13 11:52:15.3530,-0.67,0.04,0.03
2020-08-13 11:52:15.4520,0.01,-0.32,-0.09
2020-08-13 11:52:15.5510,0.19,-0.21,-0.07
2020-08-13 11:52:15.6510,0.57,-0.03,0.01
2020-08-13 11:52:15.7500,0.81,0.13,0.12
2020-08-13 11:52:15.8490,-0.04,-1.01,0.76
2020-08-13 11:52:15.9480,0.01,-0.1,0.05
2020-08-13 11:52:16.0480,-0.05,-0.0,0.03
2020-08-13 11:52:16.1470,-0.0,-0.0,-0.04
2020-08-13 11:52:16.2470,0.01,-0.02,-0.05
2020-08-13 11:52:16.3450,0.06,0.03,0.02
2020-08-13 11:52:16.4450,0.01,0.0,0.01
2020-08-13 11:52:16.5440,0.07,-0.0,-0.01
2020-08-13 11:52:16.6440,0.02,-0.0,-0.01
2020-08-13 11:52:16.7420,-0.02,-0.0,-0.0
2020-08-13 11:52:16.8420,-0.11,-0.04,0.02
2020-08-13 11:52:16.9410,-0.41,-0.31,-0.0
2020-08-13 11:52:17.0400,-0.17,-0.05,0.29
2020-08-13 11:52:17.1400,-0.92,0.31,0.04
2020-08-13 11:52:17.2390,-0.35,-0.13,-0.18
2020-08-13 11:52:17.3380,0.05,-0.28,-0.03
2020-08-13 11:52:17.4370,0.61,-0.19,0.01
2020-08-13 11:52:17.5370,0.82,0.06,0.07
2020-08-13 11:52:17.6360,-2.6,-0.83,-0.54
2020-08-13 11:52:17.7350,-0.17,-0.01,0.3
2020-08-13 11:52:17.8340,0.0,0.04,0.08
2020-08-13 11:52:17.9340,-0.06,-0.01,-0.03
2020-08-13 11:52:18.0330,-0.01,-0.01,-0.02
2020-08-13 11:52:18.1330,0.0,0.0,0.01
2020-08-13 11:52:18.2310,-0.04,0.02,0.01
2020-08-13 11:52:18.3300,-0.03,0.01,0.01
2020-08-13 11:52:18.4300,0.05,-0.02,-0.02
2020-08-13 11:52:18.5290,-0.01,0.02,0.0
2020-08-13 11:52:18.6290,-0.05,-0.02,-0.01
2020-08-13 11:52:18.7270,-0.33,-0.05,0.05
2020-08-13 11:52:18.8270,-0.3,-0.37,0.2
2020-08-13 11:52:18.9260,-1.07,0.27,0.01
2020-08-13 11:52:19.0260,-0.37,-0.08,-0.17
2020-08-13 11:52:19.1250,-0.04,-0.23,-0.07
2020-08-13 11:52:19.2240,0.12,-0.13,-0.03
2020-08-13 11:52:19.3230,0.79,-0.03,0.1
2020-08-13 11:52:19.4230,0.97,0.04,0.09
2020-08-13 11:52:19.5210,1.25,-0.37,-0.47
2020-08-13 11:52:19.6210,-0.14,0.02,-0.06
2020-08-13 11:52:19.7200,0.03,0.03,0.03
2020-08-13 11:52:19.8200,-0.01,0.0,-0.0
2020-08-13 11:52:19.9190,0.11,-0.03,-0.06
2020-08-13 11:52:20.0180,-0.01,0.0,-0.01
2020-08-13 11:52:20.1170,-0.02,0.0,-0.01
2020-08-13 11:52:20.2170,0.07,0.0,-0.05
2020-08-13 11:52:20.3160,0.0,-0.02,-0.0
2020-08-13 11:52:20.4150,0.04,0.01,0.01
2020-08-13 11:52:20.5140,0.01,0.0,-0.03
2020-08-13 11:52:20.6140,0.02,-0.03,-0.02
2020-08-13 11:52:20.7130,-0.05,-0.0,-0.02
2020-08-13 11:52:20.8130,-0.47,-0.18,0.03
2020-08-13 11:52:20.9110,-0.46,-0.33,0.41
2020-08-13 11:52:21.0110,-1.27,0.31,-0.07
2020-08-13 11:52:21.1100,-0.19,-0.36,-0.19
2020-08-13 11:52:21.2090,0.46,-0.34,0.02
2020-08-13 11:52:21.3080,1.42,-0.2,0.28
2020-08-13 11:52:21.4080,-0.73,-0.65,1.49
2020-08-13 11:52:21.5070,0.09,-0.06,0.22
2020-08-13 11:52:21.6060,0.08,-0.0,-0.0
2020-08-13 11:52:21.7060,0.0,-0.02,-0.05
2020-08-13 11:52:21.8050,0.02,-0.02,-0.04
2020-08-13 11:52:21.9040,0.01,0.01,0.01
2020-08-13 11:52:22.0030,-0.04,0.02,0.04
2020-08-13 11:52:22.1020,-0.03,0.02,0.01
2020-08-13 11:52:22.2020,-0.05,0.01,0.01
2020-08-13 11:52:22.3010,-0.06,0.02,-0.0
2020-08-13 11:52:22.4010,-0.11,-0.0,0.0
2020-08-13 11:52:22.4990,-0.55,-0.53,0.1
2020-08-13 11:52:22.5990,-0.99,0.16,0.07
2020-08-13 11:52:22.6980,-0.72,0.02,-0.19
2020-08-13 11:52:22.7970,-0.1,-0.33,-0.1
2020-08-13 11:52:22.8960,0.32,-0.21,-0.01
2020-08-13 11:52:22.9960,0.57,-0.11,0.08
2020-08-13 11:52:23.0950,1.13,0.1,0.09
2020-08-13 11:52:23.1940,1.82,-0.29,-0.11
2020-08-13 11:52:23.2940,0.12,-0.03,-0.03
2020-08-13 11:52:23.3930,-0.04,0.03,-0.02
2020-08-13 11:52:23.4920,-0.01,-0.02,-0.04
2020-08-13 11:52:23.5910,-0.04,-0.01,0.07
2020-08-13 11:52:23.6910,-0.03,0.02,-0.01
2020-08-13 11:52:23.7900,-0.05,0.01,-0.01
2020-08-13 11:52:23.8890,-0.0,-0.0,-0.01
2020-08-13 11:52:23.9880,-0.03,-0.01,0.01
2020-08-13 11:52:24.0880,-0.03,-0.02,0.0
2020-08-13 11:52:24.1870,-0.01,-0.04,-0.02
2020-08-13 11:52:24.2860,-0.36,-0.37,0.1
2020-08-13 11:52:24.3860,-0.42,-0.22,0.26
2020-08-13 11:52:24.4850,-1.2,0.31,0.05
2020-08-13 11:52:24.5840,-0.51,-0.02,-0.09
2020-08-13 11:52:24.6830,0.05,-0.35,-0.06
2020-08-13 11:52:24.7830,0.46,-0.29,0.03
2020-08-13 11:52:24.8820,0.94,-0.05,0.09
2020-08-13 11:52:24.9810,-1.83,-0.54,-0.66
2020-08-13 11:52:25.0800,-0.02,-0.15,0.25
2020-08-13 11:52:25.1800,0.1,-0.03,-0.14
2020-08-13 11:52:25.2790,0.02,0.02,-0.05
2020-08-13 11:52:25.3780,-0.02,0.03,0.01
2020-08-13 11:52:25.4770,0.03,-0.03,-0.06
2020-08-13 11:52:25.5760,0.09,0.01,-0.01
2020-08-13 11:52:25.6760,0.1,-0.02,-0.05
2020-08-13 11:52:25.7750,0.02,-0.01,-0.01
2020-08-13 11:52:25.8740,0.04,-0.0,-0.03
2020-08-13 11:52:25.9730,0.02,-0.06,-0.02
2020-08-13 11:52:26.0730,-0.3,-0.16,0.11
2020-08-13 11:52:26.1730,-0.25,-0.33,0.27
2020-08-13 11:52:26.2710,-0.99,0.32,0.02
2020-08-13 11:52:26.3710,-0.42,-0.1,-0.17
2020-08-13 11:52:26.4700,0.02,-0.32,-0.07
2020-08-13 11:52:26.5700,0.51,-0.18,0.11
2020-08-13 11:52:26.6680,0.94,0.01,0.09
2020-08-13 11:52:26.7680,0.04,-1.2,1.27
2020-08-13 11:52:26.8670,0.22,-0.19,0.09
2020-08-13 11:52:26.9660,-0.07,0.01,-0.08
2020-08-13 11:52:27.0650,0.03,-0.0,-0.06
2020-08-13 11:52:27.1650,0.0,0.02,0.03
2020-08-13 11:52:27.2640,-0.01,0.02,0.03
2020-08-13 11:52:27.3640,-0.04,0.01,-0.02
2020-08-13 11:52:27.4620,-0.01,-0.01,-0.06
2020-08-13 11:52:27.5620,-0.06,0.01,0.0
2020-08-13 11:52:27.6610,-0.05,0.01,0.01
2020-08-13 11:52:27.7600,-0.11,-0.11,0.03
2020-08-13 11:52:27.8600,-0.5,-0.4,0.03
2020-08-13 11:52:27.9590,-0.22,-0.14,0.27
2020-08-13 11:52:28.0580,-0.88,0.12,-0.09
2020-08-13 11:52:28.1570,-0.12,-0.32,-0.11
2020-08-13 11:52:28.2570,0.33,-0.19,-0.0
2020-08-13 11:52:28.3560,0.67,-0.1,0.06
2020-08-13 11:52:28.4550,1.07,0.13,0.09
2020-08-13 11:52:28.5540,1.65,-0.36,0.09
2020-08-13 11:52:28.6540,0.27,-0.06,-0.02
2020-08-13 11:52:28.7530,-0.02,0.05,0.01
2020-08-13 11:52:28.8530,0.0,-0.0,0.01
2020-08-13 11:52:28.9510,0.01,-0.0,-0.01
2020-08-13 11:52:29.0510,0.05,0.01,-0.04
2020-08-13 11:52:29.1500,0.07,0.0,-0.05
2020-08-13 11:52:29.2500,0.04,-0.02,-0.04
2020-08-13 11:52:29.3480,-0.15,0.02,0.05
2020-08-13 11:52:29.4480,-0.12,-0.02,0.02
2020-08-13 11:52:29.5470,-0.17,0.0,-0.08
2020-08-13 11:52:29.6470,-0.46,-0.67,0.04
2020-08-13 11:52:29.7450,-0.48,0.04,-0.01
2020-08-13 11:52:29.8450,-0.58,0.06,-0.11
2020-08-13 11:52:29.9440,-0.07,-0.33,-0.07
2020-08-13 11:52:30.0440,0.29,-0.2,0.02
2020-08-13 11:52:30.1420,0.83,-0.06,0.08
2020-08-13 11:52:30.2420,1.02,-0.05,0.07
2020-08-13 11:52:30.3410,0.88,-0.21,-0.12
2020-08-13 11:52:30.4400,-0.19,-0.02,-0.11
2020-08-13 11:52:30.5390,0.06,0.01,0.06
2020-08-13 11:52:30.6400,0.08,-0.03,-0.04
2020-08-13 11:52:30.7380,0.05,0.02,0.0
2020-08-13 11:52:30.8380,0.03,0.01,-0.01
2020-08-13 11:52:30.9360,-0.07,0.01,0.03
2020-08-13 11:52:31.0360,-0.03,-0.01,-0.02
2020-08-13 11:52:31.1350,0.01,-0.0,-0.03
2020-08-13 11:52:31.2350,-0.07,-0.02,-0.01
2020-08-13 11:52:31.3330,-0.3,-0.03,0.09
2020-08-13 11:52:31.4330,-0.47,-0.49,0.13
2020-08-13 11:52:31.5320,-0.85,0.19,0.05
2020-08-13 11:52:31.6320,-0.57,-0.0,-0.1
2020-08-13 11:52:31.7310,-0.11,-0.31,-0.07
2020-08-13 11:52:31.8300,0.3,-0.2,-0.0
2020-08-13 11:52:31.9290,0.84,-0.01,0.04
2020-08-13 11:52:32.0290,0.85,-0.09,0.18
2020-08-13 11:52:32.1270,1.04,-0.39,0.07
2020-08-13 11:52:32.2270,-0.02,0.0,-0.13
2020-08-13 11:52:32.3260,0.04,0.01,-0.05
2020-08-13 11:52:32.4260,-0.02,0.02,0.01
2020-08-13 11:52:32.5250,0.01,0.02,-0.0
2020-08-13 11:52:32.6240,0.09,-0.01,-0.01
2020-08-13 11:52:32.7230,-0.02,-0.03,0.0
2020-08-13 11:52:32.8220,-0.06,-0.06,0.03
2020-08-13 11:52:32.9220,-0.07,0.01,0.02
2020-08-13 11:52:33.0210,-0.07,0.01,-0.01
2020-08-13 11:52:33.1200,-0.13,-0.12,-0.0
2020-08-13 11:52:33.2200,-0.59,-0.51,0.19
2020-08-13 11:52:33.3190,-1.01,0.04,0.02
2020-08-13 11:52:33.4190,-0.68,0.01,-0.03
2020-08-13 11:52:33.5170,-0.04,-0.33,-0.07
2020-08-13 11:52:33.6170,0.44,-0.28,0.07
2020-08-13 11:52:33.7160,0.96,-0.04,0.01
2020-08-13 11:52:33.8150,-0.36,-0.55,0.24
2020-08-13 11:52:33.9140,0.02,-0.03,0.27
2020-08-13 11:52:34.0130,0.19,-0.06,-0.14
2020-08-13 11:52:34.1130,-0.11,0.04,0.06
2020-08-13 11:52:34.2120,0.01,0.01,0.01
2020-08-13 11:52:34.3110,0.09,-0.04,-0.04
2020-08-13 11:52:34.4110,-0.07,0.03,0.04
2020-08-13 11:52:34.5100,0.03,-0.02,-0.01
2020-08-13 11:52:34.6100,-0.03,0.0,0.01
2020-08-13 11:52:34.7090,-0.03,0.02,-0.02
2020-08-13 11:52:34.8080,0.01,-0.19,0.02
2020-08-13 11:52:34.9070,-0.5,-0.31,0.08
2020-08-13 11:52:35.0060,-0.78,-0.1,0.12
2020-08-13 11:52:35.1060,-0.76,0.12,-0.08
2020-08-13 11:52:35.2050,-0.17,-0.24,-0.05
2020-08-13 11:52:35.3040,0.13,-0.29,0.01
2020-08-13 11:52:35.4030,0.78,-0.05,0.09
2020-08-13 11:52:35.5030,1.05,0.11,0.14
2020-08-13 11:52:35.6020,1.31,-0.37,-0.2
2020-08-13 11:52:35.7010,0.19,-0.04,-0.13
2020-08-13 11:52:35.8000,0.0,0.02,0.01
2020-08-13 11:52:35.8990,0.01,-0.04,-0.02
2020-08-13 11:52:35.9990,-0.02,0.02,0.05
2020-08-13 11:52:36.0980,0.05,-0.0,-0.02
2020-08-13 11:52:36.1970,0.06,-0.03,-0.08
2020-08-13 11:52:36.2960,-0.02,-0.01,-0.02
2020-08-13 11:52:36.3960,-0.05,0.0,0.01
2020-08-13 11:52:36.4950,-0.0,-0.01,0.01
2020-08-13 11:52:36.5950,-0.15,-0.22,-0.01
2020-08-13 11:52:36.6930,-0.6,-0.44,0.06
2020-08-13 11:52:36.7930,-0.95,0.1,0.1
2020-08-13 11:52:36.8920,-0.6,0.05,-0.08
2020-08-13 11:52:36.9910,0.02,-0.33,-0.06
2020-08-13 11:52:37.0910,0.19,-0.17,0.08
2020-08-13 11:52:37.1900,0.79,-0.04,0.03
2020-08-13 11:52:37.2900,0.97,0.11,0.07
2020-08-13 11:52:37.3880,1.44,-0.34,-0.4
2020-08-13 11:52:37.4880,0.21,-0.06,0.01
2020-08-13 11:52:37.5870,0.01,-0.0,0.01
2020-08-13 11:52:37.6870,0.03,-0.01,-0.07
2020-08-13 11:52:37.7850,-0.0,0.0,0.01
2020-08-13 11:52:37.8850,0.04,0.01,-0.01
2020-08-13 11:52:37.9840,0.07,-0.01,0.01
2020-08-13 11:52:38.0830,-0.0,0.03,0.02
2020-08-13 11:52:38.1830,-0.04,0.04,-0.02
2020-08-13 11:52:38.2820,0.01,-0.06,-0.02
2020-08-13 11:52:38.3810,-0.24,-0.24,-0.09
2020-08-13 11:52:38.4810,-0.16,-0.19,0.4
2020-08-13 11:52:38.5800,-0.93,0.28,-0.04
2020-08-13 11:52:38.6790,-0.2,-0.17,-0.08
2020-08-13 11:52:38.7780,0.1,-0.26,-0.07
2020-08-13 11:52:38.8780,0.39,-0.14,0.01
2020-08-13 11:52:38.9760,0.77,-0.03,0.11
2020-08-13 11:52:39.0760,0.19,-0.25,0.01
2020-08-13 11:52:39.1750,0.16,-0.19,0.29
2020-08-13 11:52:39.2750,-0.09,-0.02,-0.2
2020-08-13 11:52:39.3730,-0.05,0.02,0.07
2020-08-13 11:52:39.4730,-0.09,0.07,0.11
2020-08-13 11:52:39.5720,0.0,-0.0,-0.04
2020-08-13 11:52:39.6720,0.01,0.0,-0.04
2020-08-13 11:52:39.7700,0.06,0.02,0.02
2020-08-13 11:52:39.8700,-0.01,0.02,0.02
2020-08-13 11:52:39.9690,-0.0,-0.02,-0.0
2020-08-13 11:52:40.0690,-0.07,-0.01,0.01
2020-08-13 11:52:40.1680,-0.41,-0.27,0.02
2020-08-13 11:52:40.2670,-0.33,-0.1,0.39
2020-08-13 11:52:40.3670,-0.99,0.31,-0.02
2020-08-13 11:52:40.4650,-0.3,-0.14,-0.17
2020-08-13 11:52:40.5650,0.05,-0.24,-0.09
2020-08-13 11:52:40.6640,0.37,-0.13,0.04
2020-08-13 11:52:40.7630,0.98,0.02,0.11
2020-08-13 11:52:40.8620,-1.45,-0.49,-0.65
2020-08-13 11:52:40.9620,-0.06,0.24,0.04
2020-08-13 11:52:41.0610,-0.1,0.04,-0.0
2020-08-13 11:52:41.1600,-0.01,-0.03,-0.03
2020-08-13 11:52:41.2600,0.04,-0.02,-0.0
2020-08-13 11:52:41.3590,-0.07,0.02,0.02
2020-08-13 11:52:41.4580,0.0,0.01,-0.01
2020-08-13 11:52:41.5570,0.01,0.01,-0.03
2020-08-13 11:52:41.6570,-0.02,0.0,-0.01
2020-08-13 11:52:41.7560,0.06,-0.01,-0.03
2020-08-13 11:52:41.8550,-0.29,-0.06,0.12
2020-08-13 11:52:41.9550,-0.31,-0.09,0.0
2020-08-13 11:52:42.0530,-0.19,-0.33,0.3
2020-08-13 11:52:42.1530,-0.98,0.23,0.07
2020-08-13 11:52:42.2520,-0.39,-0.08,-0.13
2020-08-13 11:52:42.3510,-0.01,-0.23,-0.08
2020-08-13 11:52:42.4500,0.29,-0.1,-0.02
2020-08-13 11:52:42.5500,0.66,0.01,0.08
2020-08-13 11:52:42.6490,0.96,-0.13,0.1
2020-08-13 11:52:42.7480,1.1,-0.37,0.04
2020-08-13 11:52:42.8490,-0.18,0.01,-0.16
2020-08-13 11:52:42.9470,0.02,0.02,0.01
2020-08-13 11:52:43.0460,0.0,0.04,0.01
2020-08-13 11:52:43.1450,0.02,-0.02,-0.08
2020-08-13 11:52:43.2450,-0.01,-0.01,-0.04
2020-08-13 11:52:43.3440,0.04,0.01,-0.05
2020-08-13 11:52:43.4430,0.06,-0.01,-0.06
2020-08-13 11:52:43.5420,-0.04,-0.0,0.02
2020-08-13 11:52:43.6420,-0.03,0.01,0.01
2020-08-13 11:52:43.7410,-0.14,-0.15,-0.01
2020-08-13 11:52:43.8400,-0.55,-0.42,0.02
2020-08-13 11:52:43.9390,-0.58,0.01,0.01
2020-08-13 11:52:44.0390,-0.71,0.07,-0.04
2020-08-13 11:52:44.1380,-0.15,-0.25,-0.12
2020-08-13 11:52:44.2380,0.19,-0.25,-0.02
2020-08-13 11:52:44.3360,0.69,-0.08,0.04
2020-08-13 11:52:44.4360,0.95,0.09,0.13
2020-08-13 11:52:44.5350,0.93,-0.18,-0.59
2020-08-13 11:52:44.6340,0.25,-0.01,-0.07
2020-08-13 11:52:44.7330,-0.02,0.02,0.04
2020-08-13 11:52:44.8330,0.04,-0.01,-0.03
2020-08-13 11:52:44.9320,0.03,-0.01,-0.06
2020-08-13 11:52:45.0310,-0.03,0.03,-0.02
2020-08-13 11:52:45.1310,-0.05,0.01,0.02
2020-08-13 11:52:45.2300,0.01,-0.01,-0.03
2020-08-13 11:52:45.3290,0.0,-0.01,-0.03
2020-08-13 11:52:45.4280,-0.06,-0.0,-0.01
2020-08-13 11:52:45.5280,-0.1,-0.12,-0.08
2020-08-13 11:52:45.6270,-0.53,-0.53,0.17
2020-08-13 11:52:45.7260,-1.01,0.23,0.03
2020-08-13 11:52:45.8250,-0.67,-0.09,-0.08
2020-08-13 11:52:45.9250,-0.03,-0.35,-0.07
2020-08-13 11:52:46.0240,0.35,-0.19,0.02
2020-08-13 11:52:46.1230,0.97,-0.06,-0.05
2020-08-13 11:52:46.2220,0.85,-0.16,0.46
2020-08-13 11:52:46.3220,1.44,-0.89,-0.5
2020-08-13 11:52:46.4210,-0.12,0.01,-0.08
2020-08-13 11:52:46.5210,0.07,0.02,-0.02
2020-08-13 11:52:46.6190,0.01,-0.01,-0.05
2020-08-13 11:52:46.7190,-0.1,0.01,0.02
2020-08-13 11:52:46.8180,-0.03,0.02,-0.02
2020-08-13 11:52:46.9180,0.01,-0.01,-0.01
2020-08-13 11:52:47.0160,-0.01,0.0,-0.01
2020-08-13 11:52:47.1160,-0.02,0.0,-0.01
2020-08-13 11:52:47.2150,-0.02,0.01,0.01
2020-08-13 11:52:47.3150,-0.13,-0.06,-0.05
2020-08-13 11:52:47.4130,-0.71,-0.54,0.16
2020-08-13 11:52:47.5130,-1.35,0.28,0.04
2020-08-13 11:52:47.6130,-0.66,-0.09,-0.06
2020-08-13 11:52:47.7110,0.05,-0.4,-0.06
2020-08-13 11:52:47.8110,0.37,-0.2,0.02
2020-08-13 11:52:47.9100,0.99,-0.1,0.22
2020-08-13 11:52:48.0100,-1.83,-0.48,-0.76
2020-08-13 11:52:48.1080,-0.24,0.18,0.29
2020-08-13 11:52:48.2080,0.05,0.02,-0.11
2020-08-13 11:52:48.3070,-0.11,0.01,0.08
2020-08-13 11:52:48.4070,0.0,0.02,-0.0
2020-08-13 11:52:48.5050,0.03,-0.01,-0.11
2020-08-13 11:52:48.6050,0.05,-0.02,-0.03
2020-08-13 11:52:48.7040,0.0,0.01,0.01
2020-08-13 11:52:48.8040,0.0,-0.0,-0.04
2020-08-13 11:52:48.9020,0.01,0.01,-0.07
2020-08-13 11:52:49.0020,-0.07,-0.01,0.01
2020-08-13 11:52:49.1010,-0.29,-0.28,0.02
2020-08-13 11:52:49.2010,-0.17,-0.16,0.4
2020-08-13 11:52:49.2990,-1.03,0.29,0.0
2020-08-13 11:52:49.3990,-0.33,-0.19,-0.17
2020-08-13 11:52:49.4980,0.03,-0.29,-0.01
2020-08-13 11:52:49.5970,0.54,-0.19,0.02
2020-08-13 11:52:49.6970,1.15,0.02,0.11
2020-08-13 11:52:49.7950,0.21,-0.86,0.4
2020-08-13 11:52:49.8950,0.29,0.01,-0.03
2020-08-13 11:52:49.9940,-0.08,0.04,0.0
2020-08-13 11:52:50.0940,0.08,-0.03,-0.08
2020-08-13 11:52:50.1930,0.04,-0.0,-0.01
2020-08-13 11:52:50.2920,0.04,-0.03,-0.1
2020-08-13 11:52:50.3920,-0.08,0.02,0.04
2020-08-13 11:52:50.4910,-0.03,0.01,0.01
2020-08-13 11:52:50.5900,0.01,-0.01,-0.01
2020-08-13 11:52:50.6890,0.04,0.01,-0.03
2020-08-13 11:52:50.7880,-0.04,-0.07,-0.06
2020-08-13 11:52:50.8880,-0.29,-0.25,0.07
2020-08-13 11:52:50.9870,-0.29,-0.15,0.4
2020-08-13 11:52:51.0870,-1.2,0.34,0.03
2020-08-13 11:52:51.1850,-0.46,-0.26,-0.15
2020-08-13 11:52:51.2850,0.25,-0.34,-0.05
2020-08-13 11:52:51.3840,0.75,-0.14,0.13
2020-08-13 11:52:51.4840,1.26,0.11,0.2
2020-08-13 11:52:51.5820,0.91,0.04,-0.63
2020-08-13 11:52:51.6820,0.11,-0.06,-0.04
2020-08-13 11:52:51.7810,-0.11,0.03,-0.03
2020-08-13 11:52:51.8810,-0.02,-0.01,-0.04
2020-08-13 11:52:51.9790,-0.02,0.02,0.02
2020-08-13 11:52:52.0790,-0.0,-0.01,-0.03
2020-08-13 11:52:52.1780,-0.05,0.01,-0.04
2020-08-13 11:52:52.2770,0.02,-0.0,0.0
2020-08-13 11:52:52.3770,0.03,0.01,0.0
2020-08-13 11:52:52.4760,0.02,0.01,-0.05
2020-08-13 11:52:52.5750,0.01,-0.06,-0.08
2020-08-13 11:52:52.6740,-0.51,-0.48,-0.05
2020-08-13 11:52:52.7740,-0.77,-0.01,0.18
2020-08-13 11:52:52.8730,-0.88,0.02,-0.1
2020-08-13 11:52:52.9720,-0.02,-0.36,-0.01
2020-08-13 11:52:53.0710,0.46,-0.19,0.09
2020-08-13 11:52:53.1710,0.94,0.0,0.05
2020-08-13 11:52:53.2700,0.28,-0.66,-0.16
2020-08-13 11:52:53.3700,1.68,-1.0,0.53
2020-08-13 11:52:53.4680,0.01,0.05,-0.08
2020-08-13 11:52:53.5680,0.1,0.01,-0.03
2020-08-13 11:52:53.6670,-0.01,-0.02,-0.06
2020-08-13 11:52:53.7660,-0.02,-0.0,-0.03
2020-08-13 11:52:53.8650,-0.03,0.0,-0.01
2020-08-13 11:52:53.9650,0.03,-0.0,-0.05
2020-08-13 11:52:54.0640,-0.02,-0.02,-0.07
2020-08-13 11:52:54.1630,0.07,0.02,-0.06
2020-08-13 11:52:54.2620,-0.02,-0.07,-0.02
2020-08-13 11:52:54.3620,-0.33,-0.35,0.09
2020-08-13 11:52:54.4610,-0.45,-0.15,0.08
2020-08-13 11:52:54.5600,-0.89,0.15,-0.1
2020-08-13 11:52:54.6590,-0.22,-0.26,-0.06
2020-08-13 11:52:54.7590,0.11,-0.18,0.04
2020-08-13 11:52:54.8580,0.82,-0.08,0.04
2020-08-13 11:52:54.9570,0.88,0.12,0.09
2020-08-13 11:52:55.0570,0.35,-0.8,0.07
2020-08-13 11:52:55.1560,0.28,-0.05,0.22
2020-08-13 11:52:55.2550,-0.0,0.02,0.0
2020-08-13 11:52:55.3540,0.02,0.01,-0.05
2020-08-13 11:52:55.4540,0.08,-0.01,-0.04
2020-08-13 11:52:55.5530,0.0,0.01,-0.03
2020-08-13 11:52:55.6520,-0.02,0.01,-0.02
2020-08-13 11:52:55.7510,-0.04,-0.02,0.03
2020-08-13 11:52:55.8510,-0.02,0.0,-0.01
2020-08-13 11:52:55.9500,-0.04,-0.0,-0.01
2020-08-13 11:52:56.0500,-0.04,-0.03,0.03
2020-08-13 11:52:56.1480,-0.17,-0.18,-0.02
2020-08-13 11:52:56.2480,-0.41,-0.42,0.12
2020-08-13 11:52:56.3470,-0.72,0.03,-0.1
2020-08-13 11:52:56.4470,-0.85,0.03,-0.09
2020-08-13 11:52:56.5450,-0.15,-0.31,-0.08
2020-08-13 11:52:56.6450,0.39,-0.16,0.1
2020-08-13 11:52:56.7440,0.86,-0.07,0.17
2020-08-13 11:52:56.8430,1.05,-0.37,0.02
2020-08-13 11:52:56.9430,1.39,-0.68,0.19
2020-08-13 11:52:57.0420,-0.25,0.09,-0.12
2020-08-13 11:52:57.1410,-0.13,0.04,0.02
2020-08-13 11:52:57.2400,-0.12,0.01,0.03
2020-08-13 11:52:57.3400,0.03,-0.01,-0.05
2020-08-13 11:52:57.4380,0.08,-0.03,-0.09
2020-08-13 11:52:57.5390,0.04,0.02,0.0
2020-08-13 11:52:57.6370,-0.02,-0.01,0.0
2020-08-13 11:52:57.7370,-0.04,-0.01,-0.02
2020-08-13 11:52:57.8360,-0.11,-0.01,0.01
2020-08-13 11:52:57.9350,-0.12,-0.09,0.01
2020-08-13 11:52:58.0340,-0.3,-0.11,-0.09
2020-08-13 11:52:58.1340,-0.51,-0.22,0.43
2020-08-13 11:52:58.2330,-1.21,0.27,0.05
2020-08-13 11:52:58.3330,-0.59,-0.14,-0.16
2020-08-13 11:52:58.4310,0.08,-0.33,-0.07
2020-08-13 11:52:58.5310,0.59,-0.1,0.15
2020-08-13 11:52:58.6300,1.05,0.0,0.16
2020-08-13 11:52:58.7290,-1.16,-1.46,1.29
2020-08-13 11:52:58.8280,-0.32,0.13,0.25
2020-08-13 11:52:58.9280,0.02,0.03,0.03
2020-08-13 11:52:59.0270,-0.01,0.02,-0.02
2020-08-13 11:52:59.1260,-0.05,0.01,0.03
2020-08-13 11:52:59.2260,-0.06,0.02,0.0
2020-08-13 11:52:59.3250,-0.01,-0.0,-0.04
2020-08-13 11:52:59.4240,0.03,-0.0,-0.05
2020-08-13 11:52:59.5230,0.01,0.01,-0.01
2020-08-13 11:52:59.6230,-0.01,-0.02,-0.03
2020-08-13 11:52:59.7220,-0.01,0.01,-0.02
2020-08-13 11:52:59.8210,-0.06,0.02,0.0
2020-08-13 11:52:59.9210,-0.46,-0.13,-0.03
2020-08-13 11:53:00.0190,-0.53,-0.22,0.28
2020-08-13 11:53:00.1190,-1.29,0.48,0.14
2020-08-13 11:53:00.2180,-0.62,-0.24,-0.15
2020-08-13 11:53:00.3180,0.28,-0.33,-0.03
2020-08-13 11:53:00.4160,0.82,-0.24,0.13
2020-08-13 11:53:00.5160,0.79,0.07,0.19
2020-08-13 11:53:00.6150,0.71,-0.51,-0.06
2020-08-13 11:53:00.7140,0.14,-0.13,0.08
2020-08-13 11:53:00.8140,0.03,-0.03,-0.1
2020-08-13 11:53:00.9130,-0.1,-0.0,0.07
2020-08-13 11:53:01.0130,-0.02,-0.03,0.01
2020-08-13 11:53:01.1110,-0.0,0.0,-0.03
2020-08-13 11:53:01.2100,0.0,0.03,-0.04
2020-08-13 11:53:01.3100,-0.0,-0.03,-0.04
2020-08-13 11:53:01.4090,-0.04,-0.02,-0.02
2020-08-13 11:53:01.5080,-0.03,-0.03,-0.03
2020-08-13 11:53:01.6080,-0.08,0.0,-0.0
2020-08-13 11:53:01.7070,-0.31,-0.07,-0.08
2020-08-13 11:53:01.8060,-0.61,-0.34,0.12
2020-08-13 11:53:01.9050,-0.82,0.12,0.28
2020-08-13 11:53:02.0050,-0.8,-0.02,-0.08
2020-08-13 11:53:02.1040,-0.03,-0.41,-0.17
2020-08-13 11:53:02.2040,0.43,-0.24,0.1
2020-08-13 11:53:02.3030,1.14,-0.03,0.12
2020-08-13 11:53:02.4020,-2.66,-0.39,0.18
2020-08-13 11:53:02.5010,0.26,-0.26,0.41
2020-08-13 11:53:02.6000,0.16,0.0,-0.12
2020-08-13 11:53:02.7000,-0.06,0.01,0.01
2020-08-13 11:53:02.7990,0.03,-0.01,-0.1
2020-08-13 11:53:02.8980,0.0,-0.01,-0.08
2020-08-13 11:53:02.9970,-0.07,0.04,0.03
2020-08-13 11:53:03.0970,-0.05,0.02,-0.01
2020-08-13 11:53:03.1960,-0.01,-0.01,-0.01
2020-08-13 11:53:03.2950,-0.02,-0.01,-0.03
2020-08-13 11:53:03.3940,-0.03,-0.01,-0.04
2020-08-13 11:53:03.4930,-0.15,-0.14,-0.01
2020-08-13 11:53:03.5930,-0.58,-0.43,0.08
2020-08-13 11:53:03.6920,0.08,-0.22,0.28
2020-08-13 11:53:03.7910,-0.85,0.2,-0.08
2020-08-13 11:53:03.8910,-0.17,-0.36,-0.17
2020-08-13 11:53:03.9900,0.29,-0.21,0.03
2020-08-13 11:53:04.0900,0.68,-0.1,0.03
2020-08-13 11:53:04.1880,1.03,-0.12,0.01
2020-08-13 11:53:04.2880,1.42,0.11,-0.05
2020-08-13 11:53:04.3870,0.13,-0.09,-0.18
2020-08-13 11:53:04.4860,-0.1,0.04,-0.03
2020-08-13 11:53:04.5850,0.02,-0.01,-0.01
2020-08-13 11:53:04.6850,-0.07,-0.01,-0.03
2020-08-13 11:53:04.7840,-0.06,0.02,-0.03
2020-08-13 11:53:04.8830,-0.01,0.03,-0.02
2020-08-13 11:53:04.9820,-0.02,-0.01,-0.02
2020-08-13 11:53:05.0820,-0.01,-0.02,-0.04
2020-08-13 11:53:05.1810,0.01,-0.01,-0.04
2020-08-13 11:53:05.2810,-0.06,-0.0,0.01
2020-08-13 11:53:05.3790,-0.17,-0.11,-0.0
2020-08-13 11:53:05.4790,-0.56,-0.43,0.15
2020-08-13 11:53:05.5780,-0.86,-0.02,0.23
2020-08-13 11:53:05.6780,-0.95,-0.08,-0.15
2020-08-13 11:53:05.7760,0.02,-0.41,-0.05
2020-08-13 11:53:05.8760,0.56,-0.38,0.11
2020-08-13 11:53:05.9750,1.02,-0.06,0.09
2020-08-13 11:53:06.0750,0.22,-0.46,-0.44
2020-08-13 11:53:06.1730,0.79,-0.36,0.16
2020-08-13 11:53:06.2740,-0.2,0.05,-0.1
2020-08-13 11:53:06.3720,0.01,0.02,-0.03
2020-08-13 11:53:06.4720,-0.04,0.02,-0.0
2020-08-13 11:53:06.5700,0.01,0.01,-0.04
2020-08-13 11:53:06.6700,0.0,0.01,-0.03
2020-08-13 11:53:06.7690,-0.0,0.01,-0.02
2020-08-13 11:53:06.8690,-0.02,-0.01,-0.01
2020-08-13 11:53:06.9680,0.04,-0.03,-0.02
2020-08-13 11:53:07.0670,-0.05,-0.06,-0.0
2020-08-13 11:53:07.1660,-0.28,-0.28,-0.11
2020-08-13 11:53:07.2650,-0.35,-0.17,0.43
2020-08-13 11:53:07.3640,-1.04,0.28,-0.01
2020-08-13 11:53:07.4640,-0.37,-0.19,-0.14
2020-08-13 11:53:07.5630,0.06,-0.29,-0.04
2020-08-13 11:53:07.6620,0.52,-0.13,0.05
2020-08-13 11:53:07.7620,0.98,-0.05,0.04
2020-08-13 11:53:07.8620,-0.33,-0.34,-0.08
2020-08-13 11:53:07.9600,0.13,0.02,0.05
2020-08-13 11:53:08.0600,-0.02,-0.02,-0.14
2020-08-13 11:53:08.1590,0.12,-0.03,-0.12
2020-08-13 11:53:08.2580,0.09,-0.03,-0.04
2020-08-13 11:53:08.3570,0.1,-0.06,-0.09
2020-08-13 11:53:08.4570,0.01,0.01,0.02
2020-08-13 11:53:08.5560,0.02,0.01,-0.02
2020-08-13 11:53:08.6550,0.01,0.02,-0.02
2020-08-13 11:53:08.7540,-0.02,0.01,-0.04
2020-08-13 11:53:08.8540,-0.04,0.0,-0.02
2020-08-13 11:53:08.9530,-0.1,0.02,-0.03
2020-08-13 11:53:09.0530,-0.11,-0.08,-0.05
2020-08-13 11:53:09.1510,-0.55,-0.43,0.22
2020-08-13 11:53:09.2510,-1.09,0.1,0.03
2020-08-13 11:53:09.3500,-0.75,-0.05,-0.08
2020-08-13 11:53:09.4500,0.14,-0.38,-0.08
2020-08-13 11:53:09.5480,0.53,-0.24,0.02
2020-08-13 11:53:09.6480,1.11,-0.09,0.03
2020-08-13 11:53:09.7470,-2.58,-0.36,0.11
2020-08-13 11:53:09.8460,0.06,-0.09,0.61
2020-08-13 11:53:09.9450,0.26,-0.02,-0.11
2020-08-13 11:53:10.0450,0.01,0.0,-0.07
2020-08-13 11:53:10.1440,0.06,-0.03,-0.18
2020-08-13 11:53:10.2440,-0.04,0.03,0.05
2020-08-13 11:53:10.3420,0.04,-0.01,-0.01
2020-08-13 11:53:10.4420,0.01,0.0,-0.04
2020-08-13 11:53:10.5410,-0.01,-0.01,-0.04
2020-08-13 11:53:10.6400,-0.02,-0.04,-0.02
2020-08-13 11:53:10.7400,-0.08,-0.03,-0.03
2020-08-13 11:53:10.8390,-0.55,-0.36,0.12
2020-08-13 11:53:10.9380,-0.46,-0.13,0.27
2020-08-13 11:53:11.0370,-1.05,0.37,0.1
2020-08-13 11:53:11.1370,-0.53,-0.04,-0.1
2020-08-13 11:53:11.2360,-0.02,-0.4,-0.06
2020-08-13 11:53:11.3360,0.24,-0.24,-0.08
2020-08-13 11:53:11.4340,0.89,-0.04,-0.02
2020-08-13 11:53:11.5340,0.93,0.01,0.01
2020-08-13 11:53:11.6330,1.23,-0.32,0.25
2020-08-13 11:53:11.7320,-0.46,0.09,-0.1
2020-08-13 11:53:11.8310,-0.02,0.04,0.05
2020-08-13 11:53:11.9310,0.03,-0.02,-0.04
2020-08-13 11:53:12.0300,-0.04,0.02,-0.02
2020-08-13 11:53:12.1290,-0.01,-0.01,-0.03
2020-08-13 11:53:12.2280,-0.02,0.02,-0.02
2020-08-13 11:53:12.3280,0.06,-0.0,-0.08
2020-08-13 11:53:12.4270,0.01,-0.02,-0.03
2020-08-13 11:53:12.5260,-0.06,0.01,-0.02
2020-08-13 11:53:12.6250,-0.08,-0.01,-0.02
2020-08-13 11:53:12.7250,-0.1,-0.19,-0.06
2020-08-13 11:53:12.8240,-0.55,-0.55,0.06
2020-08-13 11:53:12.9240,-0.61,-0.1,-0.01
2020-08-13 11:53:13.0220,-0.84,-0.02,-0.02
2020-08-13 11:53:13.1220,-0.08,-0.4,-0.09
2020-08-13 11:53:13.2210,0.44,-0.36,-0.02
2020-08-13 11:53:13.3210,1.09,-0.08,-0.01
2020-08-13 11:53:13.4190,0.54,-0.53,-0.04
2020-08-13 11:53:13.5190,0.73,-0.4,0.21
2020-08-13 11:53:13.6180,-0.11,0.03,-0.17
2020-08-13 11:53:13.7170,0.04,-0.0,-0.08
2020-08-13 11:53:13.8170,-0.05,0.03,-0.03
2020-08-13 11:53:13.9160,-0.05,0.0,-0.04
2020-08-13 11:53:14.0150,-0.03,0.02,0.0
2020-08-13 11:53:14.1140,0.0,-0.0,-0.02
2020-08-13 11:53:14.2140,-0.02,0.01,-0.01
2020-08-13 11:53:14.3130,0.01,0.02,-0.07
2020-08-13 11:53:14.4120,-0.11,-0.02,0.02
2020-08-13 11:53:14.5110,-0.3,-0.11,-0.03
2020-08-13 11:53:14.6110,-0.43,-0.45,0.09
2020-08-13 11:53:14.7100,-1.1,0.17,-0.11
2020-08-13 11:53:14.8090,-0.72,-0.12,-0.12
2020-08-13 11:53:14.9080,-0.1,-0.3,-0.03
2020-08-13 11:53:15.0080,0.51,-0.26,-0.01
2020-08-13 11:53:15.1070,0.84,-0.06,0.12
2020-08-13 11:53:15.2070,0.55,-0.39,-0.15
2020-08-13 11:53:15.3050,0.8,-0.46,0.29
2020-08-13 11:53:15.4050,-0.14,0.02,-0.25
2020-08-13 11:53:15.5040,-0.02,0.01,0.07
2020-08-13 11:53:15.6030,-0.08,0.05,0.06
2020-08-13 11:53:15.7020,-0.06,0.01,0.02
2020-08-13 11:53:15.8020,0.01,0.0,-0.0
2020-08-13 11:53:15.9010,0.02,0.0,-0.02
2020-08-13 11:53:16.0010,0.04,-0.01,-0.05
2020-08-13 11:53:16.0990,-0.02,-0.0,-0.02
2020-08-13 11:53:16.1990,-0.03,-0.0,-0.0
2020-08-13 11:53:16.2980,-0.18,-0.08,0.04
2020-08-13 11:53:16.3980,-0.35,-0.19,0.04
2020-08-13 11:53:16.4960,-0.44,-0.19,0.44
2020-08-13 11:53:16.5960,-0.92,0.25,-0.0
2020-08-13 11:53:16.6950,-0.41,-0.15,-0.14
2020-08-13 11:53:16.7950,0.14,-0.35,-0.07
2020-08-13 11:53:16.8930,0.62,-0.17,0.02
2020-08-13 11:53:16.9930,0.98,-0.06,0.08
2020-08-13 11:53:17.0920,-2.5,-0.29,0.26
2020-08-13 11:53:17.1920,0.19,-0.24,0.09
2020-08-13 11:53:17.2900,0.07,0.02,-0.06
2020-08-13 11:53:17.3900,-0.03,0.01,-0.04
2020-08-13 11:53:17.4890,-0.05,0.01,0.0
2020-08-13 11:53:17.5890,-0.08,0.02,-0.01
2020-08-13 11:53:17.6880,-0.03,-0.0,-0.04
2020-08-13 11:53:17.7870,-0.04,-0.0,-0.02
2020-08-13 11:53:17.8860,-0.01,-0.01,-0.03
2020-08-13 11:53:17.9860,0.02,0.02,-0.02
2020-08-13 11:53:18.0850,0.02,-0.02,-0.09
2020-08-13 11:53:18.1840,-0.04,-0.04,0.04
2020-08-13 11:53:18.2830,-0.32,-0.25,-0.03
2020-08-13 11:53:18.3830,-0.4,-0.33,0.27
2020-08-13 11:53:18.4820,-1.17,0.38,0.02
2020-08-13 11:53:18.5810,-0.54,-0.15,-0.13
2020-08-13 11:53:18.6800,0.03,-0.38,-0.04
2020-08-13 11:53:18.7800,0.52,-0.21,0.05
2020-08-13 11:53:18.8790,1.17,-0.1,0.09
2020-08-13 11:53:18.9790,-0.47,-1.12,1.1
2020-08-13 11:53:19.0770,0.35,-0.01,-0.08
2020-08-13 11:53:19.1770,-0.01,0.02,0.06
2020-08-13 11:53:19.2760,-0.09,0.03,0.01
2020-08-13 11:53:19.3760,0.03,-0.03,-0.07
2020-08-13 11:53:19.4740,0.01,-0.02,-0.05
2020-08-13 11:53:19.5740,-0.01,-0.02,-0.08
2020-08-13 11:53:19.6730,-0.01,-0.02,0.01
2020-08-13 11:53:19.7720,-0.02,0.0,0.0
2020-08-13 11:53:19.8720,-0.06,-0.01,-0.04
2020-08-13 11:53:19.9700,-0.08,-0.03,0.03
2020-08-13 11:53:20.0700,-0.25,-0.07,0.01
2020-08-13 11:53:20.1690,-0.94,-0.71,0.18
2020-08-13 11:53:20.2690,-1.08,0.2,-0.13
2020-08-13 11:53:20.3670,-0.63,0.09,-0.01
2020-08-13 11:53:20.4670,0.04,-0.42,-0.09
2020-08-13 11:53:20.5660,0.54,-0.22,0.08
2020-08-13 11:53:20.6660,0.91,-0.08,-0.08
2020-08-13 11:53:20.7650,-0.9,-0.87,0.68
2020-08-13 11:53:20.8640,0.3,-0.21,-0.07
2020-08-13 11:53:20.9630,0.11,-0.0,-0.09
2020-08-13 11:53:21.0630,-0.06,0.03,0.12
2020-08-13 11:53:21.1620,0.08,0.0,-0.01
2020-08-13 11:53:21.2610,0.05,-0.03,-0.14
2020-08-13 11:53:21.3600,-0.02,0.0,-0.04
2020-08-13 11:53:21.4600,-0.01,0.01,0.02
2020-08-13 11:53:21.5590,0.0,0.01,-0.03
2020-08-13 11:53:21.6580,-0.05,-0.04,-0.0
2020-08-13 11:53:21.7570,-0.01,-0.04,-0.11
2020-08-13 11:53:21.8570,-0.07,-0.01,-0.0
2020-08-13 11:53:21.9560,-0.18,-0.15,-0.07
2020-08-13 11:53:22.0550,-0.92,-0.33,0.29
2020-08-13 11:53:22.1540,-1.24,0.43,-0.03
2020-08-13 11:53:22.2540,-0.68,-0.11,-0.1
2020-08-13 11:53:22.3530,0.07,-0.47,-0.07
2020-08-13 11:53:22.4530,0.67,-0.25,0.1
2020-08-13 11:53:22.5510,1.23,-0.06,0.07
2020-08-13 11:53:22.6510,-0.59,-0.86,1.23
2020-08-13 11:53:22.7500,0.61,-0.36,0.22
2020-08-13 11:53:22.8490,0.29,0.0,-0.01
2020-08-13 11:53:22.9480,0.09,-0.01,-0.09
2020-08-13 11:53:23.0480,-0.08,0.01,0.04
2020-08-13 11:53:23.1470,-0.0,0.0,-0.03
2020-08-13 11:53:23.2460,-0.04,-0.0,0.01
2020-08-13 11:53:23.3450,0.03,-0.0,-0.1
2020-08-13 11:53:23.4450,0.02,-0.02,-0.07
2020-08-13 11:53:23.5440,0.06,-0.01,-0.06
2020-08-13 11:53:23.6430,-0.06,-0.03,-0.01
2020-08-13 11:53:23.7420,-0.47,-0.53,-0.09
2020-08-13 11:53:23.8420,-0.46,0.11,0.25
2020-08-13 11:53:23.9410,-1.0,0.6,0.28
2020-08-13 11:53:24.0410,-0.4,-0.29,-0.05
2020-08-13 11:53:24.1390,0.15,-0.49,-0.04
2020-08-13 11:53:24.2390,0.78,-0.18,0.02
2020-08-13 11:53:24.3380,1.04,0.03,0.09
2020-08-13 11:53:24.4380,0.31,-0.48,-0.33
2020-08-13 11:53:24.5360,0.45,-0.09,-0.04
2020-08-13 11:53:24.6360,0.0,0.0,-0.03
2020-08-13 11:53:24.7350,-0.09,0.03,0.05
2020-08-13 11:53:24.8340,-0.01,0.02,-0.01
2020-08-13 11:53:24.9330,-0.01,-0.02,-0.04
2020-08-13 11:53:25.0330,-0.02,-0.04,-0.06
2020-08-13 11:53:25.1320,-0.04,-0.01,0.01
2020-08-13 11:53:25.2310,-0.04,-0.01,-0.01
2020-08-13 11:53:25.3300,-0.0,-0.02,-0.03
2020-08-13 11:53:25.4300,-0.03,-0.03,-0.06
2020-08-13 11:53:25.5290,-0.36,-0.28,0.01
2020-08-13 11:53:25.6290,-0.49,-0.2,0.28
2020-08-13 11:53:25.7270,-1.31,0.38,0.05
2020-08-13 11:53:25.8280,-0.59,-0.28,-0.16
2020-08-13 11:53:25.9270,0.05,-0.45,-0.04
2020-08-13 11:53:26.0250,0.73,-0.29,0.01
2020-08-13 11:53:26.1250,1.26,-0.03,0.0
2020-08-13 11:53:26.2240,-1.18,-1.19,1.24
2020-08-13 11:53:26.3240,0.23,-0.12,0.29
2020-08-13 11:53:26.4220,0.21,0.02,0.02
2020-08-13 11:53:26.5220,-0.02,0.02,0.0
2020-08-13 11:53:26.6210,-0.02,-0.01,-0.03
2020-08-13 11:53:26.7200,-0.03,0.0,0.02
2020-08-13 11:53:26.8200,-0.08,0.02,-0.0
2020-08-13 11:53:26.9190,-0.04,0.01,-0.02
2020-08-13 11:53:27.0180,-0.02,-0.0,-0.03
2020-08-13 11:53:27.1170,-0.02,0.0,-0.05
2020-08-13 11:53:27.2170,0.0,-0.02,-0.11
2020-08-13 11:53:27.3160,-0.14,-0.22,0.03
2020-08-13 11:53:27.4150,-0.48,-0.27,0.13
2020-08-13 11:53:27.5140,-0.7,0.0,0.21
2020-08-13 11:53:27.6140,-0.77,0.05,0.01
2020-08-13 11:53:27.7120,-0.18,-0.33,-0.08
2020-08-13 11:53:27.8120,0.14,-0.17,0.04
2020-08-13 11:53:27.9110,0.76,-0.18,0.09
2020-08-13 11:53:28.0110,1.02,0.1,0.22
2020-08-13 11:53:28.1100,0.86,-0.41,-0.58
2020-08-13 11:53:28.2090,0.54,-0.11,0.04
2020-08-13 11:53:28.3090,0.05,0.01,0.06
2020-08-13 11:53:28.4080,0.02,-0.01,-0.11
2020-08-13 11:53:28.5070,-0.01,0.0,0.05
2020-08-13 11:53:28.6060,0.01,0.01,-0.01
2020-08-13 11:53:28.7060,0.03,-0.02,-0.05
2020-08-13 11:53:28.8050,0.02,0.01,-0.0
2020-08-13 11:53:28.9040,-0.04,0.02,-0.04
2020-08-13 11:53:29.0030,-0.02,0.0,-0.03
2020-08-13 11:53:29.1030,-0.02,0.01,0.02
2020-08-13 11:53:29.2020,-0.06,-0.02,-0.02
2020-08-13 11:53:29.3010,-0.11,-0.25,-0.1
2020-08-13 11:53:29.4000,-0.66,-0.27,0.17
2020-08-13 11:53:29.4990,-1.3,0.36,0.13
2020-08-13 11:53:29.5990,-0.55,-0.11,-0.08
2020-08-13 11:53:29.6980,-0.01,-0.33,-0.02
2020-08-13 11:53:29.7970,0.36,-0.16,0.09
2020-08-13 11:53:29.8960,1.06,-0.13,0.07
2020-08-13 11:53:29.9960,0.61,-0.12,-0.06
2020-08-13 11:53:30.0950,1.26,-0.54,-0.03
2020-08-13 11:53:30.1940,-0.16,0.03,-0.15
2020-08-13 11:53:30.2940,-0.03,0.05,0.07
2020-08-13 11:53:30.3930,0.03,-0.03,-0.09
2020-08-13 11:53:30.4920,0.08,-0.03,-0.09
2020-08-13 11:53:30.5910,-0.04,0.02,-0.04
2020-08-13 11:53:30.6910,-0.05,0.01,-0.01
2020-08-13 11:53:30.7900,-0.03,0.01,-0.02
2020-08-13 11:53:30.8890,-0.03,0.03,-0.02
2020-08-13 11:53:30.9880,-0.03,-0.02,-0.04
2020-08-13 11:53:31.0880,-0.03,-0.02,-0.01
2020-08-13 11:53:31.1870,-0.1,-0.05,-0.03
2020-08-13 11:53:31.2860,-0.55,-0.57,0.04
2020-08-13 11:53:31.3850,-0.07,-0.18,0.34
2020-08-13 11:53:31.4850,-1.19,0.24,-0.06
2020-08-13 11:53:31.5840,-0.29,-0.36,-0.18
2020-08-13 11:53:31.6830,0.37,-0.34,0.06
2020-08-13 11:53:31.7830,1.09,-0.21,0.16
2020-08-13 11:53:31.8810,0.75,-0.55,0.33
2020-08-13 11:53:31.9810,1.05,-0.3,0.02
2020-08-13 11:53:32.0800,-0.03,0.01,-0.03
2020-08-13 11:53:32.1790,0.07,0.04,-0.05
2020-08-13 11:53:32.2790,-0.03,-0.02,0.02
2020-08-13 11:53:32.3780,-0.02,-0.02,-0.06
2020-08-13 11:53:32.4780,-0.06,-0.02,-0.09
2020-08-13 11:53:32.5760,-0.04,0.0,0.06
2020-08-13 11:53:32.6760,0.01,0.0,-0.03
2020-08-13 11:53:32.7750,-0.04,-0.01,0.01
2020-08-13 11:53:32.8750,-0.01,0.01,-0.02
2020-08-13 11:53:32.9730,-0.05,0.0,0.03
2020-08-13 11:53:33.0730,-0.11,-0.0,-0.12
2020-08-13 11:53:33.1720,-0.47,-0.48,0.1
2020-08-13 11:53:33.2720,-1.3,0.26,-0.06
2020-08-13 11:53:33.3710,-0.64,-0.2,-0.14
2020-08-13 11:53:33.4700,0.06,-0.39,0.02
2020-08-13 11:53:33.5690,0.64,-0.24,0.14
2020-08-13 11:53:33.6680,0.96,0.01,0.01
2020-08-13 11:53:33.7690,-1.35,-1.39,0.69
2020-08-13 11:53:33.8670,0.1,-0.22,-0.17
2020-08-13 11:53:33.9660,0.2,0.03,-0.09
2020-08-13 11:53:34.0660,-0.09,-0.0,0.01
2020-08-13 11:53:34.1640,0.01,0.0,-0.07
2020-08-13 11:53:34.2640,-0.05,0.02,0.02
2020-08-13 11:53:34.3640,-0.04,0.01,-0.04
2020-08-13 11:53:34.4620,0.03,-0.01,-0.06
2020-08-13 11:53:34.5620,0.05,0.01,-0.08
2020-08-13 11:53:34.6610,-0.07,-0.01,-0.02
2020-08-13 11:53:34.7600,-0.07,-0.0,-0.01
2020-08-13 11:53:34.8590,-0.08,0.01,-0.02
2020-08-13 11:53:34.9590,-0.19,-0.05,-0.07
2020-08-13 11:53:35.0580,-0.59,-0.35,0.11
2020-08-13 11:53:35.1580,-1.53,0.3,0.07
2020-08-13 11:53:35.2560,-0.79,-0.17,-0.14
2020-08-13 11:53:35.3560,-0.01,-0.45,-0.01
2020-08-13 11:53:35.4550,0.59,-0.32,0.04
2020-08-13 11:53:35.5540,1.1,-0.09,0.15
2020-08-13 11:53:35.6530,-2.84,-0.54,-0.18
2020-08-13 11:53:35.7530,0.02,-0.02,0.18
2020-08-13 11:53:35.8520,0.19,0.0,-0.09
2020-08-13 11:53:35.9510,-0.01,0.01,-0.02
2020-08-13 11:53:36.0500,-0.04,0.01,0.0
2020-08-13 11:53:36.1500,-0.03,-0.02,-0.05
2020-08-13 11:53:36.2490,-0.01,-0.01,-0.04
2020-08-13 11:53:36.3480,-0.03,-0.0,0.01
2020-08-13 11:53:36.4480,-0.0,-0.02,-0.03
2020-08-13 11:53:36.5470,-0.03,-0.01,-0.04
2020-08-13 11:53:36.6460,-0.03,0.0,-0.05
2020-08-13 11:53:36.7450,-0.07,-0.01,0.01
2020-08-13 11:53:36.8450,-0.49,-0.42,-0.07
2020-08-13 11:53:36.9440,-0.02,-0.24,0.37
2020-08-13 11:53:37.0440,-1.28,0.25,-0.02
2020-08-13 11:53:37.1420,-0.32,-0.36,-0.22
2020-08-13 11:53:37.2420,0.41,-0.42,0.04
2020-08-13 11:53:37.3410,1.04,-0.15,0.11
2020-08-13 11:53:37.4400,0.93,-0.57,0.49
2020-08-13 11:53:37.5390,1.28,-0.65,-0.14
2020-08-13 11:53:37.6390,0.05,-0.03,-0.05
2020-08-13 11:53:37.7380,-0.03,0.03,0.04
2020-08-13 11:53:37.8370,0.01,0.02,0.01
2020-08-13 11:53:37.9370,0.02,0.01,-0.02
2020-08-13 11:53:38.0360,0.08,-0.04,-0.1
2020-08-13 11:53:38.1350,-0.01,-0.04,-0.03
2020-08-13 11:53:38.2340,-0.04,-0.02,-0.0
2020-08-13 11:53:38.3340,-0.05,0.01,-0.0
2020-08-13 11:53:38.4330,-0.04,-0.01,-0.04
2020-08-13 11:53:38.5320,-0.08,-0.02,-0.01
2020-08-13 11:53:38.6310,-0.17,-0.03,0.04
2020-08-13 11:53:38.7300,-0.57,-0.64,0.02
2020-08-13 11:53:38.8300,0.0,-0.21,0.26
2020-08-13 11:53:38.9290,-0.95,0.24,0.02
2020-08-13 11:53:39.0280,-0.22,-0.31,-0.11
2020-08-13 11:53:39.1280,0.24,-0.32,0.01
2020-08-13 11:53:39.2270,0.81,-0.21,0.04
2020-08-13 11:53:39.3270,1.12,-0.04,0.06
2020-08-13 11:53:39.4250,1.23,-0.32,-0.28
2020-08-13 11:53:39.5250,0.13,-0.09,-0.08
2020-08-13 11:53:39.6240,0.08,0.0,-0.05
2020-08-13 11:53:39.7230,0.01,-0.0,-0.03
2020-08-13 11:53:39.8220,-0.19,0.01,0.16
2020-08-13 11:53:39.9220,-0.12,0.02,0.03
2020-08-13 11:53:40.0210,-0.04,0.0,-0.04
2020-08-13 11:53:40.1210,0.11,-0.02,-0.07
2020-08-13 11:53:40.2190,-0.02,-0.02,-0.01
2020-08-13 11:53:40.3190,-0.12,-0.02,0.01
2020-08-13 11:53:40.4180,-0.11,-0.02,-0.01
2020-08-13 11:53:40.5170,-0.07,-0.0,0.01
2020-08-13 11:53:40.6160,-0.21,-0.2,-0.11
2020-08-13 11:53:40.7160,-0.42,-0.17,0.35
2020-08-13 11:53:40.8150,-1.06,0.46,0.09
2020-08-13 11:53:40.9140,-0.53,-0.18,-0.09
2020-08-13 11:53:41.0140,0.09,-0.4,-0.03
2020-08-13 11:53:41.1130,0.62,-0.17,0.07
2020-08-13 11:53:41.2120,1.28,-0.07,0.12
2020-08-13 11:53:41.3110,-1.41,-0.62,1.22
2020-08-13 11:53:41.4110,0.56,-0.39,0.02
2020-08-13 11:53:41.5100,0.27,0.02,0.01
2020-08-13 11:53:41.6090,0.02,-0.02,-0.05
2020-08-13 11:53:41.7080,-0.07,0.05,0.07
2020-08-13 11:53:41.8080,0.05,-0.03,-0.13
2020-08-13 11:53:41.9070,0.04,-0.01,-0.03
2020-08-13 11:53:42.0060,0.01,-0.0,-0.02
2020-08-13 11:53:42.1060,-0.04,-0.02,0.06
2020-08-13 11:53:42.2050,-0.08,0.02,-0.01
2020-08-13 11:53:42.3040,-0.04,0.01,-0.01
2020-08-13 11:53:42.4030,-0.03,-0.03,-0.02
2020-08-13 11:53:42.5030,-0.16,-0.21,-0.14
2020-08-13 11:53:42.6020,-0.85,-0.42,0.18
2020-08-13 11:53:42.7010,-1.38,0.29,-0.05
2020-08-13 11:53:42.8000,-0.68,-0.02,-0.1
2020-08-13 11:53:42.9000,0.04,-0.41,-0.04
2020-08-13 11:53:42.9990,0.67,-0.28,0.08
2020-08-13 11:53:43.0990,1.16,-0.02,0.0
2020-08-13 11:53:43.1980,-2.72,-0.55,0.14
2020-08-13 11:53:43.2970,0.22,-0.07,0.2
2020-08-13 11:53:43.3960,0.11,-0.01,-0.06
2020-08-13 11:53:43.4950,0.0,0.0,0.03
2020-08-13 11:53:43.5940,-0.06,0.03,0.01
2020-08-13 11:53:43.6940,0.01,-0.01,-0.05
2020-08-13 11:53:43.7930,-0.03,0.01,-0.02
2020-08-13 11:53:43.8930,0.02,-0.0,-0.01
2020-08-13 11:53:43.9910,0.0,0.01,-0.03
2020-08-13 11:53:44.0910,-0.0,-0.01,-0.04
2020-08-13 11:53:44.1900,0.01,-0.03,-0.05
2020-08-13 11:53:44.2900,-0.06,-0.01,-0.02
2020-08-13 11:53:44.3880,-0.18,-0.05,-0.1
2020-08-13 11:53:44.4880,-0.73,-0.55,0.05
2020-08-13 11:53:44.5870,-0.64,-0.03,0.01
2020-08-13 11:53:44.6870,-0.76,0.02,-0.02
2020-08-13 11:53:44.7850,-0.09,-0.4,-0.09
2020-08-13 11:53:44.8850,0.41,-0.39,0.06
2020-08-13 11:53:44.9840,1.0,-0.11,0.06
2020-08-13 11:53:45.0840,0.98,0.0,0.13
2020-08-13 11:53:45.1820,1.3,-0.11,0.23
2020-08-13 11:53:45.2820,-0.32,-0.02,-0.11
2020-08-13 11:53:45.3810,-0.03,0.03,-0.04
2020-08-13 11:53:45.4810,0.07,-0.02,-0.06
2020-08-13 11:53:45.5790,0.06,0.01,-0.11
2020-08-13 11:53:45.6790,-0.03,-0.01,-0.08
2020-08-13 11:53:45.7780,0.0,0.0,-0.01
2020-08-13 11:53:45.8780,-0.0,0.01,-0.03
2020-08-13 11:53:45.9760,-0.03,-0.01,-0.03
2020-08-13 11:53:46.0760,0.01,-0.01,-0.05
2020-08-13 11:53:46.1750,-0.02,-0.01,-0.02
2020-08-13 11:53:46.2740,-0.03,-0.08,-0.05
2020-08-13 11:53:46.3740,-0.54,-0.44,0.08
2020-08-13 11:53:46.4730,-0.16,-0.17,0.19
2020-08-13 11:53:46.5720,-0.94,0.17,-0.02
2020-08-13 11:53:46.6710,-0.36,-0.2,-0.1
2020-08-13 11:53:46.7710,0.12,-0.36,-0.05
2020-08-13 11:53:46.8700,0.69,-0.19,0.09
2020-08-13 11:53:46.9690,0.81,0.01,0.09
2020-08-13 11:53:47.0680,-0.48,-0.9,0.86
2020-08-13 11:53:47.1680,0.31,-0.08,0.12
2020-08-13 11:53:47.2670,0.13,-0.01,0.03
2020-08-13 11:53:47.3670,-0.02,0.0,-0.04
2020-08-13 11:53:47.4650,0.05,0.02,-0.01
2020-08-13 11:53:47.5650,-0.0,-0.0,-0.05
2020-08-13 11:53:47.6640,-0.01,0.0,-0.04
2020-08-13 11:53:47.7630,0.04,-0.01,-0.02
2020-08-13 11:53:47.8630,-0.05,0.01,0.01
2020-08-13 11:53:47.9620,-0.12,0.01,0.01
2020-08-13 11:53:48.0610,-0.03,-0.0,-0.03
2020-08-13 11:53:48.1610,-0.1,-0.05,-0.03
2020-08-13 11:53:48.2590,-0.41,-0.55,-0.15
2020-08-13 11:53:48.3590,-0.04,-0.1,0.52
2020-08-13 11:53:48.4580,-1.23,0.23,-0.08
2020-08-13 11:53:48.5570,-0.43,-0.4,-0.1
2020-08-13 11:53:48.6570,0.54,-0.32,0.12
2020-08-13 11:53:48.7560,1.09,-0.15,0.09
2020-08-13 11:53:48.8550,-0.51,-0.8,-0.02
2020-08-13 11:53:48.9540,0.34,-0.24,-0.05
2020-08-13 11:53:49.0540,-0.03,-0.03,-0.09
2020-08-13 11:53:49.1530,0.03,-0.0,-0.07
2020-08-13 11:53:49.2520,0.0,-0.01,-0.02
2020-08-13 11:53:49.3510,-0.06,0.0,-0.03
2020-08-13 11:53:49.4510,-0.03,0.0,-0.02
2020-08-13 11:53:49.5500,0.02,-0.0,-0.09
2020-08-13 11:53:49.6490,-0.03,-0.03,-0.02
2020-08-13 11:53:49.7480,0.01,-0.01,-0.03
2020-08-13 11:53:49.8480,-0.01,-0.01,-0.05
2020-08-13 11:53:49.9470,-0.0,0.0,-0.04
2020-08-13 11:53:50.0460,-0.16,-0.11,-0.0
2020-08-13 11:53:50.1460,-0.82,-0.71,0.19
2020-08-13 11:53:50.2450,-1.18,0.2,-0.05
2020-08-13 11:53:50.3440,-0.73,0.01,-0.05
2020-08-13 11:53:50.4440,0.03,-0.42,0.02
2020-08-13 11:53:50.5420,0.48,-0.23,0.09
2020-08-13 11:53:50.6420,0.97,0.0,0.02
2020-08-13 11:53:50.7410,-1.28,-0.63,-0.73
2020-08-13 11:53:50.8410,-0.0,-0.1,0.35
2020-08-13 11:53:50.9390,-0.01,-0.0,-0.15
2020-08-13 11:53:51.0390,-0.1,0.04,0.0
2020-08-13 11:53:51.1380,-0.15,0.08,0.07
2020-08-13 11:53:51.2380,-0.07,0.0,-0.12
2020-08-13 11:53:51.3370,0.01,-0.01,-0.07
2020-08-13 11:53:51.4360,-0.03,-0.01,-0.02
2020-08-13 11:53:51.5350,0.03,0.03,-0.03
2020-08-13 11:53:51.6340,-0.01,-0.01,-0.06
2020-08-13 11:53:51.7340,0.0,-0.02,-0.04
2020-08-13 11:53:51.8330,-0.03,-0.0,-0.06
2020-08-13 11:53:51.9320,-0.03,-0.03,-0.04
2020-08-13 11:53:52.0320,-0.24,-0.16,0.01
2020-08-13 11:53:52.1300,-0.82,-0.55,0.2
2020-08-13 11:53:52.2300,-1.63,0.44,0.02
2020-08-13 11:53:52.3290,-0.66,-0.2,-0.19
2020-08-13 11:53:52.4290,0.09,-0.46,-0.08
2020-08-13 11:53:52.5280,0.82,-0.32,0.08
2020-08-13 11:53:52.6270,1.2,0.0,0.18
2020-08-13 11:53:52.7270,0.19,-0.91,0.3
2020-08-13 11:53:52.8250,0.57,-0.18,-0.28
2020-08-13 11:53:52.9250,0.2,-0.02,0.03
2020-08-13 11:53:53.0240,-0.14,0.1,0.14
2020-08-13 11:53:53.1230,0.08,-0.04,-0.06
2020-08-13 11:53:53.2220,-0.03,-0.01,-0.08
2020-08-13 11:53:53.3220,-0.02,0.0,-0.02
2020-08-13 11:53:53.4210,0.07,-0.01,-0.1
2020-08-13 11:53:53.5210,0.04,0.02,-0.03
2020-08-13 11:53:53.6190,0.01,-0.0,-0.06
2020-08-13 11:53:53.7190,0.05,-0.0,-0.04
2020-08-13 11:53:53.8180,-0.05,-0.02,-0.01
2020-08-13 11:53:53.9180,-0.06,0.02,-0.04
2020-08-13 11:53:54.0160,-0.4,-0.45,-0.02
2020-08-13 11:53:54.1160,-0.03,0.04,0.35
2020-08-13 11:53:54.2150,-1.05,0.26,-0.1
2020-08-13 11:53:54.3150,-0.28,-0.28,-0.14
2020-08-13 11:53:54.4140,0.34,-0.39,-0.01
2020-08-13 11:53:54.5130,0.81,-0.19,0.15
2020-08-13 11:53:54.6120,1.05,-0.11,0.26
2020-08-13 11:53:54.7120,1.16,-0.33,-0.37
2020-08-13 11:53:54.8100,0.39,0.08,-0.2
2020-08-13 11:53:54.9100,-0.03,0.02,0.13
2020-08-13 11:53:55.0090,-0.09,0.05,-0.03
2020-08-13 11:53:55.1090,0.02,0.0,-0.03
2020-08-13 11:53:55.2080,0.06,0.0,-0.07
2020-08-13 11:53:55.3070,0.01,0.01,-0.05
2020-08-13 11:53:55.4060,-0.0,-0.02,-0.02
2020-08-13 11:53:55.5050,0.01,-0.01,-0.03
2020-08-13 11:53:55.6050,0.01,0.01,-0.05
2020-08-13 11:53:55.7040,-0.01,-0.02,-0.04
2020-08-13 11:53:55.8040,-0.05,-0.04,-0.07
2020-08-13 11:53:55.9020,-0.2,-0.15,-0.11
2020-08-13 11:53:56.0020,-0.91,-0.58,0.24
2020-08-13 11:53:56.1020,-1.17,0.02,-0.19
2020-08-13 11:53:56.2000,-0.83,-0.12,-0.22
2020-08-13 11:53:56.3000,0.21,-0.47,-0.08
2020-08-13 11:53:56.3990,0.99,-0.5,0.11
2020-08-13 11:53:56.4980,1.12,-0.09,0.17
2020-08-13 11:53:56.5970,1.5,-0.09,-0.42
2020-08-13 11:53:56.6970,0.08,-0.09,-0.03
2020-08-13 11:53:56.7960,0.06,-0.01,0.01
2020-08-13 11:53:56.8960,-0.04,0.01,-0.01
2020-08-13 11:53:56.9940,-0.03,0.03,-0.05
2020-08-13 11:53:57.0940,0.0,0.01,0.02
2020-08-13 11:53:57.1930,-0.11,0.04,-0.01
2020-08-13 11:53:57.2920,-0.03,-0.01,-0.04
2020-08-13 11:53:57.3910,-0.01,0.0,-0.0
2020-08-13 11:53:57.4910,-0.0,-0.02,-0.07
2020-08-13 11:53:57.5900,0.08,0.02,-0.07
2020-08-13 11:53:57.6890,-0.08,0.03,-0.04
2020-08-13 11:53:57.7880,-0.51,-0.48,-0.03
2020-08-13 11:53:57.8880,-0.06,-0.16,0.33
2020-08-13 11:53:57.9870,-1.1,0.41,0.03
2020-08-13 11:53:58.0870,-0.47,-0.26,-0.22
2020-08-13 11:53:58.1850,0.27,-0.39,0.02
2020-08-13 11:53:58.2850,0.82,-0.23,0.05
2020-08-13 11:53:58.3840,0.85,-0.0,0.07
2020-08-13 11:53:58.4840,0.6,-0.41,-0.51
2020-08-13 11:53:58.5820,0.04,0.06,0.05
2020-08-13 11:53:58.6820,-0.02,-0.01,-0.02
2020-08-13 11:53:58.7810,0.04,-0.05,-0.07
2020-08-13 11:53:58.8800,-0.01,-0.0,0.01
2020-08-13 11:53:58.9800,-0.0,0.0,-0.01
2020-08-13 11:53:59.0790,0.01,-0.0,-0.03
2020-08-13 11:53:59.1780,0.05,-0.0,-0.03
2020-08-13 11:53:59.2770,-0.01,0.01,-0.03
2020-08-13 11:53:59.3770,0.0,-0.01,-0.04
2020-08-13 11:53:59.4760,-0.05,-0.01,-0.02
2020-08-13 11:53:59.5760,-0.06,-0.03,-0.04
2020-08-13 11:53:59.6740,-0.1,-0.0,0.01
2020-08-13 11:53:59.7740,-0.55,-0.48,0.02
2020-08-13 11:53:59.8730,0.16,-0.2,0.3
2020-08-13 11:53:59.9720,-1.2,0.34,-0.01
2020-08-13 11:54:00.0710,-0.31,-0.29,-0.15
2020-08-13 11:54:00.1710,0.33,-0.41,0.04
2020-08-13 11:54:00.2700,0.81,-0.15,-0.04
2020-08-13 11:54:00.3700,1.01,-0.03,0.13
2020-08-13 11:54:00.4680,0.06,-0.64,0.3
2020-08-13 11:54:00.5680,0.34,-0.01,0.02
2020-08-13 11:54:00.6670,0.03,0.04,0.05
2020-08-13 11:54:00.7670,0.02,0.01,-0.09
2020-08-13 11:54:00.8650,0.09,-0.04,-0.08
2020-08-13 11:54:00.9640,-0.11,0.01,0.07
2020-08-13 11:54:01.0640,-0.08,0.02,0.01
2020-08-13 11:54:01.1640,-0.05,-0.01,-0.01
2020-08-13 11:54:01.2620,-0.05,-0.01,-0.01
2020-08-13 11:54:01.3620,-0.0,0.02,-0.04
2020-08-13 11:54:01.4610,0.0,-0.01,-0.05
2020-08-13 11:54:01.5600,-0.06,-0.01,-0.05
2020-08-13 11:54:01.6590,-0.07,-0.1,-0.01
2020-08-13 11:54:01.7590,-0.58,-0.43,0.02
2020-08-13 11:54:01.8580,-1.11,0.21,-0.11
2020-08-13 11:54:01.9570,-0.77,-0.05,-0.08
2020-08-13 11:54:02.0560,-0.14,-0.41,-0.07
2020-08-13 11:54:02.1560,0.42,-0.35,0.08
2020-08-13 11:54:02.2550,1.12,-0.12,0.05
2020-08-13 11:54:02.3550,-1.19,-0.34,-0.79
2020-08-13 11:54:02.4530,0.96,-0.66,0.33
2020-08-13 11:54:02.5530,-0.08,0.04,0.09
2020-08-13 11:54:02.6520,-0.06,0.05,0.04
2020-08-13 11:54:02.7510,-0.07,-0.02,-0.06
2020-08-13 11:54:02.8510,0.06,-0.01,-0.12
2020-08-13 11:54:02.9500,0.01,-0.02,-0.03
2020-08-13 11:54:03.0490,0.01,-0.0,-0.05
2020-08-13 11:54:03.1490,0.04,-0.04,-0.06
2020-08-13 11:54:03.2480,-0.07,0.01,0.01
2020-08-13 11:54:03.3470,-0.07,0.01,-0.03
2020-08-13 11:54:03.4460,-0.02,-0.01,-0.02
2020-08-13 11:54:03.5450,-0.03,-0.0,-0.03
2020-08-13 11:54:03.6450,-0.32,-0.26,-0.01
2020-08-13 11:54:03.7440,-0.36,-0.26,0.4
2020-08-13 11:54:03.8440,-1.01,0.34,-0.0
2020-08-13 11:54:03.9420,-0.37,-0.15,-0.13
2020-08-13 11:54:04.0420,0.15,-0.28,-0.07
2020-08-13 11:54:04.1410,0.55,-0.19,0.05
2020-08-13 11:54:04.2410,0.84,-0.07,0.02
2020-08-13 11:54:04.3390,-0.67,-0.35,-0.62
2020-08-13 11:54:04.4390,0.52,-0.52,0.46
2020-08-13 11:54:04.5380,-0.04,-0.01,-0.18
2020-08-13 11:54:04.6380,0.05,0.04,0.03
2020-08-13 11:54:04.7360,-0.16,0.13,0.19
2020-08-13 11:54:04.8360,0.0,-0.04,-0.1
2020-08-13 11:54:04.9350,0.04,-0.01,-0.05
2020-08-13 11:54:05.0340,0.03,-0.04,0.03
2020-08-13 11:54:05.1340,0.03,0.04,-0.02
2020-08-13 11:54:05.2330,0.04,-0.02,-0.05
2020-08-13 11:54:05.3320,0.02,0.01,-0.02
2020-08-13 11:54:05.4310,0.01,-0.0,-0.02
2020-08-13 11:54:05.5310,-0.15,-0.18,-0.13
2020-08-13 11:54:05.6300,-0.66,-0.48,0.13
2020-08-13 11:54:05.7290,-0.78,-0.09,-0.14
2020-08-13 11:54:05.8280,-0.8,0.01,-0.14
2020-08-13 11:54:05.9280,-0.04,-0.35,-0.08
2020-08-13 11:54:06.0270,0.56,-0.34,0.04
2020-08-13 11:54:06.1260,1.06,-0.08,0.04
2020-08-13 11:54:06.2260,-1.83,-0.29,-0.35
2020-08-13 11:54:06.3250,0.0,-0.07,0.18
2020-08-13 11:54:06.4240,0.1,-0.05,-0.2
2020-08-13 11:54:06.5230,-0.01,0.02,0.04
2020-08-13 11:54:06.6230,-0.01,-0.0,-0.03
2020-08-13 11:54:06.7220,-0.06,-0.0,0.02
2020-08-13 11:54:06.8220,-0.0,-0.06,-0.07
2020-08-13 11:54:06.9200,-0.01,0.01,0.06
2020-08-13 11:54:07.0200,-0.01,0.01,-0.03
2020-08-13 11:54:07.1190,-0.06,0.01,-0.01
2020-08-13 11:54:07.2180,-0.03,-0.02,-0.04
2020-08-13 11:54:07.3180,0.01,0.0,-0.04
2020-08-13 11:54:07.4160,-0.07,-0.02,-0.01
2020-08-13 11:54:07.5160,-0.58,-0.49,0.04
2020-08-13 11:54:07.6150,0.24,-0.18,0.25
2020-08-13 11:54:07.7140,-1.02,0.31,0.05
2020-08-13 11:54:07.8130,-0.35,-0.29,-0.13
2020-08-13 11:54:07.9130,0.29,-0.29,-0.05
2020-08-13 11:54:08.0120,0.65,-0.2,-0.0
2020-08-13 11:54:08.1120,1.09,0.0,0.08
2020-08-13 11:54:08.2100,0.94,-0.2,-0.35
2020-08-13 11:54:08.3100,0.42,-0.1,-0.16
2020-08-13 11:54:08.4090,0.0,0.01,0.0
2020-08-13 11:54:08.5090,0.01,-0.0,-0.08
2020-08-13 11:54:08.6070,-0.02,-0.01,-0.03
2020-08-13 11:54:08.7070,-0.05,0.0,-0.04
2020-08-13 11:54:08.8060,-0.12,-0.01,0.09
2020-08-13 11:54:08.9050,-0.04,-0.03,-0.01
2020-08-13 11:54:09.0050,-0.0,-0.03,-0.02
2020-08-13 11:54:09.1040,-0.02,-0.02,-0.02
2020-08-13 11:54:09.2040,-0.03,-0.01,-0.03
2020-08-13 11:54:09.3030,-0.11,-0.1,-0.04
2020-08-13 11:54:09.4020,-0.65,-0.42,0.09
2020-08-13 11:54:09.5010,-0.1,-0.17,0.37
2020-08-13 11:54:09.6010,-0.94,0.21,0.0
2020-08-13 11:54:09.7000,-0.07,-0.31,-0.16
2020-08-13 11:54:09.7990,0.22,-0.27,-0.06
2020-08-13 11:54:09.8980,0.83,-0.24,0.11
2020-08-13 11:54:09.9980,1.13,-0.03,0.01
2020-08-13 11:54:10.0960,1.26,-0.23,-0.58
2020-08-13 11:54:10.1960,0.06,0.04,0.0
2020-08-13 11:54:10.2950,0.1,-0.04,-0.02
2020-08-13 11:54:10.3950,0.1,-0.06,-0.22
2020-08-13 11:54:10.4930,-0.02,0.01,-0.03
2020-08-13 11:54:10.5930,-0.02,0.01,0.02
2020-08-13 11:54:10.6920,-0.03,-0.0,-0.03
2020-08-13 11:54:10.7910,-0.03,-0.01,-0.06
2020-08-13 11:54:10.8910,0.0,0.0,-0.02
2020-08-13 11:54:10.9900,-0.03,-0.01,-0.02
2020-08-13 11:54:11.0900,-0.02,-0.04,-0.03
2020-08-13 11:54:11.1880,-0.02,0.01,-0.03
2020-08-13 11:54:11.2880,-0.07,-0.07,-0.0
2020-08-13 11:54:11.3870,-0.59,-0.49,0.11
2020-08-13 11:54:11.4870,0.22,-0.25,0.3
2020-08-13 11:54:11.5860,-1.02,0.2,-0.09
2020-08-13 11:54:11.6850,-0.22,-0.36,-0.18
2020-08-13 11:54:11.7840,0.37,-0.52,0.05
2020-08-13 11:54:11.8830,1.04,-0.13,0.15
2020-08-13 11:54:11.9830,0.09,-0.57,-0.04
2020-08-13 11:54:12.0820,0.61,-0.23,-0.0
2020-08-13 11:54:12.1810,-0.05,-0.05,-0.19
2020-08-13 11:54:12.2800,-0.06,0.04,-0.04
2020-08-13 11:54:12.3790,-0.05,0.02,0.0
2020-08-13 11:54:12.4790,-0.07,-0.01,-0.01
2020-08-13 11:54:12.5780,-0.01,-0.03,-0.01
2020-08-13 11:54:12.6770,0.02,0.03,0.01
2020-08-13 11:54:12.7770,-0.01,-0.05,-0.1
2020-08-13 11:54:12.8760,-0.06,-0.02,0.05
2020-08-13 11:54:12.9750,-0.03,-0.01,-0.05
2020-08-13 11:54:13.0740,-0.01,-0.03,-0.01
2020-08-13 11:54:13.1740,-0.42,-0.28,-0.2
2020-08-13 11:54:13.2730,-0.15,-0.34,0.27
2020-08-13 11:54:13.3720,-1.28,0.47,0.06
2020-08-13 11:54:13.4720,-0.61,-0.03,-0.15
2020-08-13 11:54:13.5710,0.03,-0.47,-0.02
2020-08-13 11:54:13.6700,0.6,-0.29,0.07
2020-08-13 11:54:13.7690,0.89,-0.05,-0.09
2020-08-13 11:54:13.8690,-1.81,-0.56,-0.45
2020-08-13 11:54:13.9680,-0.14,-0.11,0.28
2020-08-13 11:54:14.0670,-0.13,0.06,-0.0
2020-08-13 11:54:14.1670,-0.04,0.02,-0.07
2020-08-13 11:54:14.2650,-0.04,0.01,0.01
2020-08-13 11:54:14.3650,-0.05,-0.01,-0.07
2020-08-13 11:54:14.4640,-0.18,0.02,0.06
2020-08-13 11:54:14.5640,-0.07,0.0,-0.02
2020-08-13 11:54:14.6620,0.0,-0.0,-0.05
2020-08-13 11:54:14.7620,-0.05,0.0,-0.05
2020-08-13 11:54:14.8610,-0.06,-0.01,-0.04
2020-08-13 11:54:14.9610,-0.01,-0.02,-0.0
2020-08-13 11:54:15.0590,-0.39,-0.24,-0.07
2020-08-13 11:54:15.1590,-0.69,-0.33,0.18
2020-08-13 11:54:15.2580,-1.2,0.17,-0.02
2020-08-13 11:54:15.3580,-0.66,0.1,-0.09
2020-08-13 11:54:15.4560,-0.04,-0.32,-0.07
2020-08-13 11:54:15.5560,0.48,-0.31,0.09
2020-08-13 11:54:15.6560,0.99,-0.05,0.04
2020-08-13 11:54:15.7540,0.29,-0.31,-0.05
2020-08-13 11:54:15.8530,0.4,-0.18,0.18
2020-08-13 11:54:15.9530,-0.15,-0.02,-0.31
2020-08-13 11:54:16.0530,-0.1,0.05,0.09
2020-08-13 11:54:16.1510,-0.05,0.0,-0.01
2020-08-13 11:54:16.2510,0.01,-0.0,-0.05
2020-08-13 11:54:16.3500,-0.02,0.0,-0.02
2020-08-13 11:54:16.4490,-0.02,0.01,-0.01
2020-08-13 11:54:16.5490,0.04,-0.0,-0.05
2020-08-13 11:54:16.6480,-0.01,0.0,-0.02
2020-08-13 11:54:16.7470,-0.06,-0.0,-0.03
2020-08-13 11:54:16.8460,-0.08,-0.01,-0.03
2020-08-13 11:54:16.9460,-0.09,-0.03,-0.03
2020-08-13 11:54:17.0450,-0.65,-0.5,0.05
2020-08-13 11:54:17.1440,0.05,-0.15,0.3
2020-08-13 11:54:17.2430,-1.03,0.29,0.0
2020-08-13 11:54:17.3430,-0.3,-0.33,-0.19
2020-08-13 11:54:17.4420,0.33,-0.5,-0.06
2020-08-13 11:54:17.5410,0.86,-0.23,0.07
2020-08-13 11:54:17.6400,0.96,-0.04,0.15
2020-08-13 11:54:17.7400,1.23,-0.16,-0.25
2020-08-13 11:54:17.8390,-0.14,-0.01,-0.09
2020-08-13 11:54:17.9380,-0.03,0.04,-0.03
2020-08-13 11:54:18.0370,-0.02,0.01,-0.07
2020-08-13 11:54:18.1370,-0.0,-0.01,-0.03
2020-08-13 11:54:18.2360,0.01,-0.0,-0.0
2020-08-13 11:54:18.3350,0.04,-0.0,-0.05
2020-08-13 11:54:18.4340,0.03,-0.02,-0.05
2020-08-13 11:54:18.5340,-0.05,-0.02,0.04
2020-08-13 11:54:18.6330,-0.05,-0.04,0.01
2020-08-13 11:54:18.7330,-0.11,-0.02,0.08
2020-08-13 11:54:18.8310,-0.21,-0.14,-0.11
2020-08-13 11:54:18.9310,-0.78,-0.44,0.26
2020-08-13 11:54:19.0300,-1.37,0.28,0.07
2020-08-13 11:54:19.1290,-0.71,-0.03,-0.15
2020-08-13 11:54:19.2280,0.07,-0.44,-0.05
2020-08-13 11:54:19.3280,0.73,-0.3,0.08
2020-08-13 11:54:19.4270,1.1,-0.02,0.02
2020-08-13 11:54:19.5260,0.09,-0.86,0.54
2020-08-13 11:54:19.6250,0.36,-0.11,-0.0
2020-08-13 11:54:19.7250,0.2,0.01,0.0
2020-08-13 11:54:19.8240,0.09,-0.04,-0.1
2020-08-13 11:54:19.9230,0.01,-0.02,0.04
2020-08-13 11:54:20.0220,0.01,-0.03,-0.08
2020-08-13 11:54:20.1220,-0.0,0.01,-0.03
2020-08-13 11:54:20.2210,-0.08,0.0,0.01
2020-08-13 11:54:20.3210,-0.01,0.01,-0.01
2020-08-13 11:54:20.4200,-0.02,-0.01,-0.02
2020-08-13 11:54:20.5190,-0.01,-0.01,-0.01
2020-08-13 11:54:20.6180,-0.07,-0.02,-0.02
2020-08-13 11:54:20.7180,-0.12,-0.08,-0.01
2020-08-13 11:54:20.8170,-0.72,-0.64,0.08
2020-08-13 11:54:20.9160,0.32,-0.33,0.14
2020-08-13 11:54:21.0150,-1.03,0.21,-0.04
2020-08-13 11:54:21.1140,-0.14,-0.35,-0.19
2020-08-13 11:54:21.2140,0.42,-0.28,-0.06
2020-08-13 11:54:21.3130,1.04,-0.22,0.11
2020-08-13 11:54:21.4120,0.85,-0.25,0.07
2020-08-13 11:54:21.5120,0.74,-0.1,-0.28
2020-08-13 11:54:21.6110,-0.15,0.01,-0.06
2020-08-13 11:54:21.7100,0.04,0.02,-0.04
2020-08-13 11:54:21.8100,0.01,-0.02,-0.0
2020-08-13 11:54:21.9080,0.04,-0.02,-0.06
2020-08-13 11:54:22.0080,-0.05,-0.01,-0.05
2020-08-13 11:54:22.1070,-0.07,-0.05,-0.03
2020-08-13 11:54:22.2070,-0.1,0.0,-0.01
2020-08-13 11:54:22.3050,0.02,-0.0,-0.04
2020-08-13 11:54:22.4050,-0.06,-0.06,0.04
2020-08-13 11:54:22.5040,-0.14,-0.01,0.02
2020-08-13 11:54:22.6040,-0.04,0.01,-0.0
2020-08-13 11:54:22.7020,-0.23,-0.09,-0.11
2020-08-13 11:54:22.8020,-0.88,-0.54,0.21
2020-08-13 11:54:22.9010,-1.24,0.19,0.12
2020-08-13 11:54:23.0010,-0.64,-0.0,-0.12
2020-08-13 11:54:23.0990,-0.04,-0.41,-0.08
2020-08-13 11:54:23.1990,0.66,-0.44,0.09
2020-08-13 11:54:23.2980,1.21,-0.13,-0.0
2020-08-13 11:54:23.3980,-2.11,-0.34,0.31
2020-08-13 11:54:23.4960,-0.2,0.03,0.3
2020-08-13 11:54:23.5960,-0.13,0.04,-0.13
2020-08-13 11:54:23.6950,0.01,0.02,0.05
2020-08-13 11:54:23.7950,-0.07,0.0,-0.07
2020-08-13 11:54:23.8930,-0.09,0.03,-0.01
2020-08-13 11:54:23.9930,-0.02,0.01,-0.06
2020-08-13 11:54:24.0920,0.03,0.03,-0.0
2020-08-13 11:54:24.1920,-0.03,-0.0,-0.02
2020-08-13 11:54:24.2910,-0.01,0.01,-0.04
2020-08-13 11:54:24.3900,-0.0,-0.01,-0.06
2020-08-13 11:54:24.4890,0.01,-0.04,-0.06
2020-08-13 11:54:24.5890,-0.01,-0.04,-0.06
2020-08-13 11:54:24.6880,-0.01,0.0,-0.02
2020-08-13 11:54:24.7870,-0.7,-0.58,0.19
2020-08-13 11:54:24.8860,0.33,-0.28,0.09
2020-08-13 11:54:24.9860,-1.07,0.19,-0.17
2020-08-13 11:54:25.0850,-0.07,-0.41,-0.27
2020-08-13 11:54:25.1840,0.5,-0.45,0.04
2020-08-13 11:54:25.2830,1.33,-0.21,0.1
2020-08-13 11:54:25.3830,-0.0,-0.54,0.82
2020-08-13 11:54:25.4820,0.15,0.11,0.25
2020-08-13 11:54:25.5820,0.02,0.01,0.04
2020-08-13 11:54:25.6800,0.01,-0.01,-0.02
2020-08-13 11:54:25.7800,-0.01,-0.02,-0.08
2020-08-13 11:54:25.8790,0.02,-0.01,-0.04
2020-08-13 11:54:25.9790,-0.0,-0.0,0.01
2020-08-13 11:54:26.0770,0.0,-0.03,-0.06
2020-08-13 11:54:26.1770,-0.01,-0.02,-0.03
2020-08-13 11:54:26.2760,-0.08,-0.01,0.02
2020-08-13 11:54:26.3750,-0.06,-0.02,-0.04
2020-08-13 11:54:26.4750,-0.06,-0.02,0.0
2020-08-13 11:54:26.5730,-0.16,-0.22,-0.04
2020-08-13 11:54:26.6730,-0.89,-0.32,0.18
2020-08-13 11:54:26.7720,-1.33,0.3,0.18
2020-08-13 11:54:26.8720,-0.62,-0.06,-0.19
2020-08-13 11:54:26.9700,0.06,-0.38,-0.16
2020-08-13 11:54:27.0700,0.82,-0.33,0.12
2020-08-13 11:54:27.1690,1.24,-0.03,0.12
2020-08-13 11:54:27.2680,0.15,-0.46,-0.26
2020-08-13 11:54:27.3670,0.2,0.22,0.25
2020-08-13 11:54:27.4670,0.12,0.01,0.0
2020-08-13 11:54:27.5660,0.01,0.0,-0.04
2020-08-13 11:54:27.6660,-0.01,-0.01,-0.03
2020-08-13 11:54:27.7650,0.02,-0.03,-0.08
2020-08-13 11:54:27.8640,-0.01,0.01,-0.08
2020-08-13 11:54:27.9630,-0.01,-0.01,-0.05
2020-08-13 11:54:28.0630,0.03,0.0,-0.02
2020-08-13 11:54:28.1620,-0.01,-0.02,-0.02
2020-08-13 11:54:28.2610,-0.04,-0.04,-0.04
2020-08-13 11:54:28.3600,-0.01,-0.02,-0.05
2020-08-13 11:54:28.4600,-0.26,-0.23,-0.01
2020-08-13 11:54:28.5590,-0.97,-0.48,0.1
2020-08-13 11:54:28.6580,-0.19,-0.02,0.16
2020-08-13 11:54:28.7570,-0.82,0.19,-0.03
2020-08-13 11:54:28.8570,-0.2,-0.41,-0.24
2020-08-13 11:54:28.9560,0.54,-0.45,0.14
2020-08-13 11:54:29.0560,0.98,-0.17,-0.05
2020-08-13 11:54:29.1540,-2.23,-0.28,-0.2
2020-08-13 11:54:29.2540,-0.03,0.04,0.6
2020-08-13 11:54:29.3530,0.02,0.02,-0.06
2020-08-13 11:54:29.4520,0.01,0.0,-0.03
2020-08-13 11:54:29.5510,-0.11,-0.0,0.07
2020-08-13 11:54:29.6510,-0.02,0.0,-0.01
2020-08-13 11:54:29.7500,0.0,0.01,-0.03
2020-08-13 11:54:29.8490,0.0,0.0,-0.09
2020-08-13 11:54:29.9490,-0.0,-0.02,-0.03
2020-08-13 11:54:30.0480,0.0,0.0,-0.03
2020-08-13 11:54:30.1470,-0.05,-0.02,-0.03
2020-08-13 11:54:30.2460,-0.06,-0.04,-0.04
2020-08-13 11:54:30.3460,-0.34,-0.32,-0.03
2020-08-13 11:54:30.4450,-0.81,-0.15,0.26
2020-08-13 11:54:30.5440,-1.14,0.34,0.04
2020-08-13 11:54:30.6430,-0.65,0.06,-0.01
2020-08-13 11:54:30.7430,-0.06,-0.41,-0.14
2020-08-13 11:54:30.8420,0.49,-0.41,0.09
2020-08-13 11:54:30.9410,1.29,-0.1,0.01
2020-08-13 11:54:31.0400,-1.15,-0.57,0.8
2020-08-13 11:54:31.1400,-0.14,0.52,0.38
2020-08-13 11:54:31.2390,0.19,0.0,-0.07
2020-08-13 11:54:31.3380,0.04,-0.01,-0.12
2020-08-13 11:54:31.4370,-0.09,0.03,0.15
2020-08-13 11:54:31.5370,-0.02,0.0,0.01
2020-08-13 11:54:31.6360,0.01,-0.01,-0.06
2020-08-13 11:54:31.7350,-0.01,0.01,-0.07
2020-08-13 11:54:31.8340,-0.04,-0.01,-0.04
2020-08-13 11:54:31.9340,-0.01,-0.02,-0.02
2020-08-13 11:54:32.0330,-0.05,-0.03,-0.03
2020-08-13 11:54:32.1320,-0.09,-0.0,-0.02
2020-08-13 11:54:32.2310,-0.11,-0.14,-0.01
2020-08-13 11:54:32.3310,-0.64,-0.44,0.09
2020-08-13 11:54:32.4300,-0.96,0.09,0.08
2020-08-13 11:54:32.5290,-0.75,0.07,-0.05
2020-08-13 11:54:32.6280,-0.14,-0.36,-0.07
2020-08-13 11:54:32.7280,0.39,-0.3,0.03
2020-08-13 11:54:32.8270,1.02,-0.14,0.04
2020-08-13 11:54:32.9260,0.4,-0.47,-0.17
2020-08-13 11:54:33.0250,0.36,-0.08,0.15
2020-08-13 11:54:33.1250,-0.14,0.01,-0.22
2020-08-13 11:54:33.2240,0.06,0.01,0.07
2020-08-13 11:54:33.3230,0.04,-0.02,-0.04
2020-08-13 11:54:33.4220,0.06,-0.03,-0.09
2020-08-13 11:54:33.5220,-0.04,-0.02,-0.03
2020-08-13 11:54:33.6210,0.0,0.03,0.01
2020-08-13 11:54:33.7210,-0.01,0.01,-0.06
2020-08-13 11:54:33.8190,-0.01,-0.01,-0.03
2020-08-13 11:54:33.9190,-0.02,0.01,-0.05
2020-08-13 11:54:34.0180,-0.07,-0.01,-0.04
2020-08-13 11:54:34.1180,-0.08,-0.01,-0.04
2020-08-13 11:54:34.2160,-0.15,-0.07,0.01
2020-08-13 11:54:34.3160,-0.68,-0.47,0.06
2020-08-13 11:54:34.4150,0.41,-0.31,0.04
2020-08-13 11:54:34.5150,-1.14,0.24,-0.08
2020-08-13 11:54:34.6130,-0.25,-0.4,-0.25
2020-08-13 11:54:34.7130,0.43,-0.36,0.02
2020-08-13 11:54:34.8120,1.1,-0.21,0.11
2020-08-13 11:54:34.9120,0.54,-0.1,0.0
2020-08-13 11:54:35.0100,1.48,-0.66,-0.12
2020-08-13 11:54:35.1100,-0.16,0.05,-0.16
2020-08-13 11:54:35.2090,-0.06,0.02,0.05
2020-08-13 11:54:35.3090,-0.04,0.03,-0.01
2020-08-13 11:54:35.4070,0.08,-0.06,-0.16
2020-08-13 11:54:35.5070,0.01,-0.01,-0.05
2020-08-13 11:54:35.6060,0.04,-0.01,-0.01
2020-08-13 11:54:35.7050,0.03,-0.01,-0.06
2020-08-13 11:54:35.8040,0.01,-0.01,-0.04
2020-08-13 11:54:35.9040,-0.11,-0.0,0.04
2020-08-13 11:54:36.0030,-0.09,0.0,0.0
2020-08-13 11:54:36.1030,-0.11,-0.06,-0.01
2020-08-13 11:54:36.2020,-0.51,-0.56,-0.07
2020-08-13 11:54:36.3010,-0.02,-0.18,0.05
2020-08-13 11:54:36.4000,-1.08,0.16,0.0
2020-08-13 11:54:36.5000,-0.31,-0.38,-0.17
2020-08-13 11:54:36.5990,0.42,-0.43,-0.02
2020-08-13 11:54:36.6980,0.98,-0.26,0.05
2020-08-13 11:54:36.7970,0.82,-0.56,-0.02
2020-08-13 11:54:36.8970,0.4,-0.05,0.19
2020-08-13 11:54:36.9960,-0.3,0.0,-0.17
2020-08-13 11:54:37.0950,-0.17,0.06,0.01
2020-08-13 11:54:37.1940,-0.05,0.02,-0.04
2020-08-13 11:54:37.2940,0.01,-0.01,-0.03
2020-08-13 11:54:37.3930,-0.02,0.01,-0.01
2020-08-13 11:54:37.4920,0.01,0.0,-0.02
2020-08-13 11:54:37.5910,0.01,-0.0,-0.03
2020-08-13 11:54:37.6910,-0.01,-0.01,-0.03
2020-08-13 11:54:37.7900,0.0,-0.02,-0.02
2020-08-13 11:54:37.8890,0.0,-0.04,-0.04
2020-08-13 11:54:37.9880,-0.0,-0.05,-0.03
2020-08-13 11:54:38.0880,-0.16,-0.06,-0.03
2020-08-13 11:54:38.1870,-0.78,-0.68,-0.03
2020-08-13 11:54:38.2860,0.63,-0.33,-0.04
2020-08-13 11:54:38.3850,-1.3,0.44,0.03
2020-08-13 11:54:38.4850,-0.39,-0.28,-0.18
2020-08-13 11:54:38.5840,0.39,-0.62,0.14
2020-08-13 11:54:38.6840,1.57,-0.26,0.2
2020-08-13 11:54:38.7820,-0.45,-0.7,1.14
2020-08-13 11:54:38.8820,0.31,-0.08,0.04
2020-08-13 11:54:38.9810,0.17,0.01,-0.03
2020-08-13 11:54:39.0810,-0.03,-0.01,-0.03
2020-08-13 11:54:39.1790,-0.02,0.0,0.0
2020-08-13 11:54:39.2790,0.01,0.02,-0.03
2020-08-13 11:54:39.3780,0.02,-0.0,-0.05
2020-08-13 11:54:39.4780,0.01,-0.01,-0.11
2020-08-13 11:54:39.5760,0.0,-0.01,-0.02
2020-08-13 11:54:39.6760,0.03,0.02,-0.01
2020-08-13 11:54:39.7750,-0.02,0.03,-0.01
2020-08-13 11:54:39.8750,-0.0,0.01,-0.01
2020-08-13 11:54:39.9740,-0.18,-0.11,-0.04
2020-08-13 11:54:40.0730,-1.28,-0.61,0.37
2020-08-13 11:54:40.1720,-0.2,-0.1,0.21
2020-08-13 11:54:40.2710,-0.91,-0.11,-0.2
2020-08-13 11:54:40.3700,0.04,-0.63,-0.13
2020-08-13 11:54:40.4700,1.4,-0.63,0.36
2020-08-13 11:54:40.5690,1.68,-0.19,0.49
2020-08-13 11:54:40.6680,1.02,-0.31,-0.11
2020-08-13 11:54:40.7670,-0.15,-0.03,-0.03
2020-08-13 11:54:40.8670,0.02,0.01,-0.07
2020-08-13 11:54:40.9660,-0.04,-0.01,-0.01
2020-08-13 11:54:41.0660,0.02,0.01,-0.03
2020-08-13 11:54:41.1650,0.01,0.0,-0.02
2020-08-13 11:54:41.2640,-0.03,-0.01,-0.01
2020-08-13 11:54:41.3630,0.02,-0.01,-0.11
2020-08-13 11:54:41.4630,-0.03,-0.0,0.0
2020-08-13 11:54:41.5620,0.01,0.02,-0.04
2020-08-13 11:54:41.6610,0.0,-0.02,-0.05
2020-08-13 11:54:41.7600,-0.05,-0.05,-0.04
2020-08-13 11:54:41.8600,-0.07,-0.1,-0.07
2020-08-13 11:54:41.9590,-0.77,-0.6,0.08
2020-08-13 11:54:42.0580,-0.13,-0.27,-0.02
2020-08-13 11:54:42.1570,-0.84,0.21,-0.02
2020-08-13 11:54:42.2570,-0.12,-0.44,-0.2
2020-08-13 11:54:42.3560,0.63,-0.47,0.06
2020-08-13 11:54:42.4550,1.02,-0.12,-0.01
2020-08-13 11:54:42.5540,-0.95,-0.52,-0.28
2020-08-13 11:54:42.6540,0.13,-0.28,0.19
2020-08-13 11:54:42.7530,0.05,-0.04,-0.18
2020-08-13 11:54:42.8520,0.01,-0.02,-0.0
2020-08-13 11:54:42.9510,-0.03,-0.0,-0.07
2020-08-13 11:54:43.0510,0.02,-0.01,-0.06
2020-08-13 11:54:43.1500,-0.04,0.03,-0.03
2020-08-13 11:54:43.2490,-0.06,0.02,0.02
2020-08-13 11:54:43.3480,0.11,0.02,0.02
2020-08-13 11:54:43.4470,-0.03,-0.04,-0.1
2020-08-13 11:54:43.5470,0.04,-0.03,-0.04
2020-08-13 11:54:43.6460,-0.03,-0.01,0.01
2020-08-13 11:54:43.7450,-0.11,-0.05,-0.06
2020-08-13 11:54:43.8450,-0.98,-0.69,0.29
2020-08-13 11:54:43.9440,-0.44,0.03,0.05
2020-08-13 11:54:44.0430,-0.9,0.19,-0.0
2020-08-13 11:54:44.1420,-0.09,-0.51,-0.23
2020-08-13 11:54:44.2420,0.61,-0.51,0.1
2020-08-13 11:54:44.3410,1.27,-0.18,0.08
2020-08-13 11:54:44.4400,-2.2,-0.01,-0.27
2020-08-13 11:54:44.5390,-0.02,-0.01,0.29
2020-08-13 11:54:44.6390,0.24,-0.07,-0.15
2020-08-13 11:54:44.7380,-0.01,0.02,-0.05
2020-08-13 11:54:44.8380,0.01,0.01,-0.03
2020-08-13 11:54:44.9360,0.05,-0.0,-0.04
2020-08-13 11:54:45.0360,0.01,-0.03,-0.04
2020-08-13 11:54:45.1350,-0.04,-0.03,-0.01
2020-08-13 11:54:45.2350,0.07,-0.01,-0.04
2020-08-13 11:54:45.3330,0.02,0.02,0.01
2020-08-13 11:54:45.4330,0.01,0.02,-0.04
2020-08-13 11:54:45.5320,-0.02,-0.01,-0.06
2020-08-13 11:54:45.6320,-0.06,-0.07,-0.05
2020-08-13 11:54:45.7300,-0.3,-0.29,0.01
2020-08-13 11:54:45.8300,-0.86,-0.46,0.16
2020-08-13 11:54:45.9290,-1.46,0.34,0.08
2020-08-13 11:54:46.0290,-0.7,-0.02,-0.12
2020-08-13 11:54:46.1270,0.02,-0.51,-0.15
2020-08-13 11:54:46.2280,0.94,-0.42,0.16
2020-08-13 11:54:46.3260,1.1,-0.02,0.05
2020-08-13 11:54:46.4250,0.42,-1.08,0.26
2020-08-13 11:54:46.5250,0.17,-0.03,0.12
2020-08-13 11:54:46.6240,0.04,0.03,0.04
2020-08-13 11:54:46.7230,0.02,-0.01,-0.09
2020-08-13 11:54:46.8220,0.02,-0.01,-0.0
2020-08-13 11:54:46.9220,0.06,-0.02,-0.13
2020-08-13 11:54:47.0210,-0.05,0.01,0.02
2020-08-13 11:54:47.1210,-0.08,0.03,0.03
2020-08-13 11:54:47.2190,-0.03,-0.03,-0.05
2020-08-13 11:54:47.3190,-0.03,-0.02,-0.01
2020-08-13 11:54:47.4180,-0.03,-0.02,-0.03
2020-08-13 11:54:47.5180,-0.01,-0.0,-0.03
2020-08-13 11:54:47.6160,-0.23,-0.14,-0.07
2020-08-13 11:54:47.7160,-0.95,-0.61,0.16
2020-08-13 11:54:47.8150,-0.58,0.07,0.31
2020-08-13 11:54:47.9140,-0.92,0.06,-0.1
2020-08-13 11:54:48.0140,-0.2,-0.46,-0.18
2020-08-13 11:54:48.1130,0.47,-0.41,0.08
2020-08-13 11:54:48.2120,1.35,-0.18,0.11
2020-08-13 11:54:48.3110,-2.63,-0.25,-0.65
2020-08-13 11:54:48.4100,0.26,-0.29,0.31
2020-08-13 11:54:48.5100,-0.04,0.03,-0.16
2020-08-13 11:54:48.6090,0.0,-0.01,-0.05
2020-08-13 11:54:48.7090,-0.03,0.02,-0.02
2020-08-13 11:54:48.8080,0.05,-0.01,-0.03
2020-08-13 11:54:48.9070,0.06,0.0,-0.03
2020-08-13 11:54:49.0060,0.03,-0.02,-0.04
2020-08-13 11:54:49.1050,0.0,0.0,0.01
2020-08-13 11:54:49.2040,0.04,-0.04,-0.06
2020-08-13 11:54:49.3040,0.0,-0.03,-0.04
2020-08-13 11:54:49.4030,-0.04,-0.0,-0.01
2020-08-13 11:54:49.5030,-0.09,-0.06,-0.0
2020-08-13 11:54:49.6020,-0.68,-0.71,-0.01
2020-08-13 11:54:49.7010,0.1,-0.06,0.15
2020-08-13 11:54:49.8010,-1.0,0.25,-0.02
2020-08-13 11:54:49.8990,-0.29,-0.32,-0.17
2020-08-13 11:54:49.9990,0.27,-0.45,0.01
2020-08-13 11:54:50.0980,0.82,-0.27,0.12
2020-08-13 11:54:50.1970,1.05,0.02,0.13
2020-08-13 11:54:50.2970,0.71,-0.72,-0.51
2020-08-13 11:54:50.3960,0.4,-0.03,-0.13
2020-08-13 11:54:50.4950,-0.07,0.02,0.08
2020-08-13 11:54:50.5940,0.04,-0.02,-0.08
2020-08-13 11:54:50.6940,0.0,0.01,-0.02
2020-08-13 11:54:50.7930,0.01,-0.0,-0.03
2020-08-13 11:54:50.8920,0.08,-0.03,-0.11
2020-08-13 11:54:50.9910,0.01,-0.05,-0.01
2020-08-13 11:54:51.0910,0.09,-0.09,-0.06
2020-08-13 11:54:51.1900,0.04,-0.0,-0.07
2020-08-13 11:54:51.2900,0.01,0.03,-0.02
2020-08-13 11:54:51.3880,0.01,-0.04,-0.01
2020-08-13 11:54:51.4880,-0.52,-0.56,-0.09
2020-08-13 11:54:51.5870,0.1,-0.62,0.1
2020-08-13 11:54:51.6860,-1.23,0.51,0.18
2020-08-13 11:54:51.7850,-0.57,-0.1,-0.09
2020-08-13 11:54:51.8840,0.39,-0.57,-0.07
2020-08-13 11:54:51.9840,0.79,-0.41,0.12
2020-08-13 11:54:52.0830,1.31,-0.0,0.09
2020-08-13 11:54:52.1830,1.11,-0.07,-0.81
2020-08-13 11:54:52.2820,0.15,0.1,-0.13
2020-08-13 11:54:52.3810,0.0,-0.01,-0.01
2020-08-13 11:54:52.4800,-0.01,-0.0,0.02
2020-08-13 11:54:52.5790,-0.01,-0.02,-0.0
2020-08-13 11:54:52.6790,-0.01,0.0,-0.04
2020-08-13 11:54:52.7780,0.01,-0.0,-0.02
2020-08-13 11:54:52.8770,0.0,-0.0,-0.01
2020-08-13 11:54:52.9770,0.05,-0.0,-0.04
2020-08-13 11:54:53.0760,0.06,-0.01,-0.02
2020-08-13 11:54:53.1750,-0.23,-0.03,0.07
2020-08-13 11:54:53.2740,0.03,0.04,-0.0
2020-08-13 11:54:53.3740,-0.02,0.02,-0.03
2020-08-13 11:54:53.4730,-0.09,-0.06,0.02
2020-08-13 11:54:53.5720,-0.05,-0.02,-0.05
2020-08-13 11:54:53.6710,-0.0,0.05,-0.01
2020-08-13 11:54:53.7710,-0.04,0.03,-0.03
2020-08-13 11:54:53.8700,0.01,-0.03,-0.02
2020-08-13 11:54:53.9690,0.04,0.02,-0.05
2020-08-13 11:54:54.0680,0.02,-0.02,-0.08
2020-08-13 11:54:54.1670,-0.03,-0.01,-0.04
2020-08-13 11:54:54.2670,0.0,0.01,-0.02
2020-08-13 11:54:54.3660,-0.02,-0.03,-0.02
2020-08-13 11:54:54.4650,0.01,0.01,-0.04
2020-08-13 11:54:54.5650,0.05,-0.01,-0.05
