time,ax,ay,az
2020-08-12 19:22:08.8740,-0.08,-0.03,0.09
2020-08-12 19:22:08.9740,0.06,-0.02,-0.03
2020-08-12 19:22:09.0730,0.01,-0.02,-0.01
2020-08-12 19:22:09.1720,-0.01,0.0,-0.01
2020-08-12 19:22:09.2710,-0.0,0.01,-0.0
2020-08-12 19:22:09.3710,0.02,-0.0,-0.01
2020-08-12 19:22:09.4700,-0.01,0.01,-0.0
2020-08-12 19:22:09.5690,0.01,0.0,-0.01
2020-08-12 19:22:09.6680,-0.0,0.0,-0.02
2020-08-12 19:22:09.7680,-0.02,-0.0,0.01
2020-08-12 19:22:09.8670,0.02,-0.01,-0.01
2020-08-12 19:22:09.9660,0.02,0.0,0.0
2020-08-12 19:22:10.0660,0.18,-0.06,0.02
2020-08-12 19:22:10.1650,0.11,-0.2,0.1
2020-08-12 19:22:10.2640,0.07,-0.05,0.13
2020-08-12 19:22:10.3630,0.6,0.32,-0.06
2020-08-12 19:22:10.4630,0.15,-0.07,-0.13
2020-08-12 19:22:10.5620,-0.26,-0.16,-0.08
2020-08-12 19:22:10.6610,-1.06,-0.2,-0.21
2020-08-12 19:22:10.7610,-0.08,0.08,-0.17
2020-08-12 19:22:10.8600,-0.02,-0.01,0.03
2020-08-12 19:22:10.9590,-0.06,0.01,-0.02
2020-08-12 19:22:11.0580,0.01,-0.01,0.02
2020-08-12 19:22:11.1580,0.08,-0.03,-0.01
2020-08-12 19:22:11.2570,0.03,-0.03,-0.0
2020-08-12 19:22:11.3560,0.04,-0.02,0.03
2020-08-12 19:22:11.4550,0.06,-0.11,0.02
2020-08-12 19:22:11.5550,0.23,-0.22,0.05
2020-08-12 19:22:11.6540,0.42,-0.48,0.16
2020-08-12 19:22:11.7530,0.69,-0.26,0.37
2020-08-12 19:22:11.8520,0.74,0.22,-0.03
2020-08-12 19:22:11.9520,0.33,0.13,-0.01
2020-08-12 19:22:12.0510,-0.06,-0.1,-0.09
2020-08-12 19:22:12.1500,-0.82,-0.56,-0.15
2020-08-12 19:22:12.2500,-1.28,-0.1,0.24
2020-08-12 19:22:12.3490,-0.28,0.24,-0.22
2020-08-12 19:22:12.4480,0.03,-0.01,0.09
2020-08-12 19:22:12.5470,-0.04,0.03,0.08
2020-08-12 19:22:12.6470,-0.03,-0.02,-0.24
2020-08-12 19:22:12.7460,-0.03,-0.01,-0.05
2020-08-12 19:22:12.8450,-0.02,-0.01,0.03
2020-08-12 19:22:12.9440,0.15,-0.04,0.01
2020-08-12 19:22:13.0440,0.14,-0.16,0.01
2020-08-12 19:22:13.1430,0.22,-0.36,0.06
2020-08-12 19:22:13.2420,0.49,-0.33,0.18
2020-08-12 19:22:13.3420,0.53,-0.01,0.21
2020-08-12 19:22:13.4410,0.5,0.22,-0.11
2020-08-12 19:22:13.5400,0.17,-0.01,0.01
2020-08-12 19:22:13.6390,0.05,-0.27,-0.14
2020-08-12 19:22:13.7390,-1.19,-0.36,0.45
2020-08-12 19:22:13.8380,-1.12,-0.1,0.03
2020-08-12 19:22:13.9370,-0.83,-0.22,0.28
2020-08-12 19:22:14.0370,0.02,-0.06,-0.08
2020-08-12 19:22:14.1350,-0.12,0.03,0.05
2020-08-12 19:22:14.2350,-0.05,0.02,0.04
2020-08-12 19:22:14.3340,0.09,-0.03,-0.01
2020-08-12 19:22:14.4330,0.05,-0.03,-0.0
2020-08-12 19:22:14.5330,0.05,-0.02,-0.02
2020-08-12 19:22:14.6320,0.14,-0.13,0.03
2020-08-12 19:22:14.7310,0.34,-0.43,0.05
2020-08-12 19:22:14.8300,0.4,-0.49,0.05
2020-08-12 19:22:14.9300,0.46,0.08,0.3
2020-08-12 19:22:15.0290,0.48,0.28,-0.12
2020-08-12 19:22:15.1280,0.19,0.07,0.02
2020-08-12 19:22:15.2280,0.0,-0.28,-0.2
2020-08-12 19:22:15.3270,-1.05,-0.44,0.04
2020-08-12 19:22:15.4260,-0.91,-0.33,0.06
2020-08-12 19:22:15.5250,-0.19,0.22,-0.21
2020-08-12 19:22:15.6250,0.08,-0.04,0.01
2020-08-12 19:22:15.7240,-0.06,0.02,0.06
2020-08-12 19:22:15.8230,0.0,-0.0,-0.02
2020-08-12 19:22:15.9230,0.03,-0.04,-0.0
2020-08-12 19:22:16.0220,0.05,-0.01,-0.03
2020-08-12 19:22:16.1210,0.06,-0.05,-0.0
2020-08-12 19:22:16.2200,0.14,-0.11,0.06
2020-08-12 19:22:16.3200,0.27,-0.36,0.05
2020-08-12 19:22:16.4190,0.48,-0.46,0.19
2020-08-12 19:22:16.5180,0.67,-0.03,0.13
2020-08-12 19:22:16.6170,0.47,0.17,-0.07
2020-08-12 19:22:16.7170,0.3,0.04,-0.07
2020-08-12 19:22:16.8160,-0.33,-0.39,0.09
2020-08-12 19:22:16.9150,-1.27,-0.25,0.21
2020-08-12 19:22:17.0140,-0.5,-0.35,-0.47
2020-08-12 19:22:17.1140,-0.44,-0.25,-0.13
2020-08-12 19:22:17.2130,0.05,-0.02,-0.19
2020-08-12 19:22:17.3120,-0.11,0.05,0.15
2020-08-12 19:22:17.4120,0.01,-0.01,-0.01
2020-08-12 19:22:17.5110,-0.02,0.01,-0.03
2020-08-12 19:22:17.6100,0.07,-0.02,-0.03
2020-08-12 19:22:17.7090,0.09,-0.07,-0.02
2020-08-12 19:22:17.8090,0.19,-0.2,-0.01
2020-08-12 19:22:17.9080,0.43,-0.48,0.05
2020-08-12 19:22:18.0070,0.42,-0.55,0.38
2020-08-12 19:22:18.1060,0.27,-0.03,0.21
2020-08-12 19:22:18.2060,0.56,0.23,-0.17
2020-08-12 19:22:18.3050,-0.0,-0.15,-0.15
2020-08-12 19:22:18.4040,-1.08,-0.64,0.3
2020-08-12 19:22:18.5040,-1.41,-0.24,-0.13
2020-08-12 19:22:18.6030,-0.72,-0.04,0.15
2020-08-12 19:22:18.7020,0.02,-0.05,-0.0
2020-08-12 19:22:18.8010,-0.01,0.0,-0.02
2020-08-12 19:22:18.9010,-0.02,-0.01,-0.09
2020-08-12 19:22:19.0000,-0.02,-0.0,-0.02
2020-08-12 19:22:19.0990,0.08,-0.04,-0.01
2020-08-12 19:22:19.1980,0.0,-0.0,-0.05
2020-08-12 19:22:19.2980,0.08,-0.12,-0.01
2020-08-12 19:22:19.3970,0.35,-0.36,-0.01
2020-08-12 19:22:19.4960,0.42,-0.4,0.08
2020-08-12 19:22:19.5960,0.55,-0.04,0.2
2020-08-12 19:22:19.6950,0.67,0.25,-0.18
2020-08-12 19:22:19.7940,0.21,0.02,0.01
2020-08-12 19:22:19.8930,-0.09,-0.3,-0.1
2020-08-12 19:22:19.9930,-0.99,-0.5,0.04
2020-08-12 19:22:20.0920,-1.38,-0.41,-0.06
2020-08-12 19:22:20.1910,-0.48,0.07,-0.21
2020-08-12 19:22:20.2900,0.04,-0.12,-0.11
2020-08-12 19:22:20.3900,-0.1,0.03,0.05
2020-08-12 19:22:20.4890,0.01,-0.01,0.0
2020-08-12 19:22:20.5880,0.01,-0.01,-0.04
2020-08-12 19:22:20.6870,-0.0,-0.02,-0.04
2020-08-12 19:22:20.7870,0.22,-0.17,-0.03
2020-08-12 19:22:20.8860,0.26,-0.29,0.11
2020-08-12 19:22:20.9850,0.68,-0.62,0.14
2020-08-12 19:22:21.0850,0.58,-0.23,0.32
2020-08-12 19:22:21.1840,0.7,0.18,-0.13
2020-08-12 19:22:21.2830,0.21,-0.01,-0.02
2020-08-12 19:22:21.3820,0.05,-0.1,-0.19
2020-08-12 19:22:21.4820,-0.85,-0.49,0.04
2020-08-12 19:22:21.5810,-1.22,-0.07,0.14
2020-08-12 19:22:21.6800,-0.37,-0.22,0.1
2020-08-12 19:22:21.7790,-0.28,0.1,0.1
2020-08-12 19:22:21.8790,0.04,-0.02,0.0
2020-08-12 19:22:21.9780,-0.08,0.03,-0.02
2020-08-12 19:22:22.0770,-0.01,-0.0,-0.05
2020-08-12 19:22:22.1770,0.01,-0.02,-0.03
2020-08-12 19:22:22.2760,0.05,0.0,0.01
2020-08-12 19:22:22.3750,0.19,-0.15,0.11
2020-08-12 19:22:22.4740,0.33,-0.41,-0.0
2020-08-12 19:22:22.5740,0.36,-0.43,0.17
2020-08-12 19:22:22.6730,0.38,0.16,0.25
2020-08-12 19:22:22.7720,0.62,0.34,-0.17
2020-08-12 19:22:22.8710,0.02,0.04,-0.03
2020-08-12 19:22:22.9710,-0.26,-0.47,-0.15
2020-08-12 19:22:23.0700,-1.0,-0.32,0.09
2020-08-12 19:22:23.1690,-1.05,-0.29,0.13
2020-08-12 19:22:23.2680,-0.23,-0.19,-0.03
2020-08-12 19:22:23.3700,-0.05,0.05,-0.08
2020-08-12 19:22:23.4670,-0.04,-0.0,0.07
2020-08-12 19:22:23.5660,-0.02,-0.02,-0.11
2020-08-12 19:22:23.6660,-0.0,-0.02,-0.0
2020-08-12 19:22:23.7650,0.04,-0.03,-0.04
2020-08-12 19:22:23.8640,0.08,-0.06,-0.06
2020-08-12 19:22:23.9630,0.18,-0.25,0.01
2020-08-12 19:22:24.0630,0.47,-0.58,0.24
2020-08-12 19:22:24.1620,0.26,-0.37,0.47
2020-08-12 19:22:24.2610,0.66,0.13,0.06
2020-08-12 19:22:24.3610,0.64,0.07,-0.19
2020-08-12 19:22:24.4600,-0.01,-0.15,-0.15
2020-08-12 19:22:24.5590,-0.57,-0.43,-0.09
2020-08-12 19:22:24.6580,-1.1,0.01,0.09
2020-08-12 19:22:24.7580,0.4,-0.49,-0.54
2020-08-12 19:22:24.8570,-0.13,0.11,0.08
2020-08-12 19:22:24.9560,0.11,0.01,-0.02
2020-08-12 19:22:25.0550,-0.08,0.01,0.02
2020-08-12 19:22:25.1550,0.01,-0.01,-0.02
2020-08-12 19:22:25.2540,0.03,-0.04,-0.07
2020-08-12 19:22:25.3530,0.06,-0.02,0.02
2020-08-12 19:22:25.4530,0.13,-0.1,-0.1
2020-08-12 19:22:25.5520,0.29,-0.27,0.05
2020-08-12 19:22:25.6510,0.7,-0.54,0.04
2020-08-12 19:22:25.7500,0.49,-0.15,0.14
2020-08-12 19:22:25.8500,0.65,0.26,-0.18
2020-08-12 19:22:25.9490,0.4,0.05,-0.02
2020-08-12 19:22:26.0480,0.02,-0.21,-0.02
2020-08-12 19:22:26.1470,-0.97,-0.7,0.12
2020-08-12 19:22:26.2470,-1.16,-0.17,-0.08
2020-08-12 19:22:26.3460,-0.51,-0.14,0.21
2020-08-12 19:22:26.4450,-0.24,0.11,0.12
2020-08-12 19:22:26.5450,0.16,-0.06,-0.02
2020-08-12 19:22:26.6440,0.08,-0.06,-0.05
2020-08-12 19:22:26.7430,-0.05,-0.03,-0.11
2020-08-12 19:22:26.8420,0.01,-0.0,-0.06
2020-08-12 19:22:26.9420,0.01,-0.05,-0.13
2020-08-12 19:22:27.0410,0.07,-0.07,-0.04
2020-08-12 19:22:27.1400,0.15,-0.26,0.05
2020-08-12 19:22:27.2390,0.45,-0.55,0.09
2020-08-12 19:22:27.3390,0.43,-0.47,0.24
2020-08-12 19:22:27.4380,0.51,0.2,0.09
2020-08-12 19:22:27.5370,0.48,0.35,-0.04
2020-08-12 19:22:27.6370,-0.15,-0.04,0.03
2020-08-12 19:22:27.7360,-0.33,-0.49,-0.1
2020-08-12 19:22:27.8350,-0.92,-0.24,0.27
2020-08-12 19:22:27.9340,-0.23,-0.33,-0.25
2020-08-12 19:22:28.0340,-0.33,-0.11,-0.13
2020-08-12 19:22:28.1330,-0.1,-0.02,-0.47
2020-08-12 19:22:28.2320,-0.11,0.05,0.1
2020-08-12 19:22:28.3310,-0.06,-0.0,-0.07
2020-08-12 19:22:28.4310,-0.01,0.02,-0.02
2020-08-12 19:22:28.5300,-0.0,-0.01,-0.03
2020-08-12 19:22:28.6290,0.01,-0.03,-0.04
2020-08-12 19:22:28.7280,0.14,-0.13,0.03
2020-08-12 19:22:28.8280,0.36,-0.45,0.02
2020-08-12 19:22:28.9270,0.3,-0.36,0.15
2020-08-12 19:22:29.0260,0.28,0.0,0.16
2020-08-12 19:22:29.1260,0.56,0.29,-0.18
2020-08-12 19:22:29.2250,0.06,-0.04,-0.14
2020-08-12 19:22:29.3240,-0.34,-0.44,-0.12
2020-08-12 19:22:29.4230,-1.04,-0.14,0.03
2020-08-12 19:22:29.5230,-0.24,-0.08,0.1
2020-08-12 19:22:29.6220,-0.32,-0.25,-0.16
2020-08-12 19:22:29.7210,0.07,-0.16,-0.08
2020-08-12 19:22:29.8200,-0.12,0.04,0.03
2020-08-12 19:22:29.9200,-0.05,0.01,-0.03
2020-08-12 19:22:30.0190,-0.01,-0.02,-0.07
2020-08-12 19:22:30.1180,-0.04,-0.04,-0.03
2020-08-12 19:22:30.2180,0.17,-0.12,0.01
2020-08-12 19:22:30.3170,0.25,-0.29,-0.08
2020-08-12 19:22:30.4160,0.37,-0.34,0.05
2020-08-12 19:22:30.5150,0.63,-0.24,0.14
2020-08-12 19:22:30.6150,0.63,0.29,-0.07
2020-08-12 19:22:30.7140,0.28,0.17,-0.11
2020-08-12 19:22:30.8130,-0.01,-0.19,-0.1
2020-08-12 19:22:30.9130,-0.45,-0.54,-0.13
2020-08-12 19:22:31.0120,-0.68,-0.16,-0.13
2020-08-12 19:22:31.1110,-0.34,-0.19,0.01
2020-08-12 19:22:31.2100,-0.17,-0.08,-0.13
2020-08-12 19:22:31.3100,-0.07,0.05,0.12
2020-08-12 19:22:31.4090,0.07,-0.06,-0.12
2020-08-12 19:22:31.5080,0.07,0.01,-0.0
2020-08-12 19:22:31.6070,0.02,-0.02,-0.03
2020-08-12 19:22:31.7070,-0.01,-0.03,-0.08
2020-08-12 19:22:31.8060,0.07,-0.05,-0.04
2020-08-12 19:22:31.9050,0.06,-0.09,-0.04
2020-08-12 19:22:32.0040,0.12,-0.24,0.04
2020-08-12 19:22:32.1040,0.31,-0.35,-0.01
2020-08-12 19:22:32.2030,0.47,-0.44,0.07
2020-08-12 19:22:32.3020,0.5,0.18,0.1
2020-08-12 19:22:32.4020,0.58,0.18,-0.19
2020-08-12 19:22:32.5010,0.05,-0.09,-0.17
2020-08-12 19:22:32.6000,-0.7,-0.62,-0.08
2020-08-12 19:22:32.6990,-1.4,-0.06,0.2
2020-08-12 19:22:32.7990,-0.57,-0.19,0.24
2020-08-12 19:22:32.8980,-0.27,0.01,0.01
2020-08-12 19:22:32.9970,-0.01,-0.0,-0.11
2020-08-12 19:22:33.0970,-0.03,-0.01,-0.0
2020-08-12 19:22:33.1960,0.01,-0.02,-0.1
2020-08-12 19:22:33.2950,0.04,-0.05,-0.08
2020-08-12 19:22:33.3940,0.02,-0.04,-0.11
2020-08-12 19:22:33.4940,0.01,-0.11,0.02
2020-08-12 19:22:33.5930,0.18,-0.29,0.01
2020-08-12 19:22:33.6920,0.39,-0.39,0.06
2020-08-12 19:22:33.7910,0.43,-0.33,0.23
2020-08-12 19:22:33.8900,0.76,0.26,-0.16
2020-08-12 19:22:33.9900,0.49,0.0,-0.22
2020-08-12 19:22:34.0890,-0.02,-0.22,-0.02
2020-08-12 19:22:34.1880,-0.78,-0.52,0.15
2020-08-12 19:22:34.2880,-0.89,-0.14,-0.17
2020-08-12 19:22:34.3870,-0.19,-0.15,-0.09
2020-08-12 19:22:34.4860,-0.25,0.17,0.06
2020-08-12 19:22:34.5860,0.06,-0.03,-0.17
2020-08-12 19:22:34.6850,-0.12,0.03,-0.03
2020-08-12 19:22:34.7840,-0.02,-0.02,-0.05
2020-08-12 19:22:34.8830,0.05,-0.06,-0.06
2020-08-12 19:22:34.9830,-0.02,-0.02,-0.08
2020-08-12 19:22:35.0820,0.13,-0.08,-0.11
2020-08-12 19:22:35.1810,0.15,-0.3,-0.0
2020-08-12 19:22:35.2800,0.53,-0.48,0.11
2020-08-12 19:22:35.3800,0.49,-0.3,0.15
2020-08-12 19:22:35.4790,0.78,0.24,-0.07
2020-08-12 19:22:35.5780,0.48,0.11,-0.19
2020-08-12 19:22:35.6770,-0.06,-0.22,-0.08
2020-08-12 19:22:35.7770,-0.65,-0.56,-0.14
2020-08-12 19:22:35.8760,-1.04,-0.08,0.05
2020-08-12 19:22:35.9750,0.46,-0.55,-0.46
2020-08-12 19:22:36.0750,-0.28,0.14,-0.05
2020-08-12 19:22:36.1740,0.11,-0.07,-0.09
2020-08-12 19:22:36.2730,-0.03,-0.01,-0.0
2020-08-12 19:22:36.3720,0.01,-0.04,-0.09
2020-08-12 19:22:36.4720,-0.01,-0.02,-0.04
2020-08-12 19:22:36.5710,-0.03,-0.01,-0.06
2020-08-12 19:22:36.6700,0.15,-0.11,-0.06
2020-08-12 19:22:36.7690,0.12,-0.44,-0.03
2020-08-12 19:22:36.8690,0.42,-0.47,0.16
2020-08-12 19:22:36.9680,0.53,-0.18,0.15
2020-08-12 19:22:37.0670,0.76,0.28,-0.14
2020-08-12 19:22:37.1670,0.32,0.0,-0.1
2020-08-12 19:22:37.2660,-0.11,-0.25,-0.07
2020-08-12 19:22:37.3650,-0.53,-0.49,-0.26
2020-08-12 19:22:37.4640,-1.14,-0.05,0.09
2020-08-12 19:22:37.5640,-0.24,-0.52,-0.28
2020-08-12 19:22:37.6630,-0.19,0.11,0.1
2020-08-12 19:22:37.7620,0.02,-0.0,-0.13
2020-08-12 19:22:37.8610,-0.08,0.01,0.05
2020-08-12 19:22:37.9610,-0.04,-0.02,-0.13
2020-08-12 19:22:38.0600,-0.0,-0.03,-0.05
2020-08-12 19:22:38.1590,0.09,-0.07,-0.13
2020-08-12 19:22:38.2580,0.12,-0.12,0.02
2020-08-12 19:22:38.3580,0.45,-0.46,-0.09
2020-08-12 19:22:38.4570,0.28,-0.29,0.11
2020-08-12 19:22:38.5560,0.48,-0.02,-0.04
2020-08-12 19:22:38.6560,0.33,0.2,-0.18
2020-08-12 19:22:38.7550,0.19,-0.05,-0.15
2020-08-12 19:22:38.8540,-0.06,-0.35,-0.03
2020-08-12 19:22:38.9540,-0.6,-0.36,-0.01
2020-08-12 19:22:39.0530,-1.01,-0.08,0.02
2020-08-12 19:22:39.1520,0.97,-0.35,-0.87
2020-08-12 19:22:39.2510,-0.2,0.23,-0.16
2020-08-12 19:22:39.3510,0.08,-0.09,-0.2
2020-08-12 19:22:39.4500,-0.15,0.04,-0.01
2020-08-12 19:22:39.5490,-0.0,-0.03,-0.12
2020-08-12 19:22:39.6480,-0.02,-0.01,-0.1
2020-08-12 19:22:39.7480,-0.02,-0.02,-0.09
2020-08-12 19:22:39.8470,0.12,-0.11,-0.05
2020-08-12 19:22:39.9460,0.12,-0.31,-0.02
2020-08-12 19:22:40.0450,0.53,-0.4,0.06
2020-08-12 19:22:40.1450,0.51,-0.3,0.32
2020-08-12 19:22:40.2440,0.73,0.22,-0.0
2020-08-12 19:22:40.3430,0.54,0.04,-0.18
2020-08-12 19:22:40.4430,-0.11,-0.24,-0.06
2020-08-12 19:22:40.5420,-0.68,-0.56,-0.04
2020-08-12 19:22:40.6410,-1.09,-0.14,-0.01
2020-08-12 19:22:40.7400,1.05,-0.21,-0.43
2020-08-12 19:22:40.8390,-0.55,-0.31,-0.02
2020-08-12 19:22:40.9390,-0.0,-0.09,-0.17
2020-08-12 19:22:41.0380,-0.12,0.02,-0.04
2020-08-12 19:22:41.1370,0.0,-0.05,-0.17
2020-08-12 19:22:41.2370,-0.0,-0.04,-0.11
2020-08-12 19:22:41.3360,-0.02,-0.03,-0.06
2020-08-12 19:22:41.4350,0.11,-0.09,-0.07
2020-08-12 19:22:41.5350,0.15,-0.29,-0.16
2020-08-12 19:22:41.6340,0.36,-0.36,0.05
2020-08-12 19:22:41.7330,0.32,-0.33,0.17
2020-08-12 19:22:41.8320,0.23,0.01,0.12
2020-08-12 19:22:41.9310,0.72,0.15,-0.22
2020-08-12 19:22:42.0310,0.14,-0.02,-0.12
2020-08-12 19:22:42.1300,-0.57,-0.66,0.02
2020-08-12 19:22:42.2290,-1.27,-0.06,0.08
2020-08-12 19:22:42.3290,0.94,-0.45,-0.48
2020-08-12 19:22:42.4280,-0.39,-0.21,0.07
2020-08-12 19:22:42.5270,0.03,-0.06,-0.11
2020-08-12 19:22:42.6260,-0.1,-0.0,-0.03
2020-08-12 19:22:42.7260,0.05,-0.05,-0.12
2020-08-12 19:22:42.8250,0.03,-0.04,-0.09
2020-08-12 19:22:42.9240,0.02,-0.02,-0.07
2020-08-12 19:22:43.0240,0.06,-0.07,-0.11
2020-08-12 19:22:43.1230,0.11,-0.19,-0.12
2020-08-12 19:22:43.2220,0.42,-0.46,0.05
2020-08-12 19:22:43.3210,0.3,-0.45,0.28
2020-08-12 19:22:43.4210,0.28,-0.09,0.09
2020-08-12 19:22:43.5200,0.55,0.16,-0.23
2020-08-12 19:22:43.6190,0.03,-0.06,-0.08
2020-08-12 19:22:43.7180,-0.47,-0.57,-0.09
2020-08-12 19:22:43.8180,-1.22,-0.1,0.2
2020-08-12 19:22:43.9170,0.55,-0.2,-0.59
2020-08-12 19:22:44.0160,-0.47,-0.33,-0.04
2020-08-12 19:22:44.1160,-0.08,-0.07,-0.11
2020-08-12 19:22:44.2150,-0.13,-0.0,-0.05
2020-08-12 19:22:44.3140,0.01,-0.05,-0.11
2020-08-12 19:22:44.4130,0.04,-0.06,-0.1
2020-08-12 19:22:44.5120,0.02,-0.05,-0.1
2020-08-12 19:22:44.6120,0.08,-0.09,-0.06
2020-08-12 19:22:44.7110,0.09,-0.19,-0.05
2020-08-12 19:22:44.8100,0.46,-0.43,0.06
2020-08-12 19:22:44.9100,0.25,-0.55,0.09
2020-08-12 19:22:45.0090,0.38,0.04,0.12
2020-08-12 19:22:45.1080,0.61,0.17,-0.19
2020-08-12 19:22:45.2080,0.07,-0.03,-0.15
2020-08-12 19:22:45.3070,-0.51,-0.66,-0.01
2020-08-12 19:22:45.4060,-1.17,-0.1,0.1
2020-08-12 19:22:45.5050,0.34,-0.3,-0.6
2020-08-12 19:22:45.6050,-0.19,-0.13,-0.11
2020-08-12 19:22:45.7040,-0.12,-0.07,-0.09
2020-08-12 19:22:45.8030,-0.1,-0.0,-0.02
2020-08-12 19:22:45.9020,-0.02,-0.03,-0.11
2020-08-12 19:22:46.0020,-0.0,-0.04,-0.11
2020-08-12 19:22:46.1010,-0.04,-0.02,-0.08
2020-08-12 19:22:46.2000,0.14,-0.1,-0.06
2020-08-12 19:22:46.2990,0.17,-0.34,-0.1
2020-08-12 19:22:46.3990,0.51,-0.43,0.12
2020-08-12 19:22:46.4980,0.76,-0.19,0.2
2020-08-12 19:22:46.5970,0.72,0.15,-0.16
2020-08-12 19:22:46.6960,0.6,0.04,-0.26
2020-08-12 19:22:46.7960,-0.03,-0.27,-0.28
2020-08-12 19:22:46.8950,-1.27,-0.8,0.16
2020-08-12 19:22:46.9940,-1.06,-0.15,0.1
2020-08-12 19:22:47.0940,-0.57,-0.17,0.03
2020-08-12 19:22:47.1930,-0.32,-0.02,0.08
2020-08-12 19:22:47.2920,-0.01,-0.01,-0.02
2020-08-12 19:22:47.3910,-0.11,-0.01,-0.08
2020-08-12 19:22:47.4910,0.08,-0.04,-0.09
2020-08-12 19:22:47.5900,-0.04,-0.05,-0.09
2020-08-12 19:22:47.6890,0.1,-0.06,0.04
2020-08-12 19:22:47.7890,0.19,-0.21,-0.12
2020-08-12 19:22:47.8880,0.53,-0.55,-0.07
2020-08-12 19:22:47.9870,0.29,-0.56,0.24
2020-08-12 19:22:48.0860,0.29,0.12,0.07
2020-08-12 19:22:48.1860,0.7,0.21,-0.24
2020-08-12 19:22:48.2850,-0.08,-0.09,-0.17
2020-08-12 19:22:48.3840,-0.56,-0.89,0.07
2020-08-12 19:22:48.4830,-1.11,-0.08,-0.08
2020-08-12 19:22:48.5830,0.11,-0.42,-0.47
2020-08-12 19:22:48.6820,-0.2,0.21,0.12
2020-08-12 19:22:48.7810,0.05,-0.07,-0.15
2020-08-12 19:22:48.8800,-0.1,-0.0,-0.08
2020-08-12 19:22:48.9800,-0.05,-0.02,-0.1
2020-08-12 19:22:49.0790,-0.04,-0.03,-0.08
2020-08-12 19:22:49.1780,0.02,-0.06,-0.11
2020-08-12 19:22:49.2780,0.12,-0.13,-0.07
2020-08-12 19:22:49.3770,0.23,-0.42,-0.04
2020-08-12 19:22:49.4760,0.55,-0.46,0.01
2020-08-12 19:22:49.5750,0.56,-0.04,0.16
2020-08-12 19:22:49.6750,0.52,0.27,-0.27
2020-08-12 19:22:49.7740,0.27,-0.03,-0.21
2020-08-12 19:22:49.8730,-0.21,-0.4,-0.16
2020-08-12 19:22:49.9730,-1.02,-0.44,0.08
2020-08-12 19:22:50.0720,-0.97,-0.14,-0.02
2020-08-12 19:22:50.1710,-0.52,-0.2,0.14
2020-08-12 19:22:50.2700,-0.35,0.04,0.07
2020-08-12 19:22:50.3700,0.04,-0.05,-0.1
2020-08-12 19:22:50.4690,-0.1,0.0,-0.06
2020-08-12 19:22:50.5680,-0.04,-0.01,-0.04
2020-08-12 19:22:50.6670,-0.07,0.01,-0.09
2020-08-12 19:22:50.7670,0.05,-0.06,-0.13
2020-08-12 19:22:50.8660,0.17,-0.22,-0.0
2020-08-12 19:22:50.9650,0.54,-0.61,0.01
2020-08-12 19:22:51.0650,0.43,-0.34,0.27
2020-08-12 19:22:51.1640,0.84,0.31,-0.1
2020-08-12 19:22:51.2630,0.45,0.02,-0.17
2020-08-12 19:22:51.3620,0.03,-0.32,-0.19
2020-08-12 19:22:51.4610,-0.81,-0.76,-0.12
2020-08-12 19:22:51.5610,-1.15,-0.1,0.14
2020-08-12 19:22:51.6600,-0.4,-0.33,-0.19
2020-08-12 19:22:51.7590,-0.33,0.07,0.04
2020-08-12 19:22:51.8590,0.15,-0.08,-0.11
2020-08-12 19:22:51.9580,-0.09,-0.03,-0.16
2020-08-12 19:22:52.0570,-0.09,-0.01,-0.07
2020-08-12 19:22:52.1560,0.0,-0.04,-0.06
2020-08-12 19:22:52.2560,0.07,-0.09,-0.08
2020-08-12 19:22:52.3550,0.14,-0.17,-0.08
2020-08-12 19:22:52.4540,0.43,-0.49,-0.02
2020-08-12 19:22:52.5530,0.27,-0.71,0.22
2020-08-12 19:22:52.6530,0.49,0.04,0.08
2020-08-12 19:22:52.7520,0.62,0.26,-0.26
2020-08-12 19:22:52.8510,-0.09,-0.02,-0.06
2020-08-12 19:22:52.9510,-0.62,-0.65,-0.13
2020-08-12 19:22:53.0500,-1.16,-0.11,0.02
2020-08-12 19:22:53.1490,1.23,-0.33,-0.44
2020-08-12 19:22:53.2480,-0.28,0.04,-0.23
2020-08-12 19:22:53.3480,0.16,-0.03,-0.04
2020-08-12 19:22:53.4470,-0.07,-0.02,-0.02
2020-08-12 19:22:53.5460,0.04,-0.05,-0.12
2020-08-12 19:22:53.6450,-0.07,-0.03,-0.17
2020-08-12 19:22:53.7450,-0.05,-0.02,-0.08
2020-08-12 19:22:53.8440,0.09,-0.09,-0.05
2020-08-12 19:22:53.9430,0.13,-0.34,-0.12
2020-08-12 19:22:54.0430,0.57,-0.59,-0.08
2020-08-12 19:22:54.1420,0.3,-0.48,0.22
2020-08-12 19:22:54.2410,0.75,0.06,0.14
2020-08-12 19:22:54.3400,0.49,0.25,-0.26
2020-08-12 19:22:54.4400,0.08,-0.12,-0.16
2020-08-12 19:22:54.5390,-0.66,-0.89,-0.08
2020-08-12 19:22:54.6380,-1.46,-0.15,0.06
2020-08-12 19:22:54.7380,-0.48,-0.25,-0.07
2020-08-12 19:22:54.8370,-0.3,-0.03,0.12
2020-08-12 19:22:54.9360,-0.04,-0.02,-0.15
2020-08-12 19:22:55.0350,-0.06,-0.01,-0.0
2020-08-12 19:22:55.1350,-0.04,-0.03,-0.15
2020-08-12 19:22:55.2340,-0.05,-0.02,-0.11
2020-08-12 19:22:55.3330,0.02,-0.03,-0.03
2020-08-12 19:22:55.4320,0.07,-0.1,-0.05
2020-08-12 19:22:55.5320,0.26,-0.4,-0.03
2020-08-12 19:22:55.6310,0.49,-0.48,0.11
2020-08-12 19:22:55.7300,0.37,0.05,0.14
2020-08-12 19:22:55.8290,0.68,0.37,-0.26
2020-08-12 19:22:55.9290,0.17,0.02,-0.09
2020-08-12 19:22:56.0280,-0.26,-0.45,0.02
2020-08-12 19:22:56.1270,-0.92,-0.42,-0.12
2020-08-12 19:22:56.2270,-1.26,-0.24,-0.02
2020-08-12 19:22:56.3270,-0.21,-0.07,-0.13
2020-08-12 19:22:56.4250,-0.24,0.03,0.06
2020-08-12 19:22:56.5240,-0.02,-0.03,-0.09
2020-08-12 19:22:56.6240,-0.04,-0.04,-0.23
2020-08-12 19:22:56.7230,-0.01,-0.05,-0.09
2020-08-12 19:22:56.8220,-0.05,-0.01,-0.09
2020-08-12 19:22:56.9210,0.09,-0.08,-0.07
2020-08-12 19:22:57.0210,0.17,-0.24,-0.09
2020-08-12 19:22:57.1200,0.34,-0.45,-0.03
2020-08-12 19:22:57.2200,0.42,-0.56,0.12
2020-08-12 19:22:57.3180,0.52,0.09,0.06
2020-08-12 19:22:57.4180,0.61,0.16,-0.16
2020-08-12 19:22:57.5170,0.03,-0.05,-0.09
2020-08-12 19:22:57.6160,-0.49,-0.55,-0.15
2020-08-12 19:22:57.7150,-1.05,-0.21,0.17
2020-08-12 19:22:57.8150,-0.12,-0.5,-0.61
2020-08-12 19:22:57.9140,-0.42,-0.25,0.06
2020-08-12 19:22:58.0130,-0.07,-0.04,-0.24
2020-08-12 19:22:58.1130,-0.12,0.0,-0.01
2020-08-12 19:22:58.2120,-0.01,-0.05,-0.15
2020-08-12 19:22:58.3110,-0.08,-0.01,-0.12
2020-08-12 19:22:58.4110,-0.03,-0.01,-0.12
2020-08-12 19:22:58.5100,0.11,-0.12,-0.05
2020-08-12 19:22:58.6090,0.15,-0.24,-0.14
2020-08-12 19:22:58.7080,0.42,-0.48,0.05
2020-08-12 19:22:58.8070,0.61,-0.25,0.28
2020-08-12 19:22:58.9070,0.67,0.18,0.04
2020-08-12 19:22:59.0060,0.47,0.05,-0.2
2020-08-12 19:22:59.1050,0.05,-0.09,-0.16
2020-08-12 19:22:59.2050,-0.45,-0.48,-0.05
2020-08-12 19:22:59.3040,-0.96,-0.19,-0.05
2020-08-12 19:22:59.4030,-0.23,-0.47,-0.61
2020-08-12 19:22:59.5020,-0.41,-0.11,-0.41
2020-08-12 19:22:59.6020,-0.03,-0.07,-0.22
2020-08-12 19:22:59.7010,-0.07,-0.0,0.07
2020-08-12 19:22:59.8000,-0.05,-0.03,-0.15
2020-08-12 19:22:59.8990,-0.05,-0.03,-0.15
2020-08-12 19:22:59.9990,0.0,-0.04,-0.09
2020-08-12 19:23:00.0980,0.05,-0.09,-0.12
2020-08-12 19:23:00.1970,0.29,-0.29,-0.05
2020-08-12 19:23:00.2970,0.34,-0.51,0.01
2020-08-12 19:23:00.3960,0.4,-0.36,0.1
2020-08-12 19:23:00.4950,0.61,0.21,0.08
2020-08-12 19:23:00.5940,0.58,0.03,-0.14
2020-08-12 19:23:00.6940,0.05,-0.25,-0.16
2020-08-12 19:23:00.7930,-0.65,-0.47,-0.11
2020-08-12 19:23:00.8920,-1.19,-0.07,-0.06
2020-08-12 19:23:00.9920,0.56,-0.51,-0.49
2020-08-12 19:23:01.0910,-0.23,0.25,-0.02
2020-08-12 19:23:01.1900,0.07,-0.09,-0.14
2020-08-12 19:23:01.2890,-0.09,-0.01,-0.04
2020-08-12 19:23:01.3890,-0.03,-0.04,-0.1
2020-08-12 19:23:01.4880,0.02,-0.07,-0.1
2020-08-12 19:23:01.5870,-0.03,-0.03,-0.1
2020-08-12 19:23:01.6860,0.11,-0.12,-0.09
2020-08-12 19:23:01.7860,0.18,-0.33,-0.12
2020-08-12 19:23:01.8850,0.48,-0.42,0.07
2020-08-12 19:23:01.9840,0.58,-0.18,0.22
2020-08-12 19:23:02.0830,0.65,0.15,-0.23
2020-08-12 19:23:02.1830,0.43,-0.01,-0.23
2020-08-12 19:23:02.2820,0.03,-0.32,-0.25
2020-08-12 19:23:02.3810,-1.24,-0.61,0.14
2020-08-12 19:23:02.4810,-1.28,-0.42,-0.27
2020-08-12 19:23:02.5800,-0.27,0.02,0.17
2020-08-12 19:23:02.6790,-0.02,-0.07,-0.25
2020-08-12 19:23:02.7780,-0.11,0.01,-0.03
2020-08-12 19:23:02.8780,-0.07,-0.02,-0.12
2020-08-12 19:23:02.9770,-0.04,-0.03,-0.1
2020-08-12 19:23:03.0760,0.03,-0.06,-0.11
2020-08-12 19:23:03.1750,0.05,-0.06,-0.1
2020-08-12 19:23:03.2750,0.08,-0.16,-0.06
2020-08-12 19:23:03.3740,0.36,-0.41,-0.03
2020-08-12 19:23:03.4730,0.27,-0.4,0.01
2020-08-12 19:23:03.5730,0.37,0.01,0.15
2020-08-12 19:23:03.6720,0.53,0.24,-0.25
2020-08-12 19:23:03.7710,0.1,-0.04,-0.22
2020-08-12 19:23:03.8700,-0.17,-0.41,-0.18
2020-08-12 19:23:03.9700,-1.1,-0.39,0.19
2020-08-12 19:23:04.0690,-0.91,-0.43,-0.23
2020-08-12 19:23:04.1680,-0.26,-0.16,-0.15
2020-08-12 19:23:04.2670,-0.2,-0.01,-0.12
2020-08-12 19:23:04.3670,-0.08,-0.03,-0.04
2020-08-12 19:23:04.4660,0.07,-0.05,-0.17
2020-08-12 19:23:04.5650,-0.12,-0.03,-0.06
2020-08-12 19:23:04.6650,-0.02,-0.05,-0.12
2020-08-12 19:23:04.7640,0.08,-0.08,-0.08
2020-08-12 19:23:04.8630,0.14,-0.21,-0.07
2020-08-12 19:23:04.9620,0.41,-0.54,-0.05
2020-08-12 19:23:05.0620,0.17,-0.53,0.08
2020-08-12 19:23:05.1610,0.35,0.02,0.16
2020-08-12 19:23:05.2600,0.44,0.25,-0.22
2020-08-12 19:23:05.3590,0.14,0.07,-0.16
2020-08-12 19:23:05.4590,-0.43,-0.56,-0.04
2020-08-12 19:23:05.5580,-1.01,-0.2,-0.03
2020-08-12 19:23:05.6570,-0.7,-0.28,-0.34
2020-08-12 19:23:05.7560,-0.48,-0.47,-0.06
2020-08-12 19:23:05.8560,-0.08,-0.06,-0.1
2020-08-12 19:23:05.9550,-0.05,-0.05,-0.03
2020-08-12 19:23:06.0540,0.04,-0.08,-0.19
2020-08-12 19:23:06.1540,-0.05,-0.01,-0.15
2020-08-12 19:23:06.2530,-0.07,-0.01,-0.11
2020-08-12 19:23:06.3520,0.07,-0.08,-0.09
2020-08-12 19:23:06.4510,0.09,-0.1,-0.07
2020-08-12 19:23:06.5510,0.27,-0.39,-0.0
2020-08-12 19:23:06.6500,0.46,-0.43,-0.03
2020-08-12 19:23:06.7490,0.3,0.02,0.18
2020-08-12 19:23:06.8480,0.63,0.22,-0.25
2020-08-12 19:23:06.9480,0.21,0.06,-0.13
2020-08-12 19:23:07.0470,-0.1,-0.32,-0.09
2020-08-12 19:23:07.1460,-0.84,-0.55,0.05
2020-08-12 19:23:07.2460,-0.98,-0.12,0.09
2020-08-12 19:23:07.3450,-0.42,-0.26,0.03
2020-08-12 19:23:07.4440,-0.33,0.0,0.18
2020-08-12 19:23:07.5430,0.09,-0.06,-0.09
2020-08-12 19:23:07.6430,-0.13,-0.02,-0.11
2020-08-12 19:23:07.7420,-0.02,-0.03,-0.07
2020-08-12 19:23:07.8410,-0.05,-0.03,-0.12
2020-08-12 19:23:07.9400,0.04,-0.06,-0.09
2020-08-12 19:23:08.0400,0.05,-0.09,-0.12
2020-08-12 19:23:08.1390,0.05,-0.2,-0.05
2020-08-12 19:23:08.2380,0.42,-0.43,-0.04
2020-08-12 19:23:08.3370,0.2,-0.32,0.05
2020-08-12 19:23:08.4370,0.3,0.06,0.1
2020-08-12 19:23:08.5360,0.67,0.26,-0.08
2020-08-12 19:23:08.6350,0.12,-0.07,-0.18
2020-08-12 19:23:08.7350,-0.37,-0.41,-0.09
2020-08-12 19:23:08.8340,-1.09,-0.32,0.07
2020-08-12 19:23:08.9330,-0.74,-0.32,-0.35
2020-08-12 19:23:09.0320,-0.33,-0.08,0.04
2020-08-12 19:23:09.1320,-0.09,-0.03,-0.17
2020-08-12 19:23:09.2310,-0.11,-0.01,-0.06
2020-08-12 19:23:09.3300,-0.04,-0.04,-0.13
2020-08-12 19:23:09.4290,0.04,-0.07,-0.11
2020-08-12 19:23:09.5290,-0.01,-0.05,-0.1
2020-08-12 19:23:09.6280,0.04,-0.06,-0.15
2020-08-12 19:23:09.7270,0.09,-0.12,-0.03
2020-08-12 19:23:09.8270,0.37,-0.42,-0.09
2020-08-12 19:23:09.9260,0.41,-0.42,0.05
2020-08-12 19:23:10.0250,0.34,0.11,0.14
2020-08-12 19:23:10.1240,0.58,0.19,-0.31
2020-08-12 19:23:10.2240,0.11,-0.1,-0.19
2020-08-12 19:23:10.3230,-0.17,-0.4,-0.14
2020-08-12 19:23:10.4220,-0.84,-0.41,-0.03
2020-08-12 19:23:10.5210,-0.82,-0.1,0.09
2020-08-12 19:23:10.6210,-0.27,-0.28,-0.07
2020-08-12 19:23:10.7200,-0.35,0.14,0.24
2020-08-12 19:23:10.8190,0.05,-0.08,-0.11
2020-08-12 19:23:10.9190,-0.07,-0.03,-0.16
2020-08-12 19:23:11.0180,-0.01,-0.05,-0.08
2020-08-12 19:23:11.1170,-0.0,-0.05,-0.07
2020-08-12 19:23:11.2160,0.0,-0.03,-0.11
2020-08-12 19:23:11.3160,0.16,-0.2,-0.16
2020-08-12 19:23:11.4150,0.32,-0.41,-0.01
2020-08-12 19:23:11.5140,0.3,-0.32,0.04
2020-08-12 19:23:11.6130,0.43,0.04,0.17
2020-08-12 19:23:11.7130,0.61,0.18,-0.16
2020-08-12 19:23:11.8120,0.2,0.04,-0.31
2020-08-12 19:23:11.9110,-0.16,-0.5,-0.17
2020-08-12 19:23:12.0110,-1.24,-0.32,0.29
2020-08-12 19:23:12.1100,-0.69,-0.34,-0.24
2020-08-12 19:23:12.2090,-0.2,-0.25,0.08
2020-08-12 19:23:12.3080,-0.27,0.04,-0.04
2020-08-12 19:23:12.4080,-0.03,-0.04,-0.1
2020-08-12 19:23:12.5070,0.08,-0.06,-0.11
2020-08-12 19:23:12.6060,0.01,-0.05,-0.13
2020-08-12 19:23:12.7060,-0.06,-0.02,-0.09
2020-08-12 19:23:12.8050,0.18,-0.11,-0.12
2020-08-12 19:23:12.9040,0.18,-0.27,-0.12
2020-08-12 19:23:13.0030,0.3,-0.47,0.0
2020-08-12 19:23:13.1030,0.37,-0.45,0.15
2020-08-12 19:23:13.2020,0.21,0.01,0.08
2020-08-12 19:23:13.3010,0.6,0.24,-0.24
2020-08-12 19:23:13.4000,0.09,-0.16,-0.11
2020-08-12 19:23:13.5000,-0.52,-0.52,0.06
2020-08-12 19:23:13.5990,-1.2,-0.18,0.03
2020-08-12 19:23:13.6980,1.18,-0.36,-0.42
2020-08-12 19:23:13.7970,-0.43,-0.1,-0.09
2020-08-12 19:23:13.8970,0.04,-0.12,-0.21
2020-08-12 19:23:13.9960,-0.12,0.01,-0.11
2020-08-12 19:23:14.0950,-0.02,-0.04,-0.11
2020-08-12 19:23:14.1950,0.03,-0.07,-0.12
2020-08-12 19:23:14.2940,-0.02,-0.05,-0.07
2020-08-12 19:23:14.3930,0.18,-0.16,-0.07
2020-08-12 19:23:14.4920,0.45,-0.53,-0.01
2020-08-12 19:23:14.5910,0.37,-0.46,0.13
2020-08-12 19:23:14.6910,0.59,0.2,-0.0
2020-08-12 19:23:14.7900,0.61,0.22,-0.15
2020-08-12 19:23:14.8890,-0.03,-0.16,-0.12
2020-08-12 19:23:14.9890,-0.45,-0.82,-0.16
2020-08-12 19:23:15.0880,-0.99,-0.09,-0.1
2020-08-12 19:23:15.1870,-0.48,-0.23,-0.17
2020-08-12 19:23:15.2860,-0.25,-0.4,-0.03
2020-08-12 19:23:15.3860,-0.34,-0.02,-0.04
2020-08-12 19:23:15.4850,0.19,-0.03,-0.01
2020-08-12 19:23:15.5840,-0.05,-0.03,-0.16
2020-08-12 19:23:15.6840,0.02,-0.03,-0.03
2020-08-12 19:23:15.7830,-0.03,-0.05,-0.17
2020-08-12 19:23:15.8820,0.12,-0.1,-0.07
2020-08-12 19:23:15.9810,0.17,-0.25,-0.01
2020-08-12 19:23:16.0810,0.29,-0.41,0.03
2020-08-12 19:23:16.1800,0.35,-0.48,0.09
2020-08-12 19:23:16.2790,0.44,0.12,0.14
2020-08-12 19:23:16.3790,0.61,0.12,-0.31
2020-08-12 19:23:16.4780,-0.07,-0.21,-0.1
2020-08-12 19:23:16.5770,-0.81,-0.86,-0.03
2020-08-12 19:23:16.6760,-1.03,-0.29,-0.04
2020-08-12 19:23:16.7760,-0.3,-0.22,-0.2
2020-08-12 19:23:16.8750,-0.19,0.14,0.05
2020-08-12 19:23:16.9740,0.0,-0.04,-0.06
2020-08-12 19:23:17.0730,-0.07,-0.03,-0.12
2020-08-12 19:23:17.1730,-0.09,-0.02,-0.05
2020-08-12 19:23:17.2720,0.05,-0.05,-0.13
2020-08-12 19:23:17.3710,0.02,-0.08,-0.1
2020-08-12 19:23:17.4700,0.13,-0.21,-0.1
2020-08-12 19:23:17.5700,0.38,-0.45,-0.05
2020-08-12 19:23:17.6690,0.35,-0.45,0.18
2020-08-12 19:23:17.7680,0.21,0.04,0.13
2020-08-12 19:23:17.8680,0.45,0.21,-0.29
2020-08-12 19:23:17.9670,0.15,-0.06,-0.33
2020-08-12 19:23:18.0660,-0.47,-0.61,-0.15
2020-08-12 19:23:18.1650,-1.44,-0.11,0.23
2020-08-12 19:23:18.2650,1.39,-0.4,-0.31
2020-08-12 19:23:18.3640,-0.27,0.2,-0.1
2020-08-12 19:23:18.4630,0.18,-0.06,-0.11
2020-08-12 19:23:18.5620,-0.06,-0.03,-0.01
2020-08-12 19:23:18.6620,-0.0,-0.04,-0.17
2020-08-12 19:23:18.7610,-0.06,-0.02,-0.12
2020-08-12 19:23:18.8600,-0.03,-0.02,-0.1
2020-08-12 19:23:18.9590,0.13,-0.17,-0.08
2020-08-12 19:23:19.0590,0.45,-0.44,-0.06
2020-08-12 19:23:19.1580,0.51,-0.38,0.01
2020-08-12 19:23:19.2570,0.39,0.13,0.14
2020-08-12 19:23:19.3570,0.56,0.31,-0.15
2020-08-12 19:23:19.4560,0.23,0.02,-0.23
2020-08-12 19:23:19.5550,-0.21,-0.52,-0.22
2020-08-12 19:23:19.6540,-1.2,-0.33,0.12
2020-08-12 19:23:19.7540,-0.93,-0.47,-0.2
2020-08-12 19:23:19.8530,-0.46,-0.18,0.11
2020-08-12 19:23:19.9520,-0.29,-0.03,-0.09
2020-08-12 19:23:20.0510,-0.09,-0.02,0.02
2020-08-12 19:23:20.1510,0.15,-0.07,-0.12
2020-08-12 19:23:20.2500,-0.04,-0.04,-0.12
2020-08-12 19:23:20.3490,-0.0,-0.05,-0.09
2020-08-12 19:23:20.4490,0.12,-0.1,-0.01
2020-08-12 19:23:20.5480,0.09,-0.27,-0.1
2020-08-12 19:23:20.6470,0.35,-0.43,-0.01
2020-08-12 19:23:20.7460,0.66,-0.26,0.2
2020-08-12 19:23:20.8460,0.79,0.29,-0.05
2020-08-12 19:23:20.9450,0.49,0.12,-0.28
2020-08-12 19:23:21.0440,0.07,-0.35,-0.18
2020-08-12 19:23:21.1430,-0.85,-0.71,0.07
2020-08-12 19:23:21.2430,-1.01,-0.14,-0.1
2020-08-12 19:23:21.3420,-0.24,-0.25,-0.59
2020-08-12 19:23:21.4410,-0.41,0.05,-0.05
2020-08-12 19:23:21.5410,0.06,-0.11,-0.19
2020-08-12 19:23:21.6400,-0.11,-0.0,-0.07
2020-08-12 19:23:21.7390,-0.05,-0.03,-0.14
2020-08-12 19:23:21.8380,-0.05,-0.04,-0.11
2020-08-12 19:23:21.9380,0.02,-0.08,-0.12
2020-08-12 19:23:22.0370,0.1,-0.15,-0.02
2020-08-12 19:23:22.1360,0.35,-0.46,0.0
2020-08-12 19:23:22.2360,0.3,-0.38,0.19
2020-08-12 19:23:22.3350,0.22,-0.09,0.12
2020-08-12 19:23:22.4340,0.64,0.36,-0.23
2020-08-12 19:23:22.5330,0.1,-0.02,-0.16
2020-08-12 19:23:22.6330,-0.29,-0.67,-0.13
2020-08-12 19:23:22.7320,-1.2,-0.09,0.1
2020-08-12 19:23:22.8310,1.64,-0.25,-0.15
2020-08-12 19:23:22.9300,-0.32,0.03,-0.14
2020-08-12 19:23:23.0290,-0.03,-0.12,-0.28
2020-08-12 19:23:23.1290,-0.15,0.03,-0.01
2020-08-12 19:23:23.2280,-0.04,-0.05,-0.06
2020-08-12 19:23:23.3270,-0.03,-0.04,-0.13
2020-08-12 19:23:23.4270,0.02,-0.05,-0.08
2020-08-12 19:23:23.5260,0.06,-0.12,-0.1
2020-08-12 19:23:23.6250,0.25,-0.39,-0.09
2020-08-12 19:23:23.7250,0.56,-0.41,0.03
2020-08-12 19:23:23.8240,0.57,-0.03,0.12
2020-08-12 19:23:23.9230,0.43,0.15,-0.25
2020-08-12 19:23:24.0220,0.36,0.19,-0.25
2020-08-12 19:23:24.1220,-0.04,-0.27,-0.13
2020-08-12 19:23:24.2210,-1.09,-0.82,0.09
2020-08-12 19:23:24.3200,-0.94,-0.2,-0.07
2020-08-12 19:23:24.4190,-0.52,-0.26,0.02
2020-08-12 19:23:24.5190,-0.18,0.01,-0.11
2020-08-12 19:23:24.6180,0.05,-0.01,-0.06
2020-08-12 19:23:24.7170,-0.12,-0.02,-0.08
2020-08-12 19:23:24.8160,0.01,-0.01,0.02
2020-08-12 19:23:24.9160,-0.04,-0.06,-0.33
2020-08-12 19:23:25.0150,0.02,-0.06,-0.08
2020-08-12 19:23:25.1140,0.12,-0.14,-0.05
2020-08-12 19:23:25.2140,0.62,-0.45,-0.07
2020-08-12 19:23:25.3130,0.39,-0.36,0.24
2020-08-12 19:23:25.4120,0.19,-0.06,0.14
2020-08-12 19:23:25.5110,0.68,0.27,-0.26
2020-08-12 19:23:25.6110,0.11,-0.07,-0.3
2020-08-12 19:23:25.7100,-0.72,-0.84,-0.07
2020-08-12 19:23:25.8090,-1.44,-0.03,0.32
2020-08-12 19:23:25.9090,0.21,-0.33,-0.77
2020-08-12 19:23:26.0080,-0.27,0.11,0.1
2020-08-12 19:23:26.1070,0.06,-0.07,-0.14
2020-08-12 19:23:26.2060,-0.22,-0.03,-0.11
2020-08-12 19:23:26.3060,-0.01,-0.02,-0.06
2020-08-12 19:23:26.4050,-0.04,-0.05,-0.14
2020-08-12 19:23:26.5040,0.03,-0.06,-0.1
2020-08-12 19:23:26.6030,0.03,-0.12,-0.08
2020-08-12 19:23:26.7030,0.26,-0.42,-0.03
2020-08-12 19:23:26.8020,0.5,-0.48,-0.02
2020-08-12 19:23:26.9010,0.46,0.02,0.12
2020-08-12 19:23:27.0000,0.6,0.29,-0.24
2020-08-12 19:23:27.1000,0.25,0.01,-0.26
2020-08-12 19:23:27.1990,-0.35,-0.53,-0.16
2020-08-12 19:23:27.2980,-1.22,-0.27,0.0
2020-08-12 19:23:27.3980,1.18,-0.35,-0.37
2020-08-12 19:23:27.4970,-0.47,-0.33,-0.03
2020-08-12 19:23:27.5960,0.02,-0.12,-0.19
2020-08-12 19:23:27.6950,-0.08,-0.02,0.02
2020-08-12 19:23:27.7940,-0.06,-0.05,-0.15
2020-08-12 19:23:27.8940,0.04,-0.05,-0.14
2020-08-12 19:23:27.9930,0.03,-0.07,-0.17
2020-08-12 19:23:28.0930,0.06,-0.08,-0.06
2020-08-12 19:23:28.1920,0.16,-0.28,-0.09
2020-08-12 19:23:28.2910,0.61,-0.55,0.03
2020-08-12 19:23:28.3900,0.56,-0.3,0.18
2020-08-12 19:23:28.4900,0.68,0.3,-0.16
2020-08-12 19:23:28.5890,0.59,0.22,-0.19
2020-08-12 19:23:28.6880,-0.11,-0.33,-0.11
2020-08-12 19:23:28.7870,-0.89,-0.79,-0.02
2020-08-12 19:23:28.8870,-1.05,-0.14,0.07
2020-08-12 19:23:28.9860,-0.22,-0.15,-0.35
2020-08-12 19:23:29.0850,-0.19,0.21,0.09
2020-08-12 19:23:29.1840,0.04,-0.1,-0.23
2020-08-12 19:23:29.2840,-0.15,0.01,0.02
2020-08-12 19:23:29.3830,0.0,-0.05,-0.18
2020-08-12 19:23:29.4820,-0.06,-0.02,-0.1
2020-08-12 19:23:29.5820,0.14,-0.17,-0.11
2020-08-12 19:23:29.6810,0.19,-0.32,-0.19
2020-08-12 19:23:29.7800,0.59,-0.63,0.11
2020-08-12 19:23:29.8790,0.64,-0.13,0.18
2020-08-12 19:23:29.9790,0.62,0.4,-0.28
2020-08-12 19:23:30.0780,0.23,0.0,-0.26
2020-08-12 19:23:30.1770,-0.22,-0.66,-0.37
2020-08-12 19:23:30.2760,-1.16,-0.4,0.15
2020-08-12 19:23:30.3760,-0.46,-0.41,-0.02
2020-08-12 19:23:30.4750,-0.53,-0.42,-0.1
2020-08-12 19:23:30.5740,-0.11,-0.03,0.11
2020-08-12 19:23:30.6730,0.02,-0.05,-0.04
2020-08-12 19:23:30.7730,-0.03,-0.05,-0.13
2020-08-12 19:23:30.8720,-0.03,-0.04,-0.15
2020-08-12 19:23:30.9710,0.09,-0.02,-0.11
2020-08-12 19:23:31.0710,0.14,-0.1,-0.09
2020-08-12 19:23:31.1700,0.1,-0.45,-0.1
2020-08-12 19:23:31.2690,0.61,-0.54,0.07
2020-08-12 19:23:31.3680,0.58,-0.3,0.09
2020-08-12 19:23:31.4680,0.71,0.34,-0.16
2020-08-12 19:23:31.5670,0.5,0.19,-0.25
2020-08-12 19:23:31.6660,-0.12,-0.44,-0.14
2020-08-12 19:23:31.7650,-1.11,-0.7,-0.05
2020-08-12 19:23:31.8650,-1.33,-0.45,-0.05
2020-08-12 19:23:31.9640,-0.57,0.07,-0.0
2020-08-12 19:23:32.0630,-0.21,-0.0,0.01
2020-08-12 19:23:32.1630,-0.06,-0.04,-0.04
2020-08-12 19:23:32.2620,0.25,-0.1,-0.19
2020-08-12 19:23:32.3610,-0.08,-0.01,-0.2
2020-08-12 19:23:32.4600,-0.13,0.0,-0.09
2020-08-12 19:23:32.5600,0.14,-0.1,-0.08
2020-08-12 19:23:32.6590,0.31,-0.41,-0.1
2020-08-12 19:23:32.7580,0.56,-0.4,0.07
2020-08-12 19:23:32.8570,0.64,-0.14,0.14
2020-08-12 19:23:32.9570,0.56,0.25,-0.2
2020-08-12 19:23:33.0560,0.31,0.05,-0.2
2020-08-12 19:23:33.1550,-0.16,-0.43,-0.11
2020-08-12 19:23:33.2540,-1.17,-0.54,0.13
2020-08-12 19:23:33.3540,-1.2,-0.37,-0.09
2020-08-12 19:23:33.4530,-0.41,-0.22,-0.02
2020-08-12 19:23:33.5520,-0.19,0.01,0.07
2020-08-12 19:23:33.6510,-0.07,-0.01,-0.05
2020-08-12 19:23:33.7510,-0.02,-0.09,-0.25
2020-08-12 19:23:33.8500,-0.04,-0.03,-0.1
2020-08-12 19:23:33.9490,-0.05,-0.02,-0.05
2020-08-12 19:23:34.0490,0.12,-0.13,-0.03
2020-08-12 19:23:34.1480,0.37,-0.57,-0.12
2020-08-12 19:23:34.2470,0.48,-0.36,0.14
2020-08-12 19:23:34.3460,0.32,0.12,0.15
2020-08-12 19:23:34.4460,0.67,0.34,-0.24
2020-08-12 19:23:34.5450,-0.08,0.0,-0.08
2020-08-12 19:23:34.6440,-0.17,-0.47,-0.18
2020-08-12 19:23:34.7440,-1.18,-0.17,0.08
2020-08-12 19:23:34.8430,-1.09,-0.49,-0.23
2020-08-12 19:23:34.9420,-0.53,-0.29,0.01
2020-08-12 19:23:35.0410,-0.03,-0.1,-0.09
2020-08-12 19:23:35.1410,-0.08,-0.01,-0.04
2020-08-12 19:23:35.2400,0.03,-0.07,-0.15
2020-08-12 19:23:35.3390,-0.02,-0.05,-0.14
2020-08-12 19:23:35.4390,0.12,-0.09,-0.12
2020-08-12 19:23:35.5380,0.11,-0.12,-0.05
2020-08-12 19:23:35.6370,0.41,-0.47,-0.04
2020-08-12 19:23:35.7360,0.58,-0.44,0.23
2020-08-12 19:23:35.8350,0.36,0.06,0.1
2020-08-12 19:23:35.9350,0.58,0.25,-0.19
2020-08-12 19:23:36.0340,0.16,0.08,-0.19
2020-08-12 19:23:36.1330,-0.3,-0.59,-0.09
2020-08-12 19:23:36.2320,-1.37,-0.17,0.14
2020-08-12 19:23:36.3320,0.67,-0.3,-0.59
2020-08-12 19:23:36.4310,-0.55,-0.32,-0.19
2020-08-12 19:23:36.5300,0.01,-0.14,-0.26
2020-08-12 19:23:36.6300,-0.21,0.04,-0.05
2020-08-12 19:23:36.7290,-0.01,-0.06,-0.15
2020-08-12 19:23:36.8280,-0.0,-0.06,-0.16
2020-08-12 19:23:36.9280,0.04,-0.09,-0.1
2020-08-12 19:23:37.0270,0.08,-0.14,-0.04
2020-08-12 19:23:37.1260,0.46,-0.54,-0.04
2020-08-12 19:23:37.2260,0.44,-0.56,0.32
2020-08-12 19:23:37.3250,0.21,0.01,0.08
2020-08-12 19:23:37.4240,0.61,0.33,-0.24
2020-08-12 19:23:37.5230,0.1,-0.11,-0.19
2020-08-12 19:23:37.6220,-0.57,-0.8,-0.06
2020-08-12 19:23:37.7220,-1.38,-0.08,0.04
2020-08-12 19:23:37.8210,0.99,-0.64,-0.88
2020-08-12 19:23:37.9200,-0.47,-0.28,0.12
2020-08-12 19:23:38.0190,-0.06,-0.06,-0.18
2020-08-12 19:23:38.1190,-0.07,-0.01,-0.0
2020-08-12 19:23:38.2180,0.0,-0.05,-0.1
2020-08-12 19:23:38.3170,-0.04,-0.04,-0.17
2020-08-12 19:23:38.4170,0.02,-0.08,-0.07
2020-08-12 19:23:38.5160,0.12,-0.16,-0.02
2020-08-12 19:23:38.6150,0.43,-0.53,-0.1
2020-08-12 19:23:38.7140,0.45,-0.58,0.13
2020-08-12 19:23:38.8140,0.43,0.13,0.03
2020-08-12 19:23:38.9130,0.66,0.26,-0.29
2020-08-12 19:23:39.0120,-0.03,-0.08,-0.12
2020-08-12 19:23:39.1110,-0.47,-0.71,-0.14
2020-08-12 19:23:39.2110,-1.48,-0.15,0.1
2020-08-12 19:23:39.3100,0.14,-0.57,-0.97
2020-08-12 19:23:39.4090,-0.42,-0.04,0.17
2020-08-12 19:23:39.5090,0.13,-0.13,-0.09
2020-08-12 19:23:39.6080,-0.08,-0.01,-0.21
2020-08-12 19:23:39.7070,-0.04,-0.05,-0.13
2020-08-12 19:23:39.8060,-0.05,-0.03,-0.1
2020-08-12 19:23:39.9060,0.09,-0.12,-0.11
2020-08-12 19:23:40.0050,0.17,-0.3,-0.1
2020-08-12 19:23:40.1040,0.54,-0.55,0.07
2020-08-12 19:23:40.2030,0.75,-0.35,0.2
2020-08-12 19:23:40.3030,0.73,0.34,-0.18
2020-08-12 19:23:40.4020,0.37,0.05,-0.21
2020-08-12 19:23:40.5010,-0.05,-0.4,-0.21
2020-08-12 19:23:40.6000,-1.08,-0.69,-0.03
2020-08-12 19:23:40.7000,-1.19,-0.19,0.22
2020-08-12 19:23:40.7990,-0.63,-0.19,-0.08
2020-08-12 19:23:40.8980,-0.34,0.11,0.14
2020-08-12 19:23:40.9970,0.11,-0.08,-0.21
2020-08-12 19:23:41.0970,-0.09,-0.05,-0.14
2020-08-12 19:23:41.1960,-0.03,-0.04,-0.11
2020-08-12 19:23:41.2950,-0.03,-0.06,-0.19
2020-08-12 19:23:41.3950,0.08,-0.1,-0.06
2020-08-12 19:23:41.4940,0.24,-0.32,-0.19
2020-08-12 19:23:41.5930,0.51,-0.55,0.05
2020-08-12 19:23:41.6920,0.52,-0.3,0.11
2020-08-12 19:23:41.7920,0.74,0.32,-0.2
2020-08-12 19:23:41.8910,0.6,0.12,-0.27
2020-08-12 19:23:41.9900,-0.2,-0.4,-0.1
2020-08-12 19:23:42.0900,-1.13,-0.63,0.06
2020-08-12 19:23:42.1890,-1.15,-0.33,-0.01
2020-08-12 19:23:42.2880,-0.73,-0.11,-0.01
2020-08-12 19:23:42.3870,-0.27,0.06,0.08
2020-08-12 19:23:42.4870,-0.11,-0.06,-0.16
2020-08-12 19:23:42.5860,-0.04,-0.04,-0.13
2020-08-12 19:23:42.6850,-0.01,-0.04,-0.18
2020-08-12 19:23:42.7840,-0.02,-0.01,-0.09
2020-08-12 19:23:42.8840,0.05,-0.13,-0.08
2020-08-12 19:23:42.9830,0.2,-0.33,-0.08
2020-08-12 19:23:43.0820,0.7,-0.56,0.07
2020-08-12 19:23:43.1820,0.54,-0.3,0.08
2020-08-12 19:23:43.2810,0.69,0.32,-0.27
2020-08-12 19:23:43.3800,0.52,0.04,-0.3
2020-08-12 19:23:43.4790,-0.2,-0.43,-0.0
2020-08-12 19:23:43.5790,-1.2,-0.49,0.2
2020-08-12 19:23:43.6780,-1.04,-0.14,0.07
2020-08-12 19:23:43.7770,-0.66,-0.27,0.12
2020-08-12 19:23:43.8760,-0.34,0.06,0.23
2020-08-12 19:23:43.9760,0.02,-0.08,-0.11
2020-08-12 19:23:44.0750,-0.06,-0.04,-0.15
2020-08-12 19:23:44.1740,-0.08,-0.03,-0.15
2020-08-12 19:23:44.2740,-0.08,-0.05,-0.12
2020-08-12 19:23:44.3730,0.12,-0.13,-0.07
2020-08-12 19:23:44.4720,0.16,-0.32,-0.06
2020-08-12 19:23:44.5710,0.57,-0.54,-0.02
2020-08-12 19:23:44.6700,0.67,-0.35,0.12
2020-08-12 19:23:44.7700,0.74,0.26,-0.15
2020-08-12 19:23:44.8690,0.55,0.14,-0.24
2020-08-12 19:23:44.9680,-0.06,-0.29,-0.03
2020-08-12 19:23:45.0680,-1.0,-0.75,0.12
2020-08-12 19:23:45.1670,-1.22,-0.19,-0.04
2020-08-12 19:23:45.2660,-0.6,-0.31,-0.21
2020-08-12 19:23:45.3660,-0.22,0.07,0.19
2020-08-12 19:23:45.4650,-0.01,-0.06,-0.19
2020-08-12 19:23:45.5640,-0.16,0.02,0.01
2020-08-12 19:23:45.6630,-0.02,-0.06,-0.16
2020-08-12 19:23:45.7620,0.06,-0.05,-0.14
2020-08-12 19:23:45.8620,0.08,-0.1,-0.13
2020-08-12 19:23:45.9610,0.13,-0.37,-0.13
2020-08-12 19:23:46.0600,0.47,-0.55,-0.03
2020-08-12 19:23:46.1600,0.29,-0.52,0.2
2020-08-12 19:23:46.2590,0.49,0.25,0.0
2020-08-12 19:23:46.3580,0.67,0.19,-0.35
2020-08-12 19:23:46.4580,-0.11,-0.31,-0.1
2020-08-12 19:23:46.5570,-0.63,-0.77,-0.02
2020-08-12 19:23:46.6560,-1.22,-0.11,0.11
2020-08-12 19:23:46.7550,0.28,-0.35,-0.91
2020-08-12 19:23:46.8550,-0.22,0.22,0.08
2020-08-12 19:23:46.9540,-0.02,-0.06,-0.13
2020-08-12 19:23:47.0530,-0.08,-0.05,-0.21
2020-08-12 19:23:47.1520,-0.09,-0.04,-0.11
2020-08-12 19:23:47.2520,-0.04,-0.05,-0.1
2020-08-12 19:23:47.3510,0.05,-0.1,-0.08
2020-08-12 19:23:47.4500,0.15,-0.23,-0.13
2020-08-12 19:23:47.5500,0.45,-0.52,-0.08
2020-08-12 19:23:47.6490,0.32,-0.58,0.1
2020-08-12 19:23:47.7480,0.37,0.08,-0.01
2020-08-12 19:23:47.8470,0.7,0.25,-0.23
2020-08-12 19:23:47.9470,-0.06,-0.23,-0.13
2020-08-12 19:23:48.0460,-0.74,-0.78,-0.04
2020-08-12 19:23:48.1450,-1.53,-0.09,0.14
2020-08-12 19:23:48.2440,0.16,-0.41,-0.76
2020-08-12 19:23:48.3440,-0.3,-0.05,0.03
2020-08-12 19:23:48.4430,0.15,-0.06,-0.19
2020-08-12 19:23:48.5420,-0.15,-0.0,-0.09
2020-08-12 19:23:48.6420,-0.19,-0.05,-0.06
2020-08-12 19:23:48.7410,0.11,-0.07,-0.16
2020-08-12 19:23:48.8400,0.11,-0.1,-0.07
2020-08-12 19:23:48.9390,0.2,-0.27,-0.17
2020-08-12 19:23:49.0380,0.5,-0.55,0.01
2020-08-12 19:23:49.1380,0.62,-0.42,0.22
2020-08-12 19:23:49.2370,0.46,0.15,0.04
2020-08-12 19:23:49.3360,0.51,0.38,-0.3
2020-08-12 19:23:49.4350,0.09,-0.1,-0.12
2020-08-12 19:23:49.5350,-0.53,-0.78,-0.18
2020-08-12 19:23:49.6340,-1.49,-0.08,0.23
2020-08-12 19:23:49.7330,0.03,-0.5,-0.74
2020-08-12 19:23:49.8330,-0.32,0.08,0.17
2020-08-12 19:23:49.9320,0.1,-0.1,-0.22
2020-08-12 19:23:50.0310,-0.1,-0.0,-0.02
2020-08-12 19:23:50.1300,-0.08,-0.03,-0.17
2020-08-12 19:23:50.2300,-0.04,-0.04,-0.11
2020-08-12 19:23:50.3290,0.03,-0.07,-0.14
2020-08-12 19:23:50.4280,0.14,-0.24,-0.18
2020-08-12 19:23:50.5280,0.32,-0.36,-0.09
2020-08-12 19:23:50.6270,0.41,-0.37,0.03
2020-08-12 19:23:50.7260,0.34,0.09,0.12
2020-08-12 19:23:50.8250,0.71,0.28,-0.35
2020-08-12 19:23:50.9250,0.04,-0.05,-0.18
2020-08-12 19:23:51.0240,-0.36,-0.67,-0.11
2020-08-12 19:23:51.1230,-1.29,-0.29,0.18
2020-08-12 19:23:51.2220,-0.72,-0.23,0.02
2020-08-12 19:23:51.3220,-0.36,-0.08,0.0
2020-08-12 19:23:51.4210,-0.15,-0.03,0.0
2020-08-12 19:23:51.5200,-0.07,-0.04,-0.08
2020-08-12 19:23:51.6200,-0.06,-0.05,-0.18
2020-08-12 19:23:51.7190,-0.06,-0.04,-0.12
2020-08-12 19:23:51.8180,-0.04,-0.05,-0.08
2020-08-12 19:23:51.9170,0.07,-0.1,-0.07
2020-08-12 19:23:52.0160,0.17,-0.37,-0.15
2020-08-12 19:23:52.1160,0.36,-0.48,0.09
2020-08-12 19:23:52.2150,0.35,-0.46,0.24
2020-08-12 19:23:52.3150,0.55,0.22,0.01
2020-08-12 19:23:52.4140,0.59,0.3,-0.25
2020-08-12 19:23:52.5130,-0.0,-0.13,-0.08
2020-08-12 19:23:52.6120,-0.74,-0.9,-0.14
2020-08-12 19:23:52.7110,-1.1,-0.21,-0.11
2020-08-12 19:23:52.8110,0.03,-0.62,-0.87
2020-08-12 19:23:52.9100,-0.42,0.07,0.16
2020-08-12 19:23:53.0100,0.05,-0.09,-0.23
2020-08-12 19:23:53.1090,-0.11,-0.01,-0.04
2020-08-12 19:23:53.2080,-0.07,-0.03,-0.15
2020-08-12 19:23:53.3070,-0.02,-0.05,-0.06
2020-08-12 19:23:53.4060,0.13,-0.12,-0.09
2020-08-12 19:23:53.5060,0.13,-0.17,-0.04
2020-08-12 19:23:53.6050,0.47,-0.72,0.04
2020-08-12 19:23:53.7040,0.36,-0.4,0.02
2020-08-12 19:23:53.8030,0.55,0.27,0.05
2020-08-12 19:23:53.9030,0.37,0.33,-0.14
2020-08-12 19:23:54.0020,-0.03,-0.12,-0.17
2020-08-12 19:23:54.1010,-0.7,-0.95,0.0
2020-08-12 19:23:54.2010,-1.23,-0.11,0.14
2020-08-12 19:23:54.3000,-0.28,-0.38,-0.37
2020-08-12 19:23:54.3990,-0.38,0.23,0.03
2020-08-12 19:23:54.4980,0.18,-0.05,-0.1
2020-08-12 19:23:54.5970,-0.07,-0.05,-0.11
2020-08-12 19:23:54.6970,0.02,-0.04,-0.13
2020-08-12 19:23:54.7960,-0.05,-0.03,-0.04
2020-08-12 19:23:54.8960,0.06,-0.08,-0.1
2020-08-12 19:23:54.9950,0.03,-0.15,-0.17
2020-08-12 19:23:55.0940,0.39,-0.46,-0.14
2020-08-12 19:23:55.1930,0.54,-0.49,0.07
2020-08-12 19:23:55.2920,0.36,-0.01,0.12
2020-08-12 19:23:55.3920,0.63,0.35,-0.27
2020-08-12 19:23:55.4910,0.28,0.04,-0.23
2020-08-12 19:23:55.5900,-0.42,-0.64,-0.01
2020-08-12 19:23:55.6900,-1.22,-0.24,0.02
2020-08-12 19:23:55.7890,0.59,-0.21,-0.48
2020-08-12 19:23:55.8880,-0.73,-0.8,0.15
2020-08-12 19:23:55.9870,-0.08,-0.06,-0.42
2020-08-12 19:23:56.0870,-0.17,0.03,0.05
2020-08-12 19:23:56.1860,-0.08,-0.03,-0.1
2020-08-12 19:23:56.2850,-0.04,-0.05,-0.13
2020-08-12 19:23:56.3850,-0.03,-0.06,-0.1
2020-08-12 19:23:56.4840,0.12,-0.17,-0.07
2020-08-12 19:23:56.5830,0.17,-0.36,-0.07
2020-08-12 19:23:56.6830,0.57,-0.53,0.06
2020-08-12 19:23:56.7820,0.52,-0.11,0.22
2020-08-12 19:23:56.8810,0.5,0.29,-0.24
2020-08-12 19:23:56.9800,0.34,0.05,-0.25
2020-08-12 19:23:57.0790,-0.14,-0.46,-0.13
2020-08-12 19:23:57.1790,-1.25,-0.52,0.15
2020-08-12 19:23:57.2780,-1.1,-0.34,-0.08
2020-08-12 19:23:57.3770,-0.38,-0.29,-0.02
2020-08-12 19:23:57.4770,-0.21,-0.0,-0.02
2020-08-12 19:23:57.5760,0.01,-0.08,-0.11
2020-08-12 19:23:57.6750,-0.07,-0.04,-0.07
2020-08-12 19:23:57.7740,-0.05,-0.0,-0.1
2020-08-12 19:23:57.8730,-0.04,-0.05,-0.14
2020-08-12 19:23:57.9730,0.03,-0.11,-0.12
2020-08-12 19:23:58.0720,0.18,-0.36,-0.2
2020-08-12 19:23:58.1710,0.45,-0.62,0.09
2020-08-12 19:23:58.2710,0.56,-0.4,0.24
2020-08-12 19:23:58.3700,0.84,0.32,-0.19
2020-08-12 19:23:58.4690,0.6,0.17,-0.28
2020-08-12 19:23:58.5680,-0.14,-0.42,-0.07
2020-08-12 19:23:58.6680,-0.88,-0.62,0.15
2020-08-12 19:23:58.7670,-0.98,-0.16,-0.16
2020-08-12 19:23:58.8660,0.48,-0.72,-0.59
2020-08-12 19:23:58.9660,-0.47,-0.33,0.26
2020-08-12 19:23:59.0650,0.04,-0.14,-0.18
2020-08-12 19:23:59.1640,-0.08,-0.03,-0.01
2020-08-12 19:23:59.2630,-0.01,-0.08,-0.15
2020-08-12 19:23:59.3630,-0.07,-0.04,-0.18
2020-08-12 19:23:59.4620,0.12,-0.11,-0.15
2020-08-12 19:23:59.5610,0.07,-0.13,-0.1
2020-08-12 19:23:59.6600,0.42,-0.6,-0.08
2020-08-12 19:23:59.7600,0.24,-0.39,0.2
2020-08-12 19:23:59.8590,0.36,-0.03,0.06
2020-08-12 19:23:59.9580,0.6,0.34,-0.28
2020-08-12 19:24:00.0580,0.0,-0.09,-0.04
2020-08-12 19:24:00.1570,-0.64,-0.82,0.06
2020-08-12 19:24:00.2560,-1.32,-0.15,0.06
2020-08-12 19:24:00.3550,0.52,-0.58,-0.82
2020-08-12 19:24:00.4550,-0.6,-0.09,-0.0
2020-08-12 19:24:00.5540,0.17,-0.03,-0.1
2020-08-12 19:24:00.6530,-0.19,-0.0,-0.07
2020-08-12 19:24:00.7520,0.01,-0.03,-0.03
2020-08-12 19:24:00.8520,-0.04,-0.07,-0.27
2020-08-12 19:24:00.9510,0.06,-0.08,-0.13
2020-08-12 19:24:01.0500,0.2,-0.25,-0.07
2020-08-12 19:24:01.1490,0.36,-0.64,-0.06
2020-08-12 19:24:01.2490,0.36,-0.53,0.17
2020-08-12 19:24:01.3480,0.54,0.22,0.1
2020-08-12 19:24:01.4470,0.72,0.28,-0.27
2020-08-12 19:24:01.5470,-0.14,-0.21,-0.07
2020-08-12 19:24:01.6460,-0.96,-0.88,0.1
2020-08-12 19:24:01.7450,-1.32,-0.16,0.04
2020-08-12 19:24:01.8440,-0.27,-0.19,-0.42
2020-08-12 19:24:01.9440,-0.39,0.25,0.15
2020-08-12 19:24:02.0430,0.01,-0.07,-0.11
2020-08-12 19:24:02.1420,-0.08,-0.04,-0.14
2020-08-12 19:24:02.2410,-0.07,-0.03,-0.11
2020-08-12 19:24:02.3410,0.01,-0.06,-0.14
2020-08-12 19:24:02.4400,0.11,-0.12,-0.13
2020-08-12 19:24:02.5390,0.19,-0.37,-0.05
2020-08-12 19:24:02.6390,0.51,-0.49,-0.09
2020-08-12 19:24:02.7380,0.76,-0.4,0.09
2020-08-12 19:24:02.8370,0.69,0.3,-0.22
2020-08-12 19:24:02.9360,0.52,0.05,-0.19
2020-08-12 19:24:03.0360,-0.0,-0.56,-0.15
2020-08-12 19:24:03.1350,-1.29,-0.58,0.37
2020-08-12 19:24:03.2340,-0.98,-0.38,-0.07
2020-08-12 19:24:03.3330,-0.25,-0.21,0.0
2020-08-12 19:24:03.4330,-0.24,0.05,0.04
2020-08-12 19:24:03.5320,-0.03,-0.06,-0.18
2020-08-12 19:24:03.6310,-0.02,-0.05,-0.12
2020-08-12 19:24:03.7310,-0.04,-0.06,-0.14
2020-08-12 19:24:03.8300,0.03,-0.06,-0.13
2020-08-12 19:24:03.9290,0.01,-0.08,-0.1
2020-08-12 19:24:04.0280,0.16,-0.19,-0.05
2020-08-12 19:24:04.1270,0.58,-0.6,-0.1
2020-08-12 19:24:04.2270,0.43,-0.51,0.16
2020-08-12 19:24:04.3260,0.33,0.17,0.03
2020-08-12 19:24:04.4250,0.52,0.35,-0.25
2020-08-12 19:24:04.5250,-0.07,-0.09,-0.01
2020-08-12 19:24:04.6240,-0.44,-0.51,-0.01
2020-08-12 19:24:04.7230,-1.34,-0.25,0.03
2020-08-12 19:24:04.8220,0.99,-0.25,-0.36
2020-08-12 19:24:04.9220,-0.57,-0.27,-0.0
2020-08-12 19:24:05.0210,0.0,-0.12,-0.17
2020-08-12 19:24:05.1200,-0.13,-0.0,-0.06
2020-08-12 19:24:05.2200,-0.09,-0.03,-0.12
2020-08-12 19:24:05.3190,0.04,-0.06,-0.15
2020-08-12 19:24:05.4180,-0.05,-0.05,-0.11
2020-08-12 19:24:05.5170,0.1,-0.12,-0.15
2020-08-12 19:24:05.6170,0.08,-0.18,-0.05
2020-08-12 19:24:05.7160,0.52,-0.42,-0.03
2020-08-12 19:24:05.8150,0.2,-0.29,0.04
2020-08-12 19:24:05.9140,0.17,0.0,0.12
2020-08-12 19:24:06.0140,0.71,0.28,-0.28
2020-08-12 19:24:06.1130,0.1,-0.14,-0.13
2020-08-12 19:24:06.2120,-0.42,-0.68,-0.13
2020-08-12 19:24:06.3110,-1.49,-0.07,0.17
2020-08-12 19:24:06.4110,1.32,-0.24,-0.54
2020-08-12 19:24:06.5110,-0.45,-0.31,-0.03
2020-08-12 19:24:06.6090,-0.01,-0.1,-0.18
2020-08-12 19:24:06.7090,-0.16,-0.01,-0.0
2020-08-12 19:24:06.8080,-0.02,-0.08,-0.12
2020-08-12 19:24:06.9070,-0.01,-0.07,-0.15
2020-08-12 19:24:07.0060,-0.07,-0.03,-0.06
2020-08-12 19:24:07.1060,0.09,-0.12,-0.12
2020-08-12 19:24:07.2050,0.17,-0.35,-0.13
2020-08-12 19:24:07.3040,0.52,-0.43,-0.03
2020-08-12 19:24:07.4030,0.56,-0.39,0.08
2020-08-12 19:24:07.5030,0.77,0.24,-0.18
2020-08-12 19:24:07.6020,0.48,0.14,-0.22
2020-08-12 19:24:07.7010,-0.19,-0.34,-0.15
2020-08-12 19:24:07.8010,-0.94,-0.61,0.09
2020-08-12 19:24:07.9000,-1.22,-0.08,0.11
2020-08-12 19:24:07.9990,-0.47,-0.35,-0.01
2020-08-12 19:24:08.0980,-0.31,0.02,0.06
2020-08-12 19:24:08.1980,0.02,-0.04,-0.1
2020-08-12 19:24:08.2970,-0.11,0.0,-0.05
2020-08-12 19:24:08.3960,0.04,-0.07,-0.2
2020-08-12 19:24:08.4950,0.03,-0.07,-0.13
2020-08-12 19:24:08.5950,-0.06,-0.03,-0.1
2020-08-12 19:24:08.6940,0.12,-0.22,-0.14
2020-08-12 19:24:08.7930,0.38,-0.56,-0.02
2020-08-12 19:24:08.8920,0.19,-0.37,0.13
2020-08-12 19:24:08.9920,0.19,-0.05,0.08
2020-08-12 19:24:09.0910,0.67,0.22,-0.32
2020-08-12 19:24:09.1900,0.04,-0.04,-0.13
2020-08-12 19:24:09.2900,-0.45,-0.8,-0.18
2020-08-12 19:24:09.3890,-1.6,-0.08,0.05
2020-08-12 19:24:09.4880,0.49,-0.54,-0.5
2020-08-12 19:24:09.5870,-0.17,0.22,-0.08
2020-08-12 19:24:09.6870,0.04,-0.1,-0.16
2020-08-12 19:24:09.7860,-0.13,0.0,-0.05
2020-08-12 19:24:09.8850,-0.06,-0.03,-0.13
2020-08-12 19:24:09.9850,-0.05,-0.04,-0.14
2020-08-12 19:24:10.0840,0.07,-0.08,-0.13
2020-08-12 19:24:10.1830,0.08,-0.19,-0.07
2020-08-12 19:24:10.2830,0.18,-0.33,-0.11
2020-08-12 19:24:10.3820,0.54,-0.45,-0.02
2020-08-12 19:24:10.4810,0.59,-0.17,0.08
2020-08-12 19:24:10.5800,0.71,0.26,-0.27
2020-08-12 19:24:10.6790,0.37,0.04,-0.29
2020-08-12 19:24:10.7790,-0.19,-0.41,-0.11
2020-08-12 19:24:10.8780,-1.14,-0.35,0.24
2020-08-12 19:24:10.9770,-1.1,-0.13,0.11
2020-08-12 19:24:11.0760,-0.85,-0.37,0.05
2020-08-12 19:24:11.1760,-0.33,0.09,0.1
2020-08-12 19:24:11.2750,0.23,-0.01,-0.18
2020-08-12 19:24:11.3740,-0.2,-0.04,-0.02
2020-08-12 19:24:11.4740,-0.05,-0.03,-0.08
2020-08-12 19:24:11.5730,-0.03,-0.06,-0.1
2020-08-12 19:24:11.6720,-0.02,-0.04,-0.13
2020-08-12 19:24:11.7710,-0.09,-0.31,-0.19
2020-08-12 19:24:11.8710,0.17,-0.45,0.0
2020-08-12 19:24:11.9700,0.44,-0.35,-0.04
2020-08-12 19:24:12.0690,0.48,-0.09,0.07
2020-08-12 19:24:12.1690,0.73,0.41,-0.24
2020-08-12 19:24:12.2680,0.36,0.04,-0.21
2020-08-12 19:24:12.3670,-0.36,-0.69,0.05
2020-08-12 19:24:12.4660,-0.99,-0.24,0.04
2020-08-12 19:24:12.5650,-0.93,-0.13,-0.05
2020-08-12 19:24:12.6650,-0.34,-0.35,0.03
2020-08-12 19:24:12.7640,-0.45,0.09,0.21
2020-08-12 19:24:12.8630,0.09,-0.12,-0.18
2020-08-12 19:24:12.9630,-0.05,-0.02,-0.0
2020-08-12 19:24:13.0620,-0.01,-0.05,-0.09
2020-08-12 19:24:13.1610,-0.04,-0.05,-0.14
2020-08-12 19:24:13.2600,0.02,-0.07,-0.13
2020-08-12 19:24:13.3600,0.1,-0.17,-0.04
2020-08-12 19:24:13.4590,0.22,-0.33,-0.05
2020-08-12 19:24:13.5580,0.33,-0.25,-0.0
2020-08-12 19:24:13.6570,0.43,-0.06,0.01
2020-08-12 19:24:13.7570,0.53,0.26,-0.25
2020-08-12 19:24:13.8560,0.24,0.02,-0.17
2020-08-12 19:24:13.9550,-0.11,-0.36,-0.15
2020-08-12 19:24:14.0550,-0.77,-0.48,-0.07
2020-08-12 19:24:14.1540,-0.91,-0.13,-0.06
2020-08-12 19:24:14.2530,0.65,-0.43,-0.72
2020-08-12 19:24:14.3520,-0.55,-0.04,-0.13
2020-08-12 19:24:14.4520,-0.06,-0.09,-0.18
2020-08-12 19:24:14.5510,-0.13,-0.02,-0.05
2020-08-12 19:24:14.6500,-0.07,-0.03,-0.08
2020-08-12 19:24:14.7500,-0.03,-0.04,-0.16
2020-08-12 19:24:14.8490,-0.02,-0.04,-0.06
2020-08-12 19:24:14.9480,0.07,-0.08,-0.04
2020-08-12 19:24:15.0470,0.18,-0.22,-0.13
2020-08-12 19:24:15.1460,0.39,-0.35,-0.04
2020-08-12 19:24:15.2460,0.23,-0.21,-0.04
2020-08-12 19:24:15.3450,0.27,0.15,0.17
2020-08-12 19:24:15.4450,0.72,0.2,-0.21
2020-08-12 19:24:15.5440,-0.02,-0.21,-0.06
2020-08-12 19:24:15.6430,-0.39,-0.46,-0.12
2020-08-12 19:24:15.7420,-0.84,-0.26,-0.02
2020-08-12 19:24:15.8410,-0.79,-0.08,-0.13
2020-08-12 19:24:15.9410,-0.03,-0.47,-0.49
2020-08-12 19:24:16.0400,-0.36,0.06,0.24
2020-08-12 19:24:16.1390,0.07,-0.11,-0.17
2020-08-12 19:24:16.2390,-0.09,-0.02,-0.08
2020-08-12 19:24:16.3380,-0.04,-0.05,-0.12
2020-08-12 19:24:16.4370,-0.03,-0.05,-0.13
2020-08-12 19:24:16.5360,0.01,-0.07,-0.1
2020-08-12 19:24:16.6360,0.06,-0.08,-0.12
2020-08-12 19:24:16.7350,0.04,-0.12,0.0
2020-08-12 19:24:16.8340,0.31,-0.38,-0.04
2020-08-12 19:24:16.9340,0.25,-0.24,-0.08
2020-08-12 19:24:17.0330,0.29,0.08,0.15
2020-08-12 19:24:17.1320,0.58,0.22,-0.37
2020-08-12 19:24:17.2310,-0.0,-0.1,-0.08
2020-08-12 19:24:17.3310,-0.26,-0.32,-0.16
2020-08-12 19:24:17.4300,-0.75,-0.17,0.0
2020-08-12 19:24:17.5290,-0.67,-0.15,-0.16
2020-08-12 19:24:17.6280,-0.34,-0.26,-0.1
2020-08-12 19:24:17.7280,-0.11,0.02,-0.05
2020-08-12 19:24:17.8270,0.05,-0.13,-0.08
2020-08-12 19:24:17.9260,-0.07,-0.04,-0.16
2020-08-12 19:24:18.0260,-0.05,-0.03,-0.08
2020-08-12 19:24:18.1250,-0.01,-0.05,-0.07
2020-08-12 19:24:18.2240,-0.01,-0.04,-0.13
2020-08-12 19:24:18.3230,-0.03,-0.0,-0.1
2020-08-12 19:24:18.4220,0.02,-0.03,-0.08
2020-08-12 19:24:18.5220,0.01,-0.03,-0.11
2020-08-12 19:24:18.6210,-0.07,0.02,-0.13
2020-08-12 19:24:18.7200,-0.02,-0.04,-0.08
2020-08-12 19:24:18.8200,0.02,-0.0,-0.06
2020-08-12 19:24:18.9190,-0.01,0.0,-0.08
2020-08-12 19:24:19.0180,0.01,0.01,-0.05
2020-08-12 19:24:19.1170,-0.04,-0.0,-0.07
2020-08-12 19:24:19.2170,-0.03,-0.02,-0.08
2020-08-12 19:24:19.3160,-0.01,-0.01,-0.06
2020-08-12 19:24:19.4150,-0.0,-0.04,-0.02
2020-08-12 19:24:19.5140,0.01,-0.03,-0.04
2020-08-12 19:24:19.6140,-0.07,0.01,-0.05
2020-08-12 19:24:19.7130,0.03,-0.05,-0.02
2020-08-12 19:24:19.8120,-0.04,0.03,-0.03
2020-08-12 19:24:19.9120,0.01,-0.04,-0.01
2020-08-12 19:24:20.0110,-0.01,-0.02,-0.04
2020-08-12 19:24:20.1100,-0.02,-0.01,-0.04
2020-08-12 19:24:20.2090,-0.01,-0.01,-0.02
2020-08-12 19:24:20.3090,-0.05,0.0,-0.05
2020-08-12 19:24:20.4080,0.01,-0.02,-0.01
2020-08-12 19:24:20.5070,-0.02,-0.0,-0.04
2020-08-12 19:24:20.6070,0.02,-0.02,-0.01
2020-08-12 19:24:20.7060,-0.02,-0.01,-0.01
2020-08-12 19:24:20.8050,0.01,-0.03,-0.02
