time,ax,ay,az
2020-08-12 19:50:57.0980,0.1,-0.02,-0.03
2020-08-12 19:50:57.1970,-0.02,-0.0,-0.0
2020-08-12 19:50:57.2960,0.0,-0.0,-0.0
2020-08-12 19:50:57.3960,0.0,-0.0,-0.01
2020-08-12 19:50:57.4950,-0.0,0.0,-0.01
2020-08-12 19:50:57.5940,0.0,0.0,-0.0
2020-08-12 19:50:57.6930,-0.01,0.0,-0.01
2020-08-12 19:50:57.7920,0.0,-0.0,0.0
2020-08-12 19:50:57.8920,-0.01,-0.0,-0.0
2020-08-12 19:50:57.9910,0.0,0.01,-0.0
2020-08-12 19:50:58.0910,0.01,0.0,-0.0
2020-08-12 19:50:58.1900,0.0,-0.01,-0.01
2020-08-12 19:50:58.2890,-0.01,0.0,0.01
2020-08-12 19:50:58.3880,-0.0,-0.01,-0.01
2020-08-12 19:50:58.4880,-0.02,0.01,-0.01
2020-08-12 19:50:58.5870,-0.0,-0.02,0.05
2020-08-12 19:50:58.6860,-0.04,0.01,0.01
2020-08-12 19:50:58.7850,0.02,-0.04,0.01
2020-08-12 19:50:58.8850,-0.01,0.01,0.01
2020-08-12 19:50:58.9840,0.02,0.02,-0.01
2020-08-12 19:50:59.0830,-0.07,0.12,0.0
2020-08-12 19:50:59.1830,0.23,-0.25,0.02
2020-08-12 19:50:59.2810,0.16,-0.01,-0.03
2020-08-12 19:50:59.3810,0.03,-0.06,-0.04
2020-08-12 19:50:59.4800,-0.05,-0.0,0.04
2020-08-12 19:50:59.5800,-0.02,0.01,0.02
2020-08-12 19:50:59.6790,0.03,-0.03,0.01
2020-08-12 19:50:59.7780,-0.0,0.03,0.03
2020-08-12 19:50:59.8780,0.01,0.01,0.01
2020-08-12 19:50:59.9760,0.01,0.0,-0.02
2020-08-12 19:51:00.0760,0.02,0.01,0.0
2020-08-12 19:51:00.1760,0.01,-0.04,-0.04
2020-08-12 19:51:00.2750,-0.09,0.03,-0.03
2020-08-12 19:51:00.3740,0.06,-0.03,-0.01
2020-08-12 19:51:00.4740,-0.01,-0.03,0.03
2020-08-12 19:51:00.5730,-0.03,0.03,0.02
2020-08-12 19:51:00.6720,0.03,0.0,-0.02
2020-08-12 19:51:00.7710,-0.02,-0.03,0.03
2020-08-12 19:51:00.8700,0.03,-0.01,-0.03
2020-08-12 19:51:00.9690,0.03,-0.03,-0.01
2020-08-12 19:51:01.0690,0.11,-0.2,0.04
2020-08-12 19:51:01.1680,0.16,-0.65,0.15
2020-08-12 19:51:01.2680,0.12,-0.01,0.15
2020-08-12 19:51:01.3670,0.74,0.27,0.06
2020-08-12 19:51:01.4660,0.05,0.03,0.01
2020-08-12 19:51:01.5650,0.11,0.04,-0.08
2020-08-12 19:51:01.6640,-0.08,-0.08,-0.03
2020-08-12 19:51:01.7640,-0.25,-0.09,0.03
2020-08-12 19:51:01.8630,-0.34,-0.08,-0.13
2020-08-12 19:51:01.9620,-0.35,-0.02,-0.14
2020-08-12 19:51:02.0620,-0.86,0.54,0.39
2020-08-12 19:51:02.1600,0.79,-0.34,-0.17
2020-08-12 19:51:02.2600,0.29,0.0,-0.09
2020-08-12 19:51:02.3590,-0.04,-0.01,-0.04
2020-08-12 19:51:02.4590,0.03,-0.02,0.04
2020-08-12 19:51:02.5580,-0.0,0.0,0.01
2020-08-12 19:51:02.6580,0.05,-0.01,-0.01
2020-08-12 19:51:02.7560,0.0,-0.0,0.05
2020-08-12 19:51:02.8560,0.07,-0.15,0.11
2020-08-12 19:51:02.9550,0.3,-0.47,0.09
2020-08-12 19:51:03.0540,0.28,0.05,0.15
2020-08-12 19:51:03.1530,0.36,0.19,0.09
2020-08-12 19:51:03.2520,0.11,0.08,0.04
2020-08-12 19:51:03.3520,0.0,0.03,0.01
2020-08-12 19:51:03.4510,-0.25,-0.09,0.0
2020-08-12 19:51:03.5510,-0.38,-0.09,-0.02
2020-08-12 19:51:03.6500,-0.51,-0.01,-0.13
2020-08-12 19:51:03.7490,-0.44,0.15,-0.34
2020-08-12 19:51:03.8480,-0.4,0.4,-0.16
2020-08-12 19:51:03.9480,-0.11,0.05,0.06
2020-08-12 19:51:04.0470,-0.09,0.02,0.1
2020-08-12 19:51:04.1460,0.06,-0.0,-0.04
2020-08-12 19:51:04.2460,0.02,-0.02,-0.07
2020-08-12 19:51:04.3450,0.07,-0.05,0.05
2020-08-12 19:51:04.4440,-0.06,-0.13,-0.02
2020-08-12 19:51:04.5440,0.09,-0.63,0.17
2020-08-12 19:51:04.6430,0.29,-0.32,-0.14
2020-08-12 19:51:04.7420,0.51,0.37,0.27
2020-08-12 19:51:04.8410,0.25,0.18,-0.05
2020-08-12 19:51:04.9410,0.13,0.11,-0.12
2020-08-12 19:51:05.0390,0.13,0.06,0.06
2020-08-12 19:51:05.1390,0.04,-0.16,-0.18
2020-08-12 19:51:05.2380,-0.32,-0.1,0.04
2020-08-12 19:51:05.3370,-0.43,-0.08,-0.04
2020-08-12 19:51:05.4370,-0.44,0.03,-0.14
2020-08-12 19:51:05.5360,-0.17,0.16,-0.26
2020-08-12 19:51:05.6350,0.34,-0.13,0.1
2020-08-12 19:51:05.7350,0.36,-0.01,-0.05
2020-08-12 19:51:05.8340,0.0,0.01,0.02
2020-08-12 19:51:05.9330,0.02,0.02,0.02
2020-08-12 19:51:06.0320,0.03,-0.0,0.05
2020-08-12 19:51:06.1310,-0.01,-0.06,-0.1
2020-08-12 19:51:06.2310,0.0,-0.18,0.02
2020-08-12 19:51:06.3310,0.28,-0.43,0.02
2020-08-12 19:51:06.4300,0.5,0.3,0.1
2020-08-12 19:51:06.5290,0.29,0.2,0.01
2020-08-12 19:51:06.6280,0.14,0.1,-0.06
2020-08-12 19:51:06.7270,0.07,0.11,-0.11
2020-08-12 19:51:06.8270,0.04,-0.01,-0.02
2020-08-12 19:51:06.9250,-0.03,-0.03,0.04
2020-08-12 19:51:07.0250,-0.19,-0.07,0.07
2020-08-12 19:51:07.1240,-0.44,0.01,-0.05
2020-08-12 19:51:07.2230,-0.52,0.03,-0.52
2020-08-12 19:51:07.3230,-0.3,0.2,0.16
2020-08-12 19:51:07.4220,0.26,-0.02,-0.05
2020-08-12 19:51:07.5210,0.1,-0.0,0.0
2020-08-12 19:51:07.6210,0.06,-0.02,0.01
2020-08-12 19:51:07.7200,0.09,-0.03,-0.02
2020-08-12 19:51:07.8190,0.01,-0.08,-0.03
2020-08-12 19:51:07.9180,-0.01,-0.16,0.08
2020-08-12 19:51:08.0180,0.4,-0.46,-0.03
2020-08-12 19:51:08.1170,0.74,0.33,-0.07
2020-08-12 19:51:08.2160,0.22,0.18,-0.05
2020-08-12 19:51:08.3150,0.08,0.09,-0.01
2020-08-12 19:51:08.4140,-0.0,-0.0,-0.02
2020-08-12 19:51:08.5140,0.01,-0.03,-0.01
2020-08-12 19:51:08.6130,0.02,-0.05,-0.08
2020-08-12 19:51:08.7130,-0.23,-0.07,-0.1
2020-08-12 19:51:08.8120,-0.37,-0.05,-0.11
2020-08-12 19:51:08.9110,-0.37,0.08,-0.16
2020-08-12 19:51:09.0100,-0.01,-1.26,0.3
2020-08-12 19:51:09.1100,0.03,-0.08,0.23
2020-08-12 19:51:09.2090,0.02,0.01,0.03
2020-08-12 19:51:09.3080,-0.03,-0.03,-0.11
2020-08-12 19:51:09.4070,0.06,-0.03,-0.02
2020-08-12 19:51:09.5070,0.02,-0.03,-0.05
2020-08-12 19:51:09.6060,-0.01,-0.08,0.07
2020-08-12 19:51:09.7050,0.01,-0.38,0.02
2020-08-12 19:51:09.8040,0.2,-0.04,0.14
2020-08-12 19:51:09.9040,0.39,0.15,0.03
2020-08-12 19:51:10.0030,0.2,0.08,0.0
2020-08-12 19:51:10.1020,0.12,0.03,-0.14
2020-08-12 19:51:10.2010,0.03,-0.02,-0.06
2020-08-12 19:51:10.3010,-0.08,-0.02,-0.01
2020-08-12 19:51:10.4000,-0.08,-0.01,-0.07
2020-08-12 19:51:10.4990,-0.23,-0.04,-0.09
2020-08-12 19:51:10.5990,-0.41,0.02,-0.12
2020-08-12 19:51:10.6980,-0.65,-0.65,0.08
2020-08-12 19:51:10.7970,0.08,-0.07,0.1
2020-08-12 19:51:10.8960,-0.0,-0.01,0.0
2020-08-12 19:51:10.9960,-0.02,-0.0,-0.04
2020-08-12 19:51:11.0950,-0.02,-0.04,-0.01
2020-08-12 19:51:11.1940,0.02,-0.05,-0.04
2020-08-12 19:51:11.2940,0.08,-0.11,0.04
2020-08-12 19:51:11.3930,0.09,-0.41,0.01
2020-08-12 19:51:11.4920,0.24,0.17,0.12
2020-08-12 19:51:11.5910,0.24,0.12,-0.05
2020-08-12 19:51:11.6910,0.18,0.08,-0.06
2020-08-12 19:51:11.7900,0.16,0.06,-0.06
2020-08-12 19:51:11.8890,0.04,-0.0,-0.08
2020-08-12 19:51:11.9880,-0.03,0.0,0.0
2020-08-12 19:51:12.0880,-0.0,-0.06,-0.11
2020-08-12 19:51:12.1870,-0.17,-0.06,-0.05
2020-08-12 19:51:12.2860,-0.29,-0.04,-0.02
2020-08-12 19:51:12.3850,-0.45,0.01,-0.2
2020-08-12 19:51:12.4850,0.03,-1.04,0.17
2020-08-12 19:51:12.5840,0.06,-0.04,0.11
2020-08-12 19:51:12.6830,-0.03,-0.03,-0.03
2020-08-12 19:51:12.7830,0.03,-0.01,-0.07
2020-08-12 19:51:12.8820,0.1,-0.02,-0.11
2020-08-12 19:51:12.9810,0.04,-0.06,0.0
2020-08-12 19:51:13.0800,0.04,-0.08,-0.07
2020-08-12 19:51:13.1800,0.08,-0.48,-0.04
2020-08-12 19:51:13.2790,0.05,-0.01,0.16
2020-08-12 19:51:13.3790,0.16,0.19,-0.06
2020-08-12 19:51:13.4780,0.14,0.18,0.01
2020-08-12 19:51:13.5770,0.17,0.11,0.02
2020-08-12 19:51:13.6760,0.15,0.04,-0.04
2020-08-12 19:51:13.7750,0.16,0.02,0.0
2020-08-12 19:51:13.8740,0.06,-0.12,-0.06
2020-08-12 19:51:13.9740,-0.12,-0.09,-0.07
2020-08-12 19:51:14.0730,-0.21,-0.04,-0.01
2020-08-12 19:51:14.1720,-0.61,0.07,-0.25
2020-08-12 19:51:14.2720,-0.3,0.26,-0.59
2020-08-12 19:51:14.3710,-0.03,-0.04,-0.03
2020-08-12 19:51:14.4700,-0.1,-0.01,0.04
2020-08-12 19:51:14.5690,-0.01,-0.02,-0.03
2020-08-12 19:51:14.6690,0.05,-0.0,-0.03
2020-08-12 19:51:14.7680,-0.02,-0.06,0.0
2020-08-12 19:51:14.8670,0.02,-0.54,0.08
2020-08-12 19:51:14.9670,0.25,-0.26,0.12
2020-08-12 19:51:15.0660,0.45,0.34,0.12
2020-08-12 19:51:15.1650,0.24,0.23,-0.11
2020-08-12 19:51:15.2640,-0.15,0.05,-0.04
2020-08-12 19:51:15.3640,-0.04,0.06,-0.06
2020-08-12 19:51:15.4630,0.12,0.05,-0.0
2020-08-12 19:51:15.5620,0.13,-0.07,-0.06
2020-08-12 19:51:15.6610,-0.02,-0.05,-0.11
2020-08-12 19:51:15.7610,-0.24,-0.08,-0.05
2020-08-12 19:51:15.8600,-0.42,-0.01,-0.15
2020-08-12 19:51:15.9590,-0.29,0.21,-0.44
2020-08-12 19:51:16.0580,-0.5,0.52,-0.28
2020-08-12 19:51:16.1580,-0.09,-0.03,0.1
2020-08-12 19:51:16.2570,-0.0,0.02,-0.01
2020-08-12 19:51:16.3560,0.06,-0.02,0.01
2020-08-12 19:51:16.4550,0.06,-0.03,-0.03
2020-08-12 19:51:16.5550,-0.03,-0.06,-0.05
2020-08-12 19:51:16.6540,0.18,-0.45,0.2
2020-08-12 19:51:16.7540,0.24,-0.21,-0.14
2020-08-12 19:51:16.8530,-0.01,0.21,0.03
2020-08-12 19:51:16.9520,0.29,0.15,-0.06
2020-08-12 19:51:17.0510,0.14,0.05,-0.02
2020-08-12 19:51:17.1510,0.1,0.05,-0.01
2020-08-12 19:51:17.2500,0.1,0.05,0.01
2020-08-12 19:51:17.3490,0.02,-0.04,-0.02
2020-08-12 19:51:17.4480,-0.09,-0.09,-0.04
2020-08-12 19:51:17.5480,-0.18,-0.04,-0.06
2020-08-12 19:51:17.6470,-0.27,0.04,-0.07
2020-08-12 19:51:17.7460,-0.34,0.07,-0.29
2020-08-12 19:51:17.8450,0.22,-0.47,-0.39
2020-08-12 19:51:17.9450,-0.7,0.07,0.14
2020-08-12 19:51:18.0440,-0.2,-0.04,0.02
2020-08-12 19:51:18.1430,0.01,-0.01,-0.03
2020-08-12 19:51:18.2420,-0.01,0.01,-0.05
2020-08-12 19:51:18.3420,-0.07,0.01,-0.0
2020-08-12 19:51:18.4410,0.02,-0.07,-0.05
2020-08-12 19:51:18.5400,-0.03,-0.24,-0.07
2020-08-12 19:51:18.6390,0.15,-0.23,-0.02
2020-08-12 19:51:18.7390,0.11,0.25,0.15
2020-08-12 19:51:18.8380,0.16,0.17,-0.07
2020-08-12 19:51:18.9380,0.22,0.09,0.0
2020-08-12 19:51:19.0370,0.18,0.07,-0.06
2020-08-12 19:51:19.1360,-0.09,-0.05,0.02
2020-08-12 19:51:19.2350,-0.19,-0.02,-0.02
2020-08-12 19:51:19.3350,-0.37,-0.05,-0.14
2020-08-12 19:51:19.4340,-0.21,-0.03,-0.17
2020-08-12 19:51:19.5330,-0.33,0.09,-0.36
2020-08-12 19:51:19.6320,-0.36,0.33,-0.12
2020-08-12 19:51:19.7320,0.09,-0.05,0.06
2020-08-12 19:51:19.8310,-0.02,0.04,-0.03
2020-08-12 19:51:19.9300,-0.0,-0.04,-0.06
2020-08-12 19:51:20.0290,-0.04,-0.07,-0.03
2020-08-12 19:51:20.1280,0.01,-0.08,-0.04
2020-08-12 19:51:20.2280,0.07,-0.56,0.1
2020-08-12 19:51:20.3270,-0.01,-0.06,0.01
2020-08-12 19:51:20.4260,0.03,0.18,-0.09
2020-08-12 19:51:20.5260,0.2,0.17,-0.1
2020-08-12 19:51:20.6250,0.07,0.05,0.07
2020-08-12 19:51:20.7240,0.03,0.07,-0.05
2020-08-12 19:51:20.8240,0.08,0.01,-0.06
2020-08-12 19:51:20.9230,0.1,0.02,-0.04
2020-08-12 19:51:21.0220,-0.06,-0.03,0.01
2020-08-12 19:51:21.1210,-0.19,-0.03,0.05
2020-08-12 19:51:21.2210,-0.26,0.05,-0.15
2020-08-12 19:51:21.3200,-0.65,-0.0,-0.54
2020-08-12 19:51:21.4190,0.31,-0.14,-0.07
2020-08-12 19:51:21.5180,0.3,-0.03,-0.11
2020-08-12 19:51:21.6180,-0.02,0.04,-0.05
2020-08-12 19:51:21.7170,-0.01,-0.05,-0.01
2020-08-12 19:51:21.8160,0.04,-0.02,-0.06
2020-08-12 19:51:21.9160,-0.01,-0.1,0.02
2020-08-12 19:51:22.0150,0.22,-0.32,-0.23
2020-08-12 19:51:22.1140,0.03,0.05,0.06
2020-08-12 19:51:22.2130,0.35,0.23,-0.04
2020-08-12 19:51:22.3120,0.16,0.04,0.01
2020-08-12 19:51:22.4120,0.07,0.04,0.01
2020-08-12 19:51:22.5110,0.1,0.05,-0.02
2020-08-12 19:51:22.6100,0.03,0.01,-0.02
2020-08-12 19:51:22.7090,0.01,-0.04,-0.05
2020-08-12 19:51:22.8090,0.02,-0.02,-0.07
2020-08-12 19:51:22.9080,-0.21,-0.04,-0.05
2020-08-12 19:51:23.0070,-0.34,0.01,-0.08
2020-08-12 19:51:23.1070,-1.21,-0.4,-0.37
2020-08-12 19:51:23.2060,0.18,-0.09,0.08
2020-08-12 19:51:23.3050,0.06,0.01,0.02
2020-08-12 19:51:23.4050,-0.03,0.01,-0.06
2020-08-12 19:51:23.5040,-0.0,-0.02,-0.02
2020-08-12 19:51:23.6030,0.05,-0.07,-0.03
2020-08-12 19:51:23.7020,0.09,-0.32,0.04
2020-08-12 19:51:23.8020,0.11,-0.16,-0.1
2020-08-12 19:51:23.9010,-0.01,0.12,0.1
2020-08-12 19:51:24.0000,0.34,0.2,-0.06
2020-08-12 19:51:24.1000,0.03,0.06,0.02
2020-08-12 19:51:24.1990,0.12,0.1,-0.02
2020-08-12 19:51:24.2980,0.07,0.04,-0.06
2020-08-12 19:51:24.3970,0.21,0.03,0.01
2020-08-12 19:51:24.4960,-0.07,-0.05,0.01
2020-08-12 19:51:24.5960,-0.28,-0.1,-0.09
2020-08-12 19:51:24.6950,-0.39,-0.0,-0.2
2020-08-12 19:51:24.7940,-1.67,-0.53,0.13
2020-08-12 19:51:24.8940,0.16,-0.13,0.1
2020-08-12 19:51:24.9930,-0.0,0.0,-0.04
2020-08-12 19:51:25.0920,0.03,-0.04,-0.08
2020-08-12 19:51:25.1910,0.04,-0.04,-0.03
2020-08-12 19:51:25.2910,0.01,-0.07,-0.01
2020-08-12 19:51:25.3900,0.11,-0.45,0.1
2020-08-12 19:51:25.4890,0.1,-0.05,-0.03
2020-08-12 19:51:25.5890,0.16,0.28,0.09
2020-08-12 19:51:25.6880,0.21,0.15,-0.05
2020-08-12 19:51:25.7870,0.02,0.05,-0.03
2020-08-12 19:51:25.8860,0.08,0.02,-0.05
2020-08-12 19:51:25.9860,0.12,0.01,-0.06
2020-08-12 19:51:26.0850,0.09,-0.03,0.04
2020-08-12 19:51:26.1840,-0.04,-0.01,-0.01
2020-08-12 19:51:26.2840,-0.25,-0.02,-0.03
2020-08-12 19:51:26.3830,-0.32,0.01,-0.06
2020-08-12 19:51:26.4820,-1.21,-0.03,-0.53
2020-08-12 19:51:26.5810,0.51,-0.18,0.08
2020-08-12 19:51:26.6800,0.09,-0.02,-0.04
2020-08-12 19:51:26.7800,-0.08,0.04,-0.05
2020-08-12 19:51:26.8790,0.0,-0.03,-0.03
2020-08-12 19:51:26.9780,0.05,-0.04,-0.03
2020-08-12 19:51:27.0780,0.06,-0.15,-0.01
2020-08-12 19:51:27.1770,0.3,-0.35,-0.02
2020-08-12 19:51:27.2760,-0.05,0.19,-0.12
2020-08-12 19:51:27.3750,0.3,0.21,-0.07
2020-08-12 19:51:27.4740,0.11,0.01,0.02
2020-08-12 19:51:27.5740,0.01,0.08,-0.07
2020-08-12 19:51:27.6730,0.01,0.01,-0.02
2020-08-12 19:51:27.7730,0.08,0.02,-0.02
2020-08-12 19:51:27.8720,-0.02,-0.01,-0.01
2020-08-12 19:51:27.9710,-0.09,-0.02,0.02
2020-08-12 19:51:28.0700,-0.25,-0.0,-0.04
2020-08-12 19:51:28.1690,-0.43,0.05,-0.17
2020-08-12 19:51:28.2690,0.29,-1.1,-0.36
2020-08-12 19:51:28.3680,-0.48,0.04,0.31
2020-08-12 19:51:28.4670,-0.1,-0.01,-0.03
2020-08-12 19:51:28.5660,-0.03,-0.03,-0.05
2020-08-12 19:51:28.6660,-0.0,-0.03,-0.01
2020-08-12 19:51:28.7650,0.02,-0.05,-0.02
2020-08-12 19:51:28.8640,0.04,-0.18,0.03
2020-08-12 19:51:28.9640,0.24,-0.26,-0.12
2020-08-12 19:51:29.0630,-0.03,0.14,0.04
2020-08-12 19:51:29.1620,0.34,0.15,-0.04
2020-08-12 19:51:29.2620,0.14,0.09,0.07
2020-08-12 19:51:29.3610,0.06,0.03,-0.07
2020-08-12 19:51:29.4600,0.05,0.03,-0.13
2020-08-12 19:51:29.5590,0.01,0.01,-0.04
2020-08-12 19:51:29.6590,0.04,-0.03,-0.01
2020-08-12 19:51:29.7580,-0.13,-0.02,0.11
2020-08-12 19:51:29.8570,-0.24,0.01,-0.02
2020-08-12 19:51:29.9560,-0.37,0.04,-0.33
2020-08-12 19:51:30.0560,1.09,-0.62,-0.2
2020-08-12 19:51:30.1550,-0.58,0.01,0.3
2020-08-12 19:51:30.2540,-0.09,-0.01,-0.0
2020-08-12 19:51:30.3540,-0.03,-0.02,-0.05
2020-08-12 19:51:30.4530,0.08,0.01,0.02
2020-08-12 19:51:30.5520,0.11,-0.09,-0.01
2020-08-12 19:51:30.6510,0.1,-0.42,0.12
2020-08-12 19:51:30.7510,0.27,-0.04,-0.05
2020-08-12 19:51:30.8500,0.35,0.23,0.07
2020-08-12 19:51:30.9490,0.31,0.17,-0.12
2020-08-12 19:51:31.0490,0.03,0.04,-0.03
2020-08-12 19:51:31.1480,0.01,-0.01,-0.01
2020-08-12 19:51:31.2470,0.02,0.01,-0.06
2020-08-12 19:51:31.3460,0.0,-0.05,-0.07
2020-08-12 19:51:31.4450,-0.15,-0.04,-0.08
2020-08-12 19:51:31.5450,-0.45,0.01,-0.11
2020-08-12 19:51:31.6440,-0.72,0.13,-0.4
2020-08-12 19:51:31.7430,0.27,-0.18,-0.07
2020-08-12 19:51:31.8430,0.17,-0.01,-0.07
2020-08-12 19:51:31.9420,-0.0,-0.01,-0.08
2020-08-12 19:51:32.0410,0.06,-0.04,-0.04
2020-08-12 19:51:32.1400,0.08,-0.06,-0.0
2020-08-12 19:51:32.2400,0.04,-0.23,0.01
2020-08-12 19:51:32.3390,0.3,-0.37,-0.05
2020-08-12 19:51:32.4380,0.03,0.13,0.07
2020-08-12 19:51:32.5370,0.45,0.22,-0.03
2020-08-12 19:51:32.6370,0.23,0.11,0.03
2020-08-12 19:51:32.7360,0.01,0.01,-0.02
2020-08-12 19:51:32.8350,-0.1,-0.08,-0.09
2020-08-12 19:51:32.9340,-0.16,-0.04,-0.16
2020-08-12 19:51:33.0340,-0.21,-0.03,-0.07
2020-08-12 19:51:33.1330,-0.21,-0.01,-0.08
2020-08-12 19:51:33.2320,-0.4,0.15,-0.18
2020-08-12 19:51:33.3310,0.6,-0.51,-0.47
2020-08-12 19:51:33.4310,-0.56,0.04,0.29
2020-08-12 19:51:33.5300,-0.11,0.01,0.03
2020-08-12 19:51:33.6290,0.06,-0.02,-0.04
2020-08-12 19:51:33.7290,0.11,-0.06,-0.02
2020-08-12 19:51:33.8280,-0.0,-0.08,-0.04
2020-08-12 19:51:33.9270,0.07,-0.24,-0.01
2020-08-12 19:51:34.0270,0.24,-0.24,0.05
2020-08-12 19:51:34.1260,0.07,0.37,0.09
2020-08-12 19:51:34.2250,0.16,0.05,-0.1
2020-08-12 19:51:34.3240,0.18,0.09,0.02
2020-08-12 19:51:34.4240,0.06,-0.02,-0.02
2020-08-12 19:51:34.5230,-0.04,-0.05,-0.04
2020-08-12 19:51:34.6220,-0.25,-0.04,-0.1
2020-08-12 19:51:34.7220,-0.32,-0.01,-0.01
2020-08-12 19:51:34.8210,-0.19,0.17,-0.37
2020-08-12 19:51:34.9200,0.9,-0.38,-0.65
2020-08-12 19:51:35.0190,-0.43,0.06,0.26
2020-08-12 19:51:35.1190,-0.06,-0.04,0.04
2020-08-12 19:51:35.2180,0.1,-0.04,-0.03
2020-08-12 19:51:35.3170,0.02,-0.04,-0.04
2020-08-12 19:51:35.4160,0.05,-0.09,-0.02
2020-08-12 19:51:35.5150,0.18,-0.52,-0.02
2020-08-12 19:51:35.6150,-0.05,0.03,0.02
2020-08-12 19:51:35.7140,0.48,0.24,-0.12
2020-08-12 19:51:35.8130,0.16,0.12,-0.06
2020-08-12 19:51:35.9130,0.03,0.03,0.0
2020-08-12 19:51:36.0120,0.02,-0.01,-0.04
2020-08-12 19:51:36.1110,-0.07,-0.02,-0.03
2020-08-12 19:51:36.2110,-0.05,-0.05,-0.0
2020-08-12 19:51:36.3100,-0.2,0.01,0.04
2020-08-12 19:51:36.4090,-0.18,0.05,-0.19
2020-08-12 19:51:36.5080,-0.69,-0.16,-0.46
2020-08-12 19:51:36.6080,0.43,-0.28,-0.01
2020-08-12 19:51:36.7070,0.24,-0.06,-0.17
2020-08-12 19:51:36.8060,-0.06,-0.0,-0.03
2020-08-12 19:51:36.9050,-0.03,-0.01,-0.02
2020-08-12 19:51:37.0050,0.03,-0.04,-0.04
2020-08-12 19:51:37.1040,0.06,-0.15,0.03
2020-08-12 19:51:37.2030,0.28,-0.46,-0.05
2020-08-12 19:51:37.3030,-0.08,0.11,-0.02
2020-08-12 19:51:37.4020,0.55,0.23,0.12
2020-08-12 19:51:37.5010,0.31,0.17,-0.01
2020-08-12 19:51:37.6000,-0.03,-0.04,0.06
2020-08-12 19:51:37.7000,-0.08,-0.04,-0.13
2020-08-12 19:51:37.7990,-0.14,-0.02,-0.14
2020-08-12 19:51:37.8980,-0.18,-0.0,-0.05
2020-08-12 19:51:37.9970,-0.24,0.01,-0.02
2020-08-12 19:51:38.0960,-0.31,0.01,-0.19
2020-08-12 19:51:38.1960,-0.74,0.04,-0.36
2020-08-12 19:51:38.2950,0.26,-0.23,-0.13
2020-08-12 19:51:38.3940,0.09,0.01,-0.01
2020-08-12 19:51:38.4940,0.02,0.0,-0.06
2020-08-12 19:51:38.5930,0.03,-0.04,-0.04
2020-08-12 19:51:38.6920,0.11,-0.03,-0.03
2020-08-12 19:51:38.7920,0.02,-0.12,0.02
2020-08-12 19:51:38.8910,0.19,-0.34,-0.25
2020-08-12 19:51:38.9900,0.09,0.06,0.12
2020-08-12 19:51:39.0890,0.4,0.18,0.09
2020-08-12 19:51:39.1880,0.24,0.07,-0.01
2020-08-12 19:51:39.2880,0.01,-0.0,-0.06
2020-08-12 19:51:39.3870,-0.02,-0.02,-0.17
2020-08-12 19:51:39.4860,-0.12,-0.02,-0.09
2020-08-12 19:51:39.5870,-0.27,0.01,-0.03
2020-08-12 19:51:39.6850,-0.35,0.03,-0.07
2020-08-12 19:51:39.7840,-1.4,-0.12,-0.52
2020-08-12 19:51:39.8830,0.06,-0.19,0.13
2020-08-12 19:51:39.9830,0.15,-0.0,-0.07
2020-08-12 19:51:40.0820,-0.05,-0.01,-0.08
2020-08-12 19:51:40.1810,-0.16,-0.07,-0.02
2020-08-12 19:51:40.2810,0.01,-0.06,-0.01
2020-08-12 19:51:40.3800,0.02,-0.36,0.06
2020-08-12 19:51:40.4790,0.38,-0.31,0.03
2020-08-12 19:51:40.5790,0.29,0.37,0.02
2020-08-12 19:51:40.6780,0.22,0.18,-0.08
2020-08-12 19:51:40.7770,0.06,0.05,-0.04
2020-08-12 19:51:40.8770,0.05,-0.0,-0.1
2020-08-12 19:51:40.9760,0.03,0.04,-0.04
2020-08-12 19:51:41.0750,-0.11,-0.06,0.01
2020-08-12 19:51:41.1740,-0.1,0.04,-0.03
2020-08-12 19:51:41.2730,-0.07,-0.03,-0.16
2020-08-12 19:51:41.3730,-0.21,0.01,-0.11
2020-08-12 19:51:41.4720,-0.43,-0.0,0.04
2020-08-12 19:51:41.5710,0.03,-0.01,-0.46
2020-08-12 19:51:41.6710,-0.08,-0.01,0.06
2020-08-12 19:51:41.7700,-0.03,-0.0,0.02
2020-08-12 19:51:41.8690,0.08,-0.02,-0.05
2020-08-12 19:51:41.9680,0.03,-0.04,-0.04
2020-08-12 19:51:42.0670,0.02,-0.06,-0.04
2020-08-12 19:51:42.1670,0.08,-0.37,0.17
2020-08-12 19:51:42.2660,0.27,-0.16,-0.1
2020-08-12 19:51:42.3650,0.09,0.13,0.11
2020-08-12 19:51:42.4650,0.38,0.19,-0.07
2020-08-12 19:51:42.5640,0.15,0.04,-0.09
2020-08-12 19:51:42.6630,-0.07,0.03,0.03
2020-08-12 19:51:42.7620,-0.02,0.0,-0.03
2020-08-12 19:51:42.8620,-0.06,-0.05,-0.1
2020-08-12 19:51:42.9610,-0.22,-0.03,-0.1
2020-08-12 19:51:43.0600,-0.34,-0.01,-0.05
2020-08-12 19:51:43.1600,-0.3,0.15,-0.2
2020-08-12 19:51:43.2590,0.11,0.05,-0.47
2020-08-12 19:51:43.3580,-0.29,-0.03,0.13
2020-08-12 19:51:43.4570,-0.01,-0.01,-0.03
2020-08-12 19:51:43.5570,0.02,0.0,-0.07
2020-08-12 19:51:43.6560,-0.05,-0.05,-0.09
2020-08-12 19:51:43.7550,-0.03,-0.09,-0.04
2020-08-12 19:51:43.8540,0.02,-0.35,0.14
2020-08-12 19:51:43.9540,0.25,-0.21,-0.06
2020-08-12 19:51:44.0530,-0.0,0.09,0.08
2020-08-12 19:51:44.1520,0.5,0.15,-0.07
2020-08-12 19:51:44.2510,0.21,0.08,-0.07
2020-08-12 19:51:44.3510,0.07,0.05,-0.0
2020-08-12 19:51:44.4500,-0.01,0.01,-0.05
2020-08-12 19:51:44.5490,0.02,-0.03,-0.04
2020-08-12 19:51:44.6490,-0.23,-0.05,-0.11
2020-08-12 19:51:44.7480,-0.42,0.0,-0.03
2020-08-12 19:51:44.8470,-0.36,0.07,-0.09
2020-08-12 19:51:44.9460,-0.26,-0.48,0.1
2020-08-12 19:51:45.0460,-0.06,-0.09,0.17
2020-08-12 19:51:45.1450,0.04,0.0,-0.08
2020-08-12 19:51:45.2440,-0.02,-0.0,-0.05
2020-08-12 19:51:45.3430,0.05,-0.02,-0.01
2020-08-12 19:51:45.4430,0.04,-0.07,-0.04
2020-08-12 19:51:45.5420,0.09,-0.34,0.1
2020-08-12 19:51:45.6410,0.25,-0.1,-0.08
2020-08-12 19:51:45.7400,-0.03,0.19,0.18
2020-08-12 19:51:45.8400,0.41,0.19,-0.08
2020-08-12 19:51:45.9390,0.09,0.01,-0.07
2020-08-12 19:51:46.0380,-0.08,0.04,-0.04
2020-08-12 19:51:46.1380,-0.0,-0.01,-0.11
2020-08-12 19:51:46.2370,0.06,-0.04,-0.12
2020-08-12 19:51:46.3360,-0.15,-0.03,0.02
2020-08-12 19:51:46.4350,-0.17,0.01,0.01
2020-08-12 19:51:46.5350,-0.19,0.07,-0.16
2020-08-12 19:51:46.6340,-1.56,-0.29,-0.28
2020-08-12 19:51:46.7330,0.19,-0.14,-0.0
2020-08-12 19:51:46.8330,0.1,0.01,-0.05
2020-08-12 19:51:46.9320,0.0,-0.0,-0.03
2020-08-12 19:51:47.0310,0.04,-0.01,-0.04
2020-08-12 19:51:47.1300,-0.02,-0.08,-0.03
2020-08-12 19:51:47.2300,0.13,-0.45,0.14
2020-08-12 19:51:47.3290,0.24,-0.13,-0.05
2020-08-12 19:51:47.4280,0.1,0.28,0.13
2020-08-12 19:51:47.5270,0.31,0.18,-0.05
2020-08-12 19:51:47.6270,0.08,0.07,0.02
2020-08-12 19:51:47.7260,-0.03,-0.01,-0.15
2020-08-12 19:51:47.8250,-0.03,-0.01,-0.03
2020-08-12 19:51:47.9240,0.07,-0.03,-0.08
2020-08-12 19:51:48.0240,-0.15,-0.04,-0.14
2020-08-12 19:51:48.1230,-0.27,0.01,-0.02
2020-08-12 19:51:48.2220,-0.34,0.03,-0.05
2020-08-12 19:51:48.3220,-0.17,-0.38,0.15
2020-08-12 19:51:48.4210,0.24,-0.11,0.08
2020-08-12 19:51:48.5200,-0.01,0.02,-0.03
2020-08-12 19:51:48.6190,-0.06,0.0,-0.07
2020-08-12 19:51:48.7180,0.05,-0.02,-0.0
2020-08-12 19:51:48.8180,0.03,-0.05,-0.03
2020-08-12 19:51:48.9170,0.08,-0.32,0.08
2020-08-12 19:51:49.0170,0.29,-0.21,-0.15
2020-08-12 19:51:49.1160,-0.08,0.18,0.08
2020-08-12 19:51:49.2150,0.37,0.15,-0.08
2020-08-12 19:51:49.3140,0.23,0.14,-0.01
2020-08-12 19:51:49.4140,0.09,0.08,-0.02
2020-08-12 19:51:49.5130,-0.1,-0.04,-0.15
2020-08-12 19:51:49.6120,0.03,0.03,-0.01
2020-08-12 19:51:49.7110,0.1,-0.02,0.0
2020-08-12 19:51:49.8110,-0.11,-0.04,0.02
2020-08-12 19:51:49.9100,-0.34,-0.05,-0.12
2020-08-12 19:51:50.0090,-0.45,-0.04,-0.34
2020-08-12 19:51:50.1080,-0.0,0.17,-0.2
2020-08-12 19:51:50.2080,0.12,-0.04,-0.02
2020-08-12 19:51:50.3070,-0.04,0.0,-0.0
2020-08-12 19:51:50.4060,0.04,-0.01,-0.03
2020-08-12 19:51:50.5050,0.1,-0.04,-0.1
2020-08-12 19:51:50.6050,0.02,-0.09,0.01
2020-08-12 19:51:50.7040,0.05,-0.4,0.12
2020-08-12 19:51:50.8040,0.23,-0.15,-0.01
2020-08-12 19:51:50.9030,0.02,0.27,0.15
2020-08-12 19:51:51.0020,0.38,0.2,-0.1
2020-08-12 19:51:51.1010,0.06,0.03,-0.05
2020-08-12 19:51:51.2010,-0.11,0.05,-0.06
2020-08-12 19:51:51.3000,-0.09,0.0,-0.1
2020-08-12 19:51:51.3990,-0.13,0.04,-0.15
2020-08-12 19:51:51.4980,-0.15,0.02,-0.07
2020-08-12 19:51:51.5970,-0.12,0.06,-0.02
2020-08-12 19:51:51.6970,-0.22,0.08,0.05
2020-08-12 19:51:51.7960,-0.54,-0.19,-0.48
2020-08-12 19:51:51.8950,0.09,-0.18,0.05
2020-08-12 19:51:51.9950,0.24,-0.04,-0.06
2020-08-12 19:51:52.0940,-0.07,0.03,0.03
2020-08-12 19:51:52.1930,0.03,-0.02,-0.04
2020-08-12 19:51:52.2920,0.0,-0.07,-0.04
2020-08-12 19:51:52.3920,0.09,-0.21,0.07
2020-08-12 19:51:52.4910,0.31,-0.51,0.08
2020-08-12 19:51:52.5900,0.15,0.19,0.07
2020-08-12 19:51:52.6890,0.43,0.23,0.04
2020-08-12 19:51:52.7890,0.21,0.01,-0.07
2020-08-12 19:51:52.8880,-0.15,-0.02,-0.03
2020-08-12 19:51:52.9870,-0.11,-0.07,-0.1
2020-08-12 19:51:53.0870,-0.25,-0.03,-0.08
2020-08-12 19:51:53.1860,-0.34,0.01,-0.12
2020-08-12 19:51:53.2850,-0.43,0.07,-0.18
2020-08-12 19:51:53.3840,0.43,-0.44,-0.21
2020-08-12 19:51:53.4840,-0.49,-0.04,0.29
2020-08-12 19:51:53.5830,-0.08,-0.03,-0.03
2020-08-12 19:51:53.6820,0.03,0.01,-0.06
2020-08-12 19:51:53.7820,0.09,0.02,0.03
2020-08-12 19:51:53.8810,0.12,-0.09,-0.11
2020-08-12 19:51:53.9800,0.07,-0.13,-0.01
2020-08-12 19:51:54.0790,0.27,-0.43,0.06
2020-08-12 19:51:54.1790,0.05,0.11,-0.1
2020-08-12 19:51:54.2780,0.63,0.25,0.04
2020-08-12 19:51:54.3770,0.34,0.13,-0.03
2020-08-12 19:51:54.4760,-0.01,-0.02,-0.09
2020-08-12 19:51:54.5760,-0.2,-0.04,-0.06
2020-08-12 19:51:54.6750,-0.17,-0.03,-0.12
2020-08-12 19:51:54.7740,-0.34,-0.01,-0.14
2020-08-12 19:51:54.8730,-0.22,0.03,-0.12
2020-08-12 19:51:54.9730,-0.31,0.16,-0.2
2020-08-12 19:51:55.0720,-0.08,0.09,-0.47
2020-08-12 19:51:55.1720,-0.23,-0.01,0.14
2020-08-12 19:51:55.2710,-0.07,-0.02,-0.02
2020-08-12 19:51:55.3700,0.07,-0.03,-0.08
2020-08-12 19:51:55.4690,-0.0,-0.01,-0.07
2020-08-12 19:51:55.5680,0.04,-0.02,-0.05
2020-08-12 19:51:55.6680,0.04,-0.11,-0.04
2020-08-12 19:51:55.7670,0.09,-0.36,0.07
2020-08-12 19:51:55.8660,0.26,-0.18,-0.04
2020-08-12 19:51:55.9660,-0.04,0.18,0.08
2020-08-12 19:51:56.0650,0.26,0.18,-0.05
2020-08-12 19:51:56.1640,0.13,0.02,-0.01
2020-08-12 19:51:56.2630,0.07,0.02,-0.03
2020-08-12 19:51:56.3620,0.08,-0.0,-0.03
2020-08-12 19:51:56.4620,0.05,0.0,-0.07
2020-08-12 19:51:56.5610,-0.13,-0.04,-0.04
2020-08-12 19:51:56.6600,-0.27,-0.05,-0.09
2020-08-12 19:51:56.7600,-0.35,0.02,-0.23
2020-08-12 19:51:56.8590,0.91,-0.31,-0.05
2020-08-12 19:51:56.9580,-0.26,-0.02,0.23
2020-08-12 19:51:57.0570,0.03,-0.03,0.0
2020-08-12 19:51:57.1570,-0.02,-0.01,-0.07
2020-08-12 19:51:57.2560,-0.09,-0.05,-0.07
2020-08-12 19:51:57.3550,0.06,-0.07,-0.05
2020-08-12 19:51:57.4550,0.11,-0.42,-0.04
2020-08-12 19:51:57.5540,0.1,-0.07,0.02
2020-08-12 19:51:57.6530,0.12,0.32,0.15
2020-08-12 19:51:57.7520,0.29,0.14,-0.05
2020-08-12 19:51:57.8520,0.02,0.04,-0.01
2020-08-12 19:51:57.9510,0.08,0.07,-0.06
2020-08-12 19:51:58.0500,-0.01,0.01,-0.06
2020-08-12 19:51:58.1500,-0.1,-0.04,-0.11
2020-08-12 19:51:58.2490,-0.13,-0.0,-0.01
2020-08-12 19:51:58.3480,-0.11,0.02,-0.08
2020-08-12 19:51:58.4470,-0.31,0.06,-0.23
2020-08-12 19:51:58.5460,-0.07,0.04,-1.06
2020-08-12 19:51:58.6460,-0.06,-0.04,0.03
2020-08-12 19:51:58.7450,0.01,0.01,-0.03
2020-08-12 19:51:58.8440,0.02,-0.04,-0.08
2020-08-12 19:51:58.9440,0.02,-0.09,-0.02
2020-08-12 19:51:59.0430,0.09,-0.1,0.0
2020-08-12 19:51:59.1420,0.17,-0.43,0.03
2020-08-12 19:51:59.2410,0.08,-0.19,0.15
2020-08-12 19:51:59.3410,0.52,0.27,-0.14
2020-08-12 19:51:59.4400,0.18,0.18,-0.06
2020-08-12 19:51:59.5390,0.12,0.03,-0.04
2020-08-12 19:51:59.6380,0.0,0.05,-0.08
2020-08-12 19:51:59.7380,-0.0,-0.0,-0.04
2020-08-12 19:51:59.8370,0.01,-0.04,0.01
2020-08-12 19:51:59.9360,-0.16,-0.05,-0.04
2020-08-12 19:52:00.0350,-0.22,-0.01,-0.07
2020-08-12 19:52:00.1350,-0.23,0.05,-0.17
2020-08-12 19:52:00.2340,-0.7,-0.27,0.14
2020-08-12 19:52:00.3340,-0.17,-0.16,0.04
2020-08-12 19:52:00.4330,0.03,-0.03,0.05
2020-08-12 19:52:00.5320,-0.0,-0.01,-0.06
2020-08-12 19:52:00.6310,0.06,-0.04,-0.03
2020-08-12 19:52:00.7300,0.04,-0.08,-0.05
2020-08-12 19:52:00.8300,0.09,-0.23,0.06
2020-08-12 19:52:00.9290,0.27,-0.36,0.06
2020-08-12 19:52:01.0280,-0.01,0.18,0.04
2020-08-12 19:52:01.1280,0.22,0.18,-0.06
2020-08-12 19:52:01.2270,0.1,0.11,-0.06
2020-08-12 19:52:01.3260,0.01,0.16,-0.02
2020-08-12 19:52:01.4250,-0.03,-0.0,-0.1
2020-08-12 19:52:01.5250,0.06,0.03,-0.0
2020-08-12 19:52:01.6240,-0.05,-0.05,-0.02
2020-08-12 19:52:01.7230,-0.27,-0.05,0.05
2020-08-12 19:52:01.8230,-0.33,0.11,-0.23
2020-08-12 19:52:01.9220,0.87,-0.4,-0.13
2020-08-12 19:52:02.0210,-0.18,-0.02,0.27
2020-08-12 19:52:02.1200,-0.06,0.02,-0.08
2020-08-12 19:52:02.2200,-0.02,0.01,-0.11
2020-08-12 19:52:02.3190,-0.12,-0.08,0.03
2020-08-12 19:52:02.4180,0.02,-0.06,-0.04
2020-08-12 19:52:02.5170,0.03,-0.1,-0.0
2020-08-12 19:52:02.6170,0.19,-0.48,-0.01
2020-08-12 19:52:02.7160,0.11,0.04,0.08
2020-08-12 19:52:02.8150,0.43,0.19,0.04
2020-08-12 19:52:02.9140,0.18,0.17,-0.04
2020-08-12 19:52:03.0140,0.1,0.01,0.0
2020-08-12 19:52:03.1130,-0.0,-0.02,-0.02
2020-08-12 19:52:03.2120,-0.07,-0.02,-0.1
2020-08-12 19:52:03.3110,-0.14,0.02,-0.08
2020-08-12 19:52:03.4110,0.04,0.03,-0.05
2020-08-12 19:52:03.5100,-0.1,-0.01,-0.01
2020-08-12 19:52:03.6090,-0.41,0.04,-0.1
2020-08-12 19:52:03.7090,0.39,-0.42,0.32
2020-08-12 19:52:03.8080,-0.22,-0.08,0.16
2020-08-12 19:52:03.9070,-0.03,-0.01,-0.05
2020-08-12 19:52:04.0070,0.02,-0.03,-0.08
2020-08-12 19:52:04.1060,0.01,-0.01,-0.02
2020-08-12 19:52:04.2050,-0.0,-0.1,-0.02
2020-08-12 19:52:04.3040,0.06,-0.6,0.11
2020-08-12 19:52:04.4030,0.21,-0.22,-0.02
2020-08-12 19:52:04.5030,0.35,0.37,0.08
2020-08-12 19:52:04.6020,0.25,0.24,-0.07
2020-08-12 19:52:04.7010,-0.01,-0.03,-0.09
2020-08-12 19:52:04.8010,-0.09,0.1,0.02
2020-08-12 19:52:04.9000,-0.07,0.04,-0.09
2020-08-12 19:52:04.9990,-0.06,-0.03,-0.08
2020-08-12 19:52:05.0980,-0.16,-0.08,-0.07
2020-08-12 19:52:05.1970,-0.34,-0.01,-0.05
2020-08-12 19:52:05.2970,-0.29,0.04,-0.11
2020-08-12 19:52:05.3960,-0.36,-0.03,-0.11
2020-08-12 19:52:05.4950,0.16,-0.14,-0.0
2020-08-12 19:52:05.5950,0.1,-0.0,-0.09
2020-08-12 19:52:05.6940,-0.04,0.01,-0.05
2020-08-12 19:52:05.7930,0.04,-0.04,-0.03
2020-08-12 19:52:05.8920,0.01,-0.11,-0.04
2020-08-12 19:52:05.9920,0.12,-0.48,0.04
2020-08-12 19:52:06.0910,0.17,-0.22,0.04
2020-08-12 19:52:06.1900,0.17,0.29,0.05
2020-08-12 19:52:06.2900,0.28,0.23,-0.06
2020-08-12 19:52:06.3890,0.16,0.1,0.06
2020-08-12 19:52:06.4880,0.07,0.02,-0.07
2020-08-12 19:52:06.5870,-0.06,0.05,-0.03
2020-08-12 19:52:06.6870,-0.09,-0.04,-0.08
2020-08-12 19:52:06.7860,-0.17,-0.05,-0.09
2020-08-12 19:52:06.8850,-0.24,-0.03,-0.13
2020-08-12 19:52:06.9840,-0.26,0.03,-0.13
2020-08-12 19:52:07.0840,-0.9,0.08,-0.27
2020-08-12 19:52:07.1830,0.61,-0.31,-0.11
2020-08-12 19:52:07.2820,0.23,-0.01,-0.1
2020-08-12 19:52:07.3820,-0.06,0.02,-0.03
2020-08-12 19:52:07.4810,0.06,-0.01,-0.01
2020-08-12 19:52:07.5800,-0.03,-0.06,-0.06
2020-08-12 19:52:07.6790,-0.04,-0.09,-0.03
2020-08-12 19:52:07.7790,0.03,-0.23,0.09
2020-08-12 19:52:07.8780,0.32,-0.25,-0.12
2020-08-12 19:52:07.9770,-0.08,0.2,0.03
2020-08-12 19:52:08.0760,0.24,0.23,-0.07
2020-08-12 19:52:08.1760,0.23,0.08,-0.01
2020-08-12 19:52:08.2750,0.13,0.08,0.0
2020-08-12 19:52:08.3740,0.1,0.01,-0.01
2020-08-12 19:52:08.4740,0.08,-0.0,-0.11
2020-08-12 19:52:08.5730,-0.1,-0.01,-0.0
2020-08-12 19:52:08.6720,-0.22,-0.0,0.03
2020-08-12 19:52:08.7710,-0.17,0.04,0.04
2020-08-12 19:52:08.8710,-0.23,-0.02,-0.08
2020-08-12 19:52:08.9700,-2.21,-0.45,-0.27
2020-08-12 19:52:09.0690,-0.01,-0.06,0.12
2020-08-12 19:52:09.1680,-0.01,0.04,-0.06
2020-08-12 19:52:09.2680,-0.01,-0.01,-0.09
2020-08-12 19:52:09.3670,-0.07,-0.04,-0.02
2020-08-12 19:52:09.4660,0.02,-0.05,-0.02
2020-08-12 19:52:09.5650,0.09,-0.4,0.13
2020-08-12 19:52:09.6650,0.19,-0.21,-0.05
2020-08-12 19:52:09.7640,0.2,0.25,0.14
2020-08-12 19:52:09.8630,0.33,0.2,-0.05
2020-08-12 19:52:09.9630,0.14,0.05,-0.0
2020-08-12 19:52:10.0620,0.05,0.06,-0.06
2020-08-12 19:52:10.1610,-0.11,-0.01,-0.06
2020-08-12 19:52:10.2600,-0.01,-0.01,-0.07
2020-08-12 19:52:10.3600,-0.01,0.01,-0.05
2020-08-12 19:52:10.4590,-0.26,-0.07,-0.03
2020-08-12 19:52:10.5580,-0.3,0.04,-0.09
2020-08-12 19:52:10.6580,-0.35,0.07,-0.4
2020-08-12 19:52:10.7570,-0.54,0.24,-0.05
2020-08-12 19:52:10.8560,0.15,-0.07,-0.03
2020-08-12 19:52:10.9550,-0.07,0.02,0.01
2020-08-12 19:52:11.0550,0.02,-0.03,0.0
2020-08-12 19:52:11.1540,0.02,-0.03,-0.02
2020-08-12 19:52:11.2530,-0.03,-0.11,-0.04
2020-08-12 19:52:11.3520,0.06,-0.44,0.03
2020-08-12 19:52:11.4510,0.12,-0.37,0.07
2020-08-12 19:52:11.5510,0.44,0.41,0.19
2020-08-12 19:52:11.6500,0.38,0.22,-0.05
2020-08-12 19:52:11.7490,0.06,0.05,-0.03
2020-08-12 19:52:11.8490,-0.24,0.05,-0.05
2020-08-12 19:52:11.9480,-0.24,-0.01,-0.13
2020-08-12 19:52:12.0470,0.03,0.01,-0.14
2020-08-12 19:52:12.1460,-0.07,0.01,-0.05
2020-08-12 19:52:12.2460,-0.15,-0.05,-0.06
2020-08-12 19:52:12.3450,-0.26,0.02,-0.07
2020-08-12 19:52:12.4450,-0.16,0.07,-0.16
2020-08-12 19:52:12.5440,-0.17,-0.27,0.17
2020-08-12 19:52:12.6430,0.04,-0.06,-0.16
2020-08-12 19:52:12.7420,0.03,-0.03,0.08
2020-08-12 19:52:12.8420,0.02,0.03,-0.08
2020-08-12 19:52:12.9410,0.01,-0.03,-0.06
2020-08-12 19:52:13.0400,0.1,-0.07,-0.01
2020-08-12 19:52:13.1390,0.04,-0.2,-0.01
2020-08-12 19:52:13.2380,0.25,-0.35,-0.07
2020-08-12 19:52:13.3380,-0.03,0.21,0.03
2020-08-12 19:52:13.4370,0.32,0.19,-0.05
2020-08-12 19:52:13.5360,0.12,0.07,-0.03
2020-08-12 19:52:13.6360,0.05,0.09,-0.03
2020-08-12 19:52:13.7350,-0.06,-0.05,-0.09
2020-08-12 19:52:13.8340,-0.05,0.01,-0.01
2020-08-12 19:52:13.9330,-0.02,-0.02,-0.02
2020-08-12 19:52:14.0330,-0.11,-0.02,-0.02
2020-08-12 19:52:14.1320,-0.05,0.03,-0.04
2020-08-12 19:52:14.2310,-0.13,0.04,-0.11
2020-08-12 19:52:14.3310,-0.33,0.04,-0.17
2020-08-12 19:52:14.4300,0.35,-0.35,-0.66
2020-08-12 19:52:14.5290,-0.47,0.02,0.22
2020-08-12 19:52:14.6280,-0.1,0.02,-0.04
2020-08-12 19:52:14.7280,-0.07,-0.02,-0.09
2020-08-12 19:52:14.8270,0.06,-0.01,-0.05
2020-08-12 19:52:14.9260,0.1,-0.07,-0.06
2020-08-12 19:52:15.0250,0.03,-0.14,0.02
2020-08-12 19:52:15.1240,0.34,-0.44,-0.2
2020-08-12 19:52:15.2240,0.02,0.16,0.14
2020-08-12 19:52:15.3230,0.43,0.23,-0.04
2020-08-12 19:52:15.4220,0.22,0.09,0.01
2020-08-12 19:52:15.5220,0.06,0.03,-0.06
2020-08-12 19:52:15.6210,0.06,-0.03,-0.03
2020-08-12 19:52:15.7200,0.0,-0.06,-0.09
2020-08-12 19:52:15.8190,-0.4,-0.11,-0.04
2020-08-12 19:52:15.9190,-0.44,-0.03,-0.08
2020-08-12 19:52:16.0180,-0.39,0.1,-0.1
2020-08-12 19:52:16.1170,-0.01,-0.66,-0.15
2020-08-12 19:52:16.2170,-0.32,-0.0,0.22
2020-08-12 19:52:16.3160,-0.07,0.03,0.04
2020-08-12 19:52:16.4150,0.02,-0.02,-0.05
2020-08-12 19:52:16.5140,-0.01,-0.02,-0.03
2020-08-12 19:52:16.6140,-0.03,-0.09,0.02
2020-08-12 19:52:16.7130,0.04,-0.27,0.01
2020-08-12 19:52:16.8120,0.36,-0.42,0.04
2020-08-12 19:52:16.9110,-0.06,0.32,0.22
2020-08-12 19:52:17.0110,0.28,0.19,-0.1
2020-08-12 19:52:17.1100,0.13,0.05,-0.07
2020-08-12 19:52:17.2090,0.15,0.12,-0.01
2020-08-12 19:52:17.3090,0.06,0.0,-0.05
2020-08-12 19:52:17.4080,0.09,-0.01,-0.14
2020-08-12 19:52:17.5070,0.01,-0.03,0.03
2020-08-12 19:52:17.6060,-0.19,-0.06,0.08
2020-08-12 19:52:17.7060,-0.49,-0.0,-0.04
2020-08-12 19:52:17.8050,-0.39,0.01,-0.24
2020-08-12 19:52:17.9050,0.45,-0.29,-0.49
2020-08-12 19:52:18.0030,-0.11,-0.12,-0.01
2020-08-12 19:52:18.1030,0.08,-0.05,-0.04
2020-08-12 19:52:18.2020,0.01,-0.0,-0.05
2020-08-12 19:52:18.3010,0.03,-0.03,-0.02
2020-08-12 19:52:18.4000,0.03,-0.09,-0.07
2020-08-12 19:52:18.5000,0.1,-0.33,0.03
2020-08-12 19:52:18.5990,0.27,-0.21,-0.08
2020-08-12 19:52:18.6980,0.0,0.11,0.11
2020-08-12 19:52:18.7980,0.54,0.2,-0.09
2020-08-12 19:52:18.8970,0.19,0.1,-0.09
2020-08-12 19:52:18.9960,0.03,0.02,-0.07
2020-08-12 19:52:19.0960,0.01,0.05,-0.03
2020-08-12 19:52:19.1950,0.07,-0.0,-0.08
2020-08-12 19:52:19.2940,-0.05,-0.08,-0.01
2020-08-12 19:52:19.3930,-0.3,-0.1,-0.06
2020-08-12 19:52:19.4930,-0.35,0.01,-0.08
2020-08-12 19:52:19.5920,-0.86,-0.11,-0.51
2020-08-12 19:52:19.6910,-0.32,0.1,0.08
2020-08-12 19:52:19.7900,0.17,-0.08,0.05
2020-08-12 19:52:19.8890,-0.05,-0.0,0.0
2020-08-12 19:52:19.9890,-0.0,-0.02,-0.05
2020-08-12 19:52:20.0880,-0.08,-0.05,-0.0
2020-08-12 19:52:20.1870,-0.01,-0.13,-0.0
2020-08-12 19:52:20.2870,0.15,-0.59,0.04
2020-08-12 19:52:20.3860,-0.01,-0.0,-0.0
2020-08-12 19:52:20.4850,0.31,0.29,0.07
2020-08-12 19:52:20.5840,0.15,0.15,-0.04
2020-08-12 19:52:20.6840,0.05,-0.01,-0.04
2020-08-12 19:52:20.7830,0.03,0.06,-0.11
2020-08-12 19:52:20.8820,0.07,0.01,0.0
2020-08-12 19:52:20.9820,-0.02,-0.03,0.01
2020-08-12 19:52:21.0810,-0.16,-0.01,-0.04
2020-08-12 19:52:21.1800,-0.06,0.05,-0.01
2020-08-12 19:52:21.2790,-0.13,-0.04,-0.1
2020-08-12 19:52:21.3790,-0.46,-0.03,-0.16
2020-08-12 19:52:21.4780,-0.03,0.03,-0.48
2020-08-12 19:52:21.5770,-0.07,-0.03,-0.13
2020-08-12 19:52:21.6760,0.02,-0.03,-0.01
2020-08-12 19:52:21.7760,0.02,0.01,-0.06
2020-08-12 19:52:21.8750,0.05,-0.06,-0.05
2020-08-12 19:52:21.9740,0.02,-0.09,-0.06
2020-08-12 19:52:22.0730,0.08,-0.48,0.11
2020-08-12 19:52:22.1730,0.08,-0.2,0.06
2020-08-12 19:52:22.2720,0.58,0.33,0.12
2020-08-12 19:52:22.3710,0.31,0.19,-0.12
2020-08-12 19:52:22.4710,-0.14,-0.03,-0.05
2020-08-12 19:52:22.5700,-0.09,0.02,-0.11
2020-08-12 19:52:22.6690,-0.04,0.04,-0.07
2020-08-12 19:52:22.7680,-0.02,0.01,-0.12
2020-08-12 19:52:22.8680,-0.06,-0.0,-0.1
2020-08-12 19:52:22.9670,-0.11,0.0,0.02
2020-08-12 19:52:23.0660,-0.2,-0.0,-0.07
2020-08-12 19:52:23.1660,-0.23,0.0,-0.17
2020-08-12 19:52:23.2650,-0.25,-0.11,0.07
2020-08-12 19:52:23.3640,0.07,-0.14,0.01
2020-08-12 19:52:23.4640,0.02,-0.04,-0.01
2020-08-12 19:52:23.5630,-0.06,0.05,0.01
2020-08-12 19:52:23.6620,0.02,-0.01,-0.04
2020-08-12 19:52:23.7610,0.12,-0.03,-0.06
2020-08-12 19:52:23.8600,0.07,-0.18,-0.09
2020-08-12 19:52:23.9600,0.27,-0.54,0.06
2020-08-12 19:52:24.0590,0.14,-0.07,0.09
2020-08-12 19:52:24.1580,0.76,0.31,-0.0
2020-08-12 19:52:24.2580,0.28,0.05,-0.08
2020-08-12 19:52:24.3570,-0.18,-0.04,-0.05
2020-08-12 19:52:24.4560,-0.07,0.04,-0.07
2020-08-12 19:52:24.5550,-0.04,-0.01,-0.02
2020-08-12 19:52:24.6540,-0.11,-0.02,-0.1
2020-08-12 19:52:24.7540,-0.12,0.07,0.0
2020-08-12 19:52:24.8530,-0.03,0.0,-0.11
2020-08-12 19:52:24.9520,-0.22,-0.01,-0.01
2020-08-12 19:52:25.0520,-0.32,0.04,-0.07
2020-08-12 19:52:25.1510,0.93,-0.33,0.26
2020-08-12 19:52:25.2500,-0.1,-0.11,0.0
2020-08-12 19:52:25.3490,0.04,-0.01,-0.04
2020-08-12 19:52:25.4490,-0.04,0.02,-0.02
2020-08-12 19:52:25.5480,-0.07,-0.03,-0.07
2020-08-12 19:52:25.6470,-0.01,-0.09,-0.03
2020-08-12 19:52:25.7470,0.16,-0.54,0.08
2020-08-12 19:52:25.8460,0.01,-0.13,0.06
2020-08-12 19:52:25.9450,-0.09,0.27,0.12
2020-08-12 19:52:26.0440,0.32,0.14,-0.22
2020-08-12 19:52:26.1430,-0.05,0.06,-0.07
2020-08-12 19:52:26.2430,0.01,0.06,-0.05
2020-08-12 19:52:26.3420,0.09,-0.0,-0.02
2020-08-12 19:52:26.4410,0.07,0.04,0.0
2020-08-12 19:52:26.5410,-0.03,-0.05,-0.01
2020-08-12 19:52:26.6400,-0.14,-0.01,-0.06
2020-08-12 19:52:26.7390,-0.16,0.03,-0.08
2020-08-12 19:52:26.8380,-0.24,-0.01,-0.09
2020-08-12 19:52:26.9380,-1.35,-0.09,-0.25
2020-08-12 19:52:27.0370,0.39,-0.07,-0.06
2020-08-12 19:52:27.1360,0.19,-0.04,0.02
2020-08-12 19:52:27.2360,0.03,0.01,-0.02
2020-08-12 19:52:27.3350,0.07,-0.01,-0.03
2020-08-12 19:52:27.4340,0.06,-0.05,0.0
2020-08-12 19:52:27.5330,-0.04,-0.14,0.01
2020-08-12 19:52:27.6330,0.17,-0.41,0.09
2020-08-12 19:52:27.7320,0.09,0.02,0.03
2020-08-12 19:52:27.8310,0.46,0.28,-0.03
2020-08-12 19:52:27.9300,0.29,0.11,-0.08
2020-08-12 19:52:28.0300,0.06,0.02,-0.02
2020-08-12 19:52:28.1290,0.05,-0.01,-0.11
2020-08-12 19:52:28.2280,-0.04,-0.06,-0.17
2020-08-12 19:52:28.3270,-0.01,0.0,-0.01
2020-08-12 19:52:28.4270,-0.14,-0.06,0.02
2020-08-12 19:52:28.5260,-0.41,-0.03,-0.02
2020-08-12 19:52:28.6250,-0.49,0.06,-0.39
2020-08-12 19:52:28.7250,-0.46,0.38,-0.18
2020-08-12 19:52:28.8240,-0.03,-0.04,-0.0
2020-08-12 19:52:28.9230,-0.03,-0.03,-0.0
2020-08-12 19:52:29.0220,0.04,-0.01,-0.04
2020-08-12 19:52:29.1220,0.01,-0.04,-0.03
2020-08-12 19:52:29.2210,-0.06,-0.08,0.02
2020-08-12 19:52:29.3200,0.05,-0.48,0.01
2020-08-12 19:52:29.4200,0.0,-0.01,0.05
2020-08-12 19:52:29.5190,0.2,0.19,-0.03
2020-08-12 19:52:29.6180,0.23,0.11,-0.07
2020-08-12 19:52:29.7170,0.13,0.05,0.09
2020-08-12 19:52:29.8170,0.2,0.02,-0.04
2020-08-12 19:52:29.9160,0.03,-0.02,-0.08
2020-08-12 19:52:30.0150,0.0,-0.06,-0.09
2020-08-12 19:52:30.1140,-0.09,-0.01,-0.05
2020-08-12 19:52:30.2140,-0.12,0.01,-0.03
2020-08-12 19:52:30.3130,-0.21,-0.03,-0.03
2020-08-12 19:52:30.4120,-0.35,0.12,-0.2
2020-08-12 19:52:30.5110,0.9,-0.16,-0.29
2020-08-12 19:52:30.6110,-0.48,-0.06,0.21
2020-08-12 19:52:30.7100,-0.03,-0.06,-0.02
2020-08-12 19:52:30.8090,-0.02,0.04,-0.04
2020-08-12 19:52:30.9080,-0.01,0.01,-0.06
2020-08-12 19:52:31.0080,-0.02,-0.08,-0.01
2020-08-12 19:52:31.1070,0.06,-0.33,0.06
2020-08-12 19:52:31.2070,0.17,-0.32,0.1
2020-08-12 19:52:31.3060,0.29,0.29,-0.08
2020-08-12 19:52:31.4050,0.31,0.23,-0.16
2020-08-12 19:52:31.5040,0.08,-0.0,-0.06
2020-08-12 19:52:31.6040,0.05,0.06,-0.03
2020-08-12 19:52:31.7030,-0.02,-0.0,-0.03
2020-08-12 19:52:31.8020,0.01,0.03,-0.02
2020-08-12 19:52:31.9010,0.04,-0.04,-0.01
2020-08-12 19:52:32.0010,-0.15,-0.06,0.01
2020-08-12 19:52:32.1000,-0.26,-0.03,-0.06
2020-08-12 19:52:32.1990,-0.37,0.05,-0.2
2020-08-12 19:52:32.2980,0.35,-1.05,-0.14
2020-08-12 19:52:32.3980,-0.35,-0.03,0.16
2020-08-12 19:52:32.4970,-0.1,-0.0,0.0
2020-08-12 19:52:32.5960,-0.0,-0.02,-0.05
2020-08-12 19:52:32.6950,0.05,0.02,-0.03
2020-08-12 19:52:32.7950,0.07,-0.09,-0.12
2020-08-12 19:52:32.8940,0.09,-0.26,0.02
2020-08-12 19:52:32.9930,0.25,-0.29,0.07
2020-08-12 19:52:33.0920,0.22,0.29,0.1
2020-08-12 19:52:33.1920,0.38,0.26,-0.04
2020-08-12 19:52:33.2910,-0.11,-0.01,0.05
2020-08-12 19:52:33.3900,-0.1,-0.02,-0.13
2020-08-12 19:52:33.4900,-0.07,-0.01,-0.01
2020-08-12 19:52:33.5890,0.08,0.03,-0.09
2020-08-12 19:52:33.6880,-0.03,-0.04,-0.12
2020-08-12 19:52:33.7870,-0.18,-0.03,-0.01
2020-08-12 19:52:33.8870,-0.34,-0.0,-0.07
2020-08-12 19:52:33.9860,-0.33,0.09,-0.26
2020-08-12 19:52:34.0850,0.59,-0.45,-0.26
2020-08-12 19:52:34.1850,-0.65,0.02,0.32
2020-08-12 19:52:34.2840,-0.06,-0.03,-0.02
2020-08-12 19:52:34.3830,0.03,-0.02,-0.04
2020-08-12 19:52:34.4820,0.05,-0.02,-0.03
2020-08-12 19:52:34.5810,-0.01,-0.1,-0.07
2020-08-12 19:52:34.6800,0.1,-0.34,0.01
2020-08-12 19:52:34.7800,0.26,-0.27,-0.01
2020-08-12 19:52:34.8790,0.05,0.14,0.08
2020-08-12 19:52:34.9790,0.29,0.28,-0.08
2020-08-12 19:52:35.0780,0.12,0.01,-0.08
2020-08-12 19:52:35.1770,0.07,0.07,0.02
2020-08-12 19:52:35.2760,0.05,-0.01,-0.01
2020-08-12 19:52:35.3760,-0.03,-0.02,-0.07
2020-08-12 19:52:35.4750,-0.04,-0.02,-0.07
2020-08-12 19:52:35.5740,-0.19,-0.04,-0.06
2020-08-12 19:52:35.6730,-0.18,0.02,-0.03
2020-08-12 19:52:35.7730,-0.2,-0.0,-0.08
2020-08-12 19:52:35.8720,-0.67,-0.07,-0.47
2020-08-12 19:52:35.9710,-0.04,-0.01,0.04
2020-08-12 19:52:36.0710,0.06,-0.06,-0.05
2020-08-12 19:52:36.1700,0.01,-0.01,-0.0
2020-08-12 19:52:36.2690,-0.0,-0.0,-0.06
2020-08-12 19:52:36.3680,0.01,-0.02,-0.05
2020-08-12 19:52:36.4680,0.02,-0.07,0.0
2020-08-12 19:52:36.5670,0.07,-0.49,0.09
2020-08-12 19:52:36.6660,0.08,-0.17,-0.01
2020-08-12 19:52:36.7650,0.22,0.45,0.31
2020-08-12 19:52:36.8650,0.38,0.17,-0.16
2020-08-12 19:52:36.9640,-0.2,0.01,-0.04
2020-08-12 19:52:37.0630,-0.08,0.06,-0.06
2020-08-12 19:52:37.1620,0.07,-0.01,-0.15
2020-08-12 19:52:37.2620,0.11,0.0,-0.04
2020-08-12 19:52:37.3610,0.09,-0.05,-0.01
2020-08-12 19:52:37.4600,-0.01,-0.07,-0.05
2020-08-12 19:52:37.5590,-0.3,-0.02,-0.01
2020-08-12 19:52:37.6590,-0.4,0.03,-0.11
2020-08-12 19:52:37.7580,-0.2,0.14,-0.31
2020-08-12 19:52:37.8570,-0.11,0.17,-0.11
2020-08-12 19:52:37.9570,0.08,-0.05,-0.01
2020-08-12 19:52:38.0560,-0.0,-0.03,-0.0
2020-08-12 19:52:38.1550,-0.03,-0.01,-0.04
2020-08-12 19:52:38.2550,-0.02,-0.01,-0.0
2020-08-12 19:52:38.3540,0.03,-0.09,-0.05
2020-08-12 19:52:38.4530,0.04,-0.34,0.03
2020-08-12 19:52:38.5520,0.17,-0.25,-0.09
2020-08-12 19:52:38.6520,0.0,0.22,0.06
2020-08-12 19:52:38.7510,0.2,0.21,-0.04
2020-08-12 19:52:38.8500,0.08,0.08,0.02
2020-08-12 19:52:38.9490,0.05,0.08,-0.02
2020-08-12 19:52:39.0490,-0.0,0.03,-0.04
2020-08-12 19:52:39.1480,0.01,0.01,-0.06
2020-08-12 19:52:39.2470,0.06,-0.02,-0.09
2020-08-12 19:52:39.3460,-0.04,-0.04,-0.06
2020-08-12 19:52:39.4460,-0.12,-0.05,-0.05
2020-08-12 19:52:39.5450,-0.26,0.02,-0.08
2020-08-12 19:52:39.6440,-0.28,0.08,-0.32
2020-08-12 19:52:39.7440,-0.39,0.23,-0.21
2020-08-12 19:52:39.8430,-0.05,-0.0,-0.03
2020-08-12 19:52:39.9420,0.01,-0.02,-0.01
2020-08-12 19:52:40.0410,0.03,0.01,-0.05
2020-08-12 19:52:40.1410,0.07,-0.03,-0.01
2020-08-12 19:52:40.2400,0.02,-0.1,-0.01
2020-08-12 19:52:40.3390,0.05,-0.49,0.09
2020-08-12 19:52:40.4380,0.08,-0.11,0.07
2020-08-12 19:52:40.5380,0.31,0.39,0.16
2020-08-12 19:52:40.6370,0.25,0.1,-0.07
2020-08-12 19:52:40.7360,-0.02,-0.03,-0.05
2020-08-12 19:52:40.8360,0.01,0.07,-0.1
2020-08-12 19:52:40.9350,0.03,0.01,-0.1
2020-08-12 19:52:41.0340,0.09,-0.02,-0.02
2020-08-12 19:52:41.1330,0.02,-0.05,-0.13
2020-08-12 19:52:41.2320,-0.11,-0.0,-0.03
2020-08-12 19:52:41.3320,-0.21,0.01,-0.01
2020-08-12 19:52:41.4310,-0.28,0.03,-0.08
2020-08-12 19:52:41.5300,-1.39,-0.26,-0.38
2020-08-12 19:52:41.6290,0.24,-0.11,0.03
2020-08-12 19:52:41.7290,0.12,-0.02,-0.0
2020-08-12 19:52:41.8280,0.05,0.01,-0.05
2020-08-12 19:52:41.9270,0.01,-0.01,-0.02
2020-08-12 19:52:42.0270,-0.02,-0.04,-0.03
2020-08-12 19:52:42.1260,-0.05,-0.11,-0.01
2020-08-12 19:52:42.2250,0.18,-0.39,-0.08
2020-08-12 19:52:42.3250,0.14,0.02,0.12
2020-08-12 19:52:42.4240,0.34,0.23,-0.11
2020-08-12 19:52:42.5230,0.18,0.08,-0.1
2020-08-12 19:52:42.6220,0.11,0.03,-0.01
2020-08-12 19:52:42.7220,0.2,0.06,0.01
2020-08-12 19:52:42.8210,0.1,-0.04,-0.11
2020-08-12 19:52:42.9200,0.02,-0.03,0.03
2020-08-12 19:52:43.0190,-0.09,-0.01,0.07
2020-08-12 19:52:43.1180,-0.13,-0.05,0.08
2020-08-12 19:52:43.2180,-0.46,-0.02,0.02
2020-08-12 19:52:43.3170,-0.4,0.16,-0.26
2020-08-12 19:52:43.4170,0.22,-0.13,-0.88
2020-08-12 19:52:43.5160,-0.3,-0.02,0.12
2020-08-12 19:52:43.6150,0.04,-0.02,-0.04
2020-08-12 19:52:43.7140,-0.01,-0.03,-0.07
2020-08-12 19:52:43.8130,0.01,-0.06,-0.02
2020-08-12 19:52:43.9130,0.05,-0.14,-0.04
2020-08-12 19:52:44.0120,0.07,-0.43,0.06
2020-08-12 19:52:44.1110,0.09,-0.16,0.14
2020-08-12 19:52:44.2110,0.55,0.35,0.0
2020-08-12 19:52:44.3100,0.14,0.2,-0.14
2020-08-12 19:52:44.4090,0.07,-0.03,-0.04
2020-08-12 19:52:44.5080,0.07,0.02,-0.1
2020-08-12 19:52:44.6080,0.07,-0.04,-0.11
2020-08-12 19:52:44.7070,-0.1,-0.03,-0.1
2020-08-12 19:52:44.8060,-0.14,0.01,-0.06
2020-08-12 19:52:44.9060,-0.08,0.0,0.05
2020-08-12 19:52:45.0050,-0.17,-0.02,-0.03
2020-08-12 19:52:45.1040,-0.26,0.06,-0.18
2020-08-12 19:52:45.2030,-0.42,-1.03,0.47
2020-08-12 19:52:45.3030,-0.2,-0.05,0.2
2020-08-12 19:52:45.4020,-0.09,-0.01,-0.03
2020-08-12 19:52:45.5010,-0.0,-0.01,-0.05
2020-08-12 19:52:45.6000,0.04,-0.0,-0.04
2020-08-12 19:52:45.7000,-0.1,-0.05,-0.07
2020-08-12 19:52:45.7990,-0.01,-0.18,0.06
2020-08-12 19:52:45.8980,0.15,-0.53,-0.04
2020-08-12 19:52:45.9970,0.11,0.03,0.1
2020-08-12 19:52:46.0970,0.58,0.23,-0.0
2020-08-12 19:52:46.1960,0.21,0.09,-0.12
2020-08-12 19:52:46.2950,-0.02,0.06,-0.05
2020-08-12 19:52:46.3950,0.01,0.05,-0.02
2020-08-12 19:52:46.4940,0.01,0.01,-0.1
2020-08-12 19:52:46.5930,-0.03,-0.03,-0.03
2020-08-12 19:52:46.6920,-0.11,-0.05,-0.04
2020-08-12 19:52:46.7920,-0.21,-0.03,-0.04
2020-08-12 19:52:46.8910,-0.3,-0.02,-0.12
2020-08-12 19:52:46.9900,-0.31,-0.0,-0.32
2020-08-12 19:52:47.0890,-0.37,0.08,-0.28
2020-08-12 19:52:47.1890,-0.15,-0.02,0.05
2020-08-12 19:52:47.2880,0.05,-0.02,0.01
2020-08-12 19:52:47.3870,-0.02,-0.0,-0.07
2020-08-12 19:52:47.4860,-0.02,-0.01,-0.04
2020-08-12 19:52:47.5860,0.03,-0.07,-0.03
2020-08-12 19:52:47.6850,0.11,-0.41,0.06
2020-08-12 19:52:47.7840,0.12,-0.18,-0.03
2020-08-12 19:52:47.8840,0.01,0.13,0.14
2020-08-12 19:52:47.9830,0.33,0.24,-0.1
2020-08-12 19:52:48.0820,0.05,0.08,-0.06
2020-08-12 19:52:48.1820,0.12,0.05,-0.02
2020-08-12 19:52:48.2810,0.03,-0.02,-0.03
2020-08-12 19:52:48.3800,0.03,0.03,-0.07
2020-08-12 19:52:48.4790,-0.11,-0.05,-0.11
2020-08-12 19:52:48.5790,-0.15,0.02,-0.02
2020-08-12 19:52:48.6780,-0.15,-0.0,-0.02
2020-08-12 19:52:48.7770,-0.23,0.0,-0.06
2020-08-12 19:52:48.8760,-0.31,-0.04,-0.34
2020-08-12 19:52:48.9760,0.05,0.09,-0.15
2020-08-12 19:52:49.0750,0.05,-0.04,-0.12
2020-08-12 19:52:49.1740,0.04,-0.01,-0.0
2020-08-12 19:52:49.2730,0.05,-0.03,-0.05
2020-08-12 19:52:49.3730,-0.02,0.01,-0.02
2020-08-12 19:52:49.4720,0.07,-0.15,-0.06
2020-08-12 19:52:49.5710,0.11,-0.51,0.06
2020-08-12 19:52:49.6700,0.11,-0.14,-0.04
2020-08-12 19:52:49.7700,0.27,0.39,0.21
2020-08-12 19:52:49.8690,0.3,0.19,-0.04
2020-08-12 19:52:49.9680,0.04,-0.01,-0.04
2020-08-12 19:52:50.0670,0.02,0.04,-0.13
2020-08-12 19:52:50.1670,-0.14,-0.0,-0.11
2020-08-12 19:52:50.2660,-0.06,0.03,-0.03
2020-08-12 19:52:50.3650,-0.03,-0.04,-0.01
2020-08-12 19:52:50.4650,-0.17,-0.04,-0.05
2020-08-12 19:52:50.5640,-0.25,0.02,-0.15
2020-08-12 19:52:50.6640,-0.31,0.15,-0.21
2020-08-12 19:52:50.7620,-0.17,0.13,-0.56
2020-08-12 19:52:50.8620,-0.22,-0.04,-0.03
2020-08-12 19:52:50.9610,0.02,-0.07,-0.01
2020-08-12 19:52:51.0600,0.02,-0.01,-0.05
2020-08-12 19:52:51.1590,0.02,-0.03,-0.04
2020-08-12 19:52:51.2590,0.01,-0.12,-0.04
2020-08-12 19:52:51.3580,0.09,-0.38,0.03
2020-08-12 19:52:51.4580,0.2,-0.27,0.06
2020-08-12 19:52:51.5560,0.05,0.28,0.13
2020-08-12 19:52:51.6570,0.35,0.2,-0.05
2020-08-12 19:52:51.7550,0.14,0.06,-0.05
2020-08-12 19:52:51.8540,-0.12,0.01,-0.01
2020-08-12 19:52:51.9540,0.02,-0.02,-0.05
2020-08-12 19:52:52.0530,0.07,-0.04,-0.04
2020-08-12 19:52:52.1520,-0.11,-0.04,-0.03
2020-08-12 19:52:52.2510,-0.15,0.02,-0.0
2020-08-12 19:52:52.3510,-0.29,-0.01,-0.13
2020-08-12 19:52:52.4500,-0.41,0.14,-0.3
2020-08-12 19:52:52.5490,0.43,-0.18,-0.83
2020-08-12 19:52:52.6490,-0.39,-0.05,0.13
2020-08-12 19:52:52.7480,-0.05,-0.04,-0.01
2020-08-12 19:52:52.8470,-0.02,-0.02,-0.06
2020-08-12 19:52:52.9470,-0.01,-0.04,-0.04
2020-08-12 19:52:53.0460,0.03,-0.09,-0.01
2020-08-12 19:52:53.1450,0.05,-0.42,0.06
2020-08-12 19:52:53.2440,0.12,-0.19,0.12
2020-08-12 19:52:53.3430,0.11,0.24,0.09
2020-08-12 19:52:53.4430,0.41,0.24,-0.1
2020-08-12 19:52:53.5420,-0.03,-0.06,-0.06
2020-08-12 19:52:53.6410,-0.1,0.01,-0.02
2020-08-12 19:52:53.7400,-0.05,0.0,-0.18
2020-08-12 19:52:53.8400,0.05,0.04,-0.01
2020-08-12 19:52:53.9390,0.08,-0.0,-0.08
2020-08-12 19:52:54.0380,-0.13,-0.1,0.05
2020-08-12 19:52:54.1380,-0.34,-0.04,-0.03
2020-08-12 19:52:54.2370,-0.37,0.14,-0.38
2020-08-12 19:52:54.3360,0.68,-0.67,0.09
2020-08-12 19:52:54.4350,-0.36,-0.15,0.19
2020-08-12 19:52:54.5350,-0.12,-0.01,0.06
2020-08-12 19:52:54.6340,-0.01,-0.01,-0.05
2020-08-12 19:52:54.7330,0.03,0.0,-0.02
2020-08-12 19:52:54.8330,0.07,-0.08,0.01
2020-08-12 19:52:54.9320,0.07,-0.27,-0.03
2020-08-12 19:52:55.0310,0.18,-0.25,-0.04
2020-08-12 19:52:55.1300,0.14,0.08,0.11
2020-08-12 19:52:55.2300,0.57,0.22,0.01
2020-08-12 19:52:55.3290,0.2,0.14,-0.13
2020-08-12 19:52:55.4280,-0.01,-0.05,-0.06
2020-08-12 19:52:55.5280,-0.03,-0.02,0.01
2020-08-12 19:52:55.6270,0.04,0.04,-0.06
2020-08-12 19:52:55.7260,0.05,-0.05,-0.11
2020-08-12 19:52:55.8250,-0.11,-0.05,-0.07
2020-08-12 19:52:55.9240,-0.15,-0.04,-0.05
2020-08-12 19:52:56.0240,-0.3,0.06,-0.11
2020-08-12 19:52:56.1230,-0.92,-0.05,-0.42
2020-08-12 19:52:56.2220,0.53,-0.15,0.03
2020-08-12 19:52:56.3210,0.18,-0.09,-0.06
2020-08-12 19:52:56.4210,-0.04,0.04,-0.02
2020-08-12 19:52:56.5200,0.01,0.04,-0.05
2020-08-12 19:52:56.6190,-0.05,-0.02,-0.05
2020-08-12 19:52:56.7180,0.11,-0.1,-0.06
2020-08-12 19:52:56.8180,0.03,-0.36,0.08
2020-08-12 19:52:56.9170,0.2,-0.16,0.01
2020-08-12 19:52:57.0160,-0.0,0.15,-0.01
2020-08-12 19:52:57.1160,0.29,0.16,0.04
2020-08-12 19:52:57.2150,0.25,0.12,0.05
2020-08-12 19:52:57.3140,0.09,0.01,-0.02
2020-08-12 19:52:57.4130,-0.03,-0.06,-0.11
2020-08-12 19:52:57.5130,-0.03,-0.01,-0.04
2020-08-12 19:52:57.6120,-0.03,0.05,-0.05
2020-08-12 19:52:57.7110,-0.01,0.02,-0.0
2020-08-12 19:52:57.8110,-0.15,-0.05,-0.07
2020-08-12 19:52:57.9100,-0.44,0.03,-0.14
2020-08-12 19:52:58.0090,-1.31,-0.43,-0.58
2020-08-12 19:52:58.1080,0.09,-0.12,-0.02
2020-08-12 19:52:58.2080,0.04,-0.02,-0.01
2020-08-12 19:52:58.3070,-0.02,0.02,-0.05
2020-08-12 19:52:58.4060,0.06,0.01,-0.03
2020-08-12 19:52:58.5050,0.04,-0.09,0.01
2020-08-12 19:52:58.6050,-0.02,-0.08,-0.0
2020-08-12 19:52:58.7040,0.12,-0.41,-0.07
2020-08-12 19:52:58.8030,0.1,-0.08,0.05
2020-08-12 19:52:58.9020,0.08,0.24,0.2
2020-08-12 19:52:59.0020,0.29,0.17,-0.1
2020-08-12 19:52:59.1010,0.16,0.08,-0.07
2020-08-12 19:52:59.2010,0.1,-0.04,-0.04
2020-08-12 19:52:59.3000,0.08,-0.02,-0.03
2020-08-12 19:52:59.3990,0.06,-0.03,0.02
2020-08-12 19:52:59.4980,-0.14,-0.1,-0.09
2020-08-12 19:52:59.5980,-0.32,-0.04,0.05
2020-08-12 19:52:59.6970,-0.36,0.0,-0.13
2020-08-12 19:52:59.7960,-0.72,0.07,-0.35
2020-08-12 19:52:59.8950,0.33,-0.18,-0.11
2020-08-12 19:52:59.9950,0.15,-0.02,-0.03
2020-08-12 19:53:00.0940,-0.05,0.02,-0.02
2020-08-12 19:53:00.1930,0.0,0.0,-0.02
2020-08-12 19:53:00.2930,0.01,-0.02,-0.07
2020-08-12 19:53:00.3920,0.04,-0.09,-0.01
2020-08-12 19:53:00.4910,0.08,-0.38,0.08
2020-08-12 19:53:00.5900,0.26,-0.33,0.03
2020-08-12 19:53:00.6890,0.02,0.24,0.06
2020-08-12 19:53:00.7890,0.5,0.17,-0.01
2020-08-12 19:53:00.8880,0.18,0.13,-0.08
2020-08-12 19:53:00.9870,-0.07,-0.05,-0.09
2020-08-12 19:53:01.0870,0.03,-0.03,-0.04
2020-08-12 19:53:01.1860,-0.04,-0.06,-0.03
2020-08-12 19:53:01.2850,-0.03,-0.03,-0.07
2020-08-12 19:53:01.3840,-0.22,-0.06,-0.12
2020-08-12 19:53:01.4840,-0.46,0.04,-0.06
2020-08-12 19:53:01.5830,-0.38,0.26,0.1
2020-08-12 19:53:01.6820,0.8,-0.2,-0.05
2020-08-12 19:53:01.7820,0.29,-0.04,-0.11
2020-08-12 19:53:01.8810,-0.01,0.03,-0.04
2020-08-12 19:53:01.9800,0.02,0.01,0.01
2020-08-12 19:53:02.0790,0.06,-0.04,-0.04
2020-08-12 19:53:02.1780,-0.04,-0.03,-0.01
2020-08-12 19:53:02.2780,0.04,-0.17,-0.01
2020-08-12 19:53:02.3770,0.32,-0.52,-0.04
2020-08-12 19:53:02.4760,0.09,0.19,-0.04
2020-08-12 19:53:02.5750,0.69,0.26,0.16
2020-08-12 19:53:02.6750,0.33,0.04,-0.11
2020-08-12 19:53:02.7740,0.01,-0.03,-0.01
2020-08-12 19:53:02.8730,0.03,0.03,-0.02
2020-08-12 19:53:02.9720,-0.21,-0.08,-0.12
2020-08-12 19:53:03.0720,-0.25,0.01,0.01
2020-08-12 19:53:03.1710,-0.08,0.02,0.03
2020-08-12 19:53:03.2700,-0.1,0.05,-0.08
2020-08-12 19:53:03.3700,-0.28,0.03,-0.31
2020-08-12 19:53:03.4690,0.27,-0.07,-1.11
2020-08-12 19:53:03.5680,-0.4,-0.0,0.06
2020-08-12 19:53:03.6680,-0.03,-0.04,0.02
2020-08-12 19:53:03.7670,0.06,-0.03,-0.06
2020-08-12 19:53:03.8660,0.06,-0.02,-0.02
2020-08-12 19:53:03.9650,-0.11,-0.07,-0.03
2020-08-12 19:53:04.0650,-0.04,-0.09,0.01
2020-08-12 19:53:04.1640,0.16,-0.47,0.02
2020-08-12 19:53:04.2630,0.19,-0.15,0.14
2020-08-12 19:53:04.3620,0.11,0.28,0.09
2020-08-12 19:53:04.4620,0.38,0.24,-0.1
2020-08-12 19:53:04.5610,0.04,0.02,-0.07
2020-08-12 19:53:04.6600,-0.03,-0.09,-0.05
2020-08-12 19:53:04.7590,-0.12,-0.07,-0.08
2020-08-12 19:53:04.8590,-0.16,-0.0,-0.02
2020-08-12 19:53:04.9580,-0.13,0.02,-0.03
2020-08-12 19:53:05.0570,-0.27,0.01,-0.05
2020-08-12 19:53:05.1560,-0.31,0.02,-0.18
2020-08-12 19:53:05.2560,-0.23,-0.48,-0.41
2020-08-12 19:53:05.3550,-0.47,0.01,0.12
2020-08-12 19:53:05.4540,-0.12,-0.0,0.04
2020-08-12 19:53:05.5540,-0.03,0.01,-0.03
2020-08-12 19:53:05.6530,-0.02,-0.01,-0.04
2020-08-12 19:53:05.7520,0.08,0.03,-0.03
2020-08-12 19:53:05.8510,0.12,-0.12,-0.05
2020-08-12 19:53:05.9510,0.17,-0.52,-0.02
2020-08-12 19:53:06.0500,0.13,-0.16,0.05
2020-08-12 19:53:06.1490,0.24,0.41,0.12
2020-08-12 19:53:06.2490,0.29,0.2,0.01
2020-08-12 19:53:06.3480,0.09,-0.02,-0.07
2020-08-12 19:53:06.4470,-0.01,-0.02,-0.02
2020-08-12 19:53:06.5460,-0.09,-0.04,-0.09
2020-08-12 19:53:06.6460,-0.13,-0.01,0.0
2020-08-12 19:53:06.7450,-0.11,-0.02,0.01
2020-08-12 19:53:06.8440,-0.21,-0.05,-0.1
2020-08-12 19:53:06.9430,-0.32,0.05,-0.15
2020-08-12 19:53:07.0430,-1.08,-0.26,0.11
2020-08-12 19:53:07.1420,0.38,-0.05,0.04
2020-08-12 19:53:07.2410,0.09,-0.05,-0.03
2020-08-12 19:53:07.3400,-0.03,0.0,-0.0
2020-08-12 19:53:07.4400,-0.01,-0.02,-0.02
2020-08-12 19:53:07.5390,-0.0,-0.04,-0.04
2020-08-12 19:53:07.6380,-0.0,-0.11,-0.06
2020-08-12 19:53:07.7380,0.08,-0.36,0.13
2020-08-12 19:53:07.8370,0.16,-0.15,-0.08
2020-08-12 19:53:07.9360,0.02,0.21,0.09
2020-08-12 19:53:08.0350,0.27,0.13,-0.06
2020-08-12 19:53:08.1350,0.08,0.05,-0.01
2020-08-12 19:53:08.2340,0.12,0.03,-0.02
2020-08-12 19:53:08.3330,0.07,-0.01,-0.14
2020-08-12 19:53:08.4330,-0.08,-0.03,-0.09
2020-08-12 19:53:08.5320,-0.09,-0.04,-0.01
2020-08-12 19:53:08.6310,-0.09,-0.04,0.02
2020-08-12 19:53:08.7300,-0.26,0.04,-0.1
2020-08-12 19:53:08.8300,-0.58,0.0,-0.46
2020-08-12 19:53:08.9290,-0.08,0.02,-0.08
2020-08-12 19:53:09.0280,0.21,-0.07,-0.12
2020-08-12 19:53:09.1270,0.05,0.02,0.01
2020-08-12 19:53:09.2270,0.06,-0.01,0.0
2020-08-12 19:53:09.3260,0.0,-0.06,-0.04
2020-08-12 19:53:09.4250,0.01,-0.16,-0.02
2020-08-12 19:53:09.5240,0.14,-0.49,0.03
2020-08-12 19:53:09.6240,0.1,-0.11,0.02
2020-08-12 19:53:09.7230,0.49,0.25,0.09
2020-08-12 19:53:09.8220,0.21,0.15,-0.07
2020-08-12 19:53:09.9220,0.0,0.03,-0.07
2020-08-12 19:53:10.0210,0.07,0.0,-0.09
2020-08-12 19:53:10.1200,-0.09,-0.0,-0.09
2020-08-12 19:53:10.2190,0.01,-0.02,-0.1
2020-08-12 19:53:10.3180,-0.09,-0.04,0.02
2020-08-12 19:53:10.4180,-0.27,-0.05,-0.0
2020-08-12 19:53:10.5170,-0.3,0.09,-0.35
2020-08-12 19:53:10.6160,0.14,-0.08,-0.72
2020-08-12 19:53:10.7150,-0.33,-0.04,0.05
2020-08-12 19:53:10.8150,0.01,-0.04,-0.01
2020-08-12 19:53:10.9140,0.04,-0.01,-0.04
2020-08-12 19:53:11.0130,0.02,-0.04,-0.03
2020-08-12 19:53:11.1130,-0.04,-0.04,-0.03
2020-08-12 19:53:11.2120,0.02,-0.14,0.01
2020-08-12 19:53:11.3110,0.23,-0.52,0.07
2020-08-12 19:53:11.4100,0.05,0.14,-0.09
2020-08-12 19:53:11.5100,0.37,0.23,-0.02
2020-08-12 19:53:11.6090,0.15,0.05,-0.02
2020-08-12 19:53:11.7080,-0.0,0.03,-0.02
2020-08-12 19:53:11.8080,0.06,0.0,-0.01
2020-08-12 19:53:11.9070,-0.04,-0.01,-0.07
2020-08-12 19:53:12.0060,-0.13,-0.04,-0.1
2020-08-12 19:53:12.1050,-0.08,0.04,-0.06
2020-08-12 19:53:12.2050,-0.13,-0.03,-0.06
2020-08-12 19:53:12.3040,-0.26,0.0,-0.08
2020-08-12 19:53:12.4030,-1.53,-0.29,-0.5
2020-08-12 19:53:12.5030,0.07,-0.06,0.07
2020-08-12 19:53:12.6020,0.04,-0.04,0.03
2020-08-12 19:53:12.7010,-0.04,0.03,-0.01
2020-08-12 19:53:12.8000,-0.01,-0.03,-0.06
2020-08-12 19:53:12.9000,0.03,-0.04,-0.02
2020-08-12 19:53:12.9990,0.02,-0.11,-0.01
2020-08-12 19:53:13.0980,0.17,-0.63,0.12
2020-08-12 19:53:13.1970,-0.07,0.06,0.08
2020-08-12 19:53:13.2970,0.5,0.35,-0.04
2020-08-12 19:53:13.3960,0.04,0.13,-0.08
2020-08-12 19:53:13.4950,-0.02,0.0,-0.04
2020-08-12 19:53:13.5940,0.02,0.02,-0.06
2020-08-12 19:53:13.6940,0.01,0.01,-0.07
2020-08-12 19:53:13.7930,-0.07,0.0,-0.08
2020-08-12 19:53:13.8920,-0.08,0.0,-0.06
2020-08-12 19:53:13.9920,0.0,0.04,0.02
2020-08-12 19:53:14.0910,0.03,0.0,-0.07
2020-08-12 19:53:14.1900,-0.17,-0.04,-0.04
2020-08-12 19:53:14.2890,-0.27,0.06,-0.18
2020-08-12 19:53:14.3890,-1.44,-0.54,0.29
2020-08-12 19:53:14.4880,0.08,0.06,0.03
2020-08-12 19:53:14.5870,0.08,0.01,0.0
2020-08-12 19:53:14.6860,-0.01,0.03,-0.02
2020-08-12 19:53:14.7860,0.01,-0.01,-0.06
2020-08-12 19:53:14.8850,0.06,-0.08,-0.02
2020-08-12 19:53:14.9840,0.03,-0.17,0.02
2020-08-12 19:53:15.0830,0.12,-0.36,-0.01
2020-08-12 19:53:15.1830,0.1,-0.05,0.08
2020-08-12 19:53:15.2820,0.4,0.29,0.1
2020-08-12 19:53:15.3810,0.26,0.12,-0.04
2020-08-12 19:53:15.4800,-0.03,-0.0,-0.01
2020-08-12 19:53:15.5800,0.0,0.01,-0.11
2020-08-12 19:53:15.6790,0.01,-0.04,-0.09
2020-08-12 19:53:15.7780,-0.03,-0.03,-0.13
2020-08-12 19:53:15.8780,-0.12,-0.04,-0.03
2020-08-12 19:53:15.9770,-0.17,-0.03,-0.07
2020-08-12 19:53:16.0760,-0.29,-0.01,-0.1
2020-08-12 19:53:16.1760,-0.15,0.03,-0.07
2020-08-12 19:53:16.2750,-0.25,0.05,-0.3
2020-08-12 19:53:16.3740,-0.19,0.16,-0.09
2020-08-12 19:53:16.4730,0.08,-0.04,-0.04
2020-08-12 19:53:16.5730,0.0,0.01,0.0
2020-08-12 19:53:16.6720,0.01,-0.03,-0.04
2020-08-12 19:53:16.7710,0.01,-0.03,0.0
2020-08-12 19:53:16.8710,-0.02,-0.04,-0.03
2020-08-12 19:53:16.9700,-0.02,-0.1,0.02
2020-08-12 19:53:17.0690,0.23,-0.43,0.08
2020-08-12 19:53:17.1680,-0.07,0.1,0.09
2020-08-12 19:53:17.2670,0.51,0.23,-0.11
2020-08-12 19:53:17.3660,0.24,0.13,-0.02
2020-08-12 19:53:17.4660,0.14,-0.02,0.02
2020-08-12 19:53:17.5650,0.06,-0.03,-0.08
2020-08-12 19:53:17.6640,-0.03,-0.04,-0.04
2020-08-12 19:53:17.7640,-0.22,-0.08,-0.09
2020-08-12 19:53:17.8630,-0.26,-0.05,-0.18
2020-08-12 19:53:17.9620,-0.28,0.02,-0.06
2020-08-12 19:53:18.0620,-0.8,0.01,-0.11
2020-08-12 19:53:18.1610,0.2,0.05,-0.04
2020-08-12 19:53:18.2600,0.08,-0.1,-0.07
2020-08-12 19:53:18.3600,-0.05,0.05,-0.04
2020-08-12 19:53:18.4590,0.04,-0.03,-0.06
2020-08-12 19:53:18.5580,0.03,-0.01,-0.01
2020-08-12 19:53:18.6570,-0.03,-0.02,-0.03
2020-08-12 19:53:18.7570,-0.05,-0.05,0.01
2020-08-12 19:53:18.8560,0.04,-0.33,0.01
2020-08-12 19:53:18.9550,0.17,-0.25,0.09
2020-08-12 19:53:19.0540,0.01,0.23,-0.05
2020-08-12 19:53:19.1530,0.32,0.25,-0.05
2020-08-12 19:53:19.2530,0.14,-0.01,-0.05
2020-08-12 19:53:19.3520,0.03,0.06,-0.03
2020-08-12 19:53:19.4510,-0.04,-0.02,-0.07
2020-08-12 19:53:19.5510,-0.04,0.02,-0.04
2020-08-12 19:53:19.6500,-0.06,-0.01,-0.02
2020-08-12 19:53:19.7490,-0.14,-0.08,-0.08
2020-08-12 19:53:19.8480,-0.21,-0.02,-0.07
2020-08-12 19:53:19.9480,-0.41,0.1,-0.17
2020-08-12 19:53:20.0470,-0.36,-1.63,0.11
2020-08-12 19:53:20.1460,-0.28,-0.02,0.32
2020-08-12 19:53:20.2460,0.01,0.01,-0.02
2020-08-12 19:53:20.3450,0.05,-0.05,-0.09
2020-08-12 19:53:20.4440,0.03,-0.01,-0.03
2020-08-12 19:53:20.5430,-0.01,-0.03,-0.04
2020-08-12 19:53:20.6430,0.0,-0.1,0.02
2020-08-12 19:53:20.7420,0.15,-0.47,-0.04
2020-08-12 19:53:20.8410,0.1,-0.02,0.13
2020-08-12 19:53:20.9400,0.24,0.17,0.04
2020-08-12 19:53:21.0400,0.15,0.19,-0.05
2020-08-12 19:53:21.1390,0.14,0.1,-0.02
2020-08-12 19:53:21.2380,0.04,0.08,-0.06
2020-08-12 19:53:21.3370,-0.04,-0.02,-0.11
2020-08-12 19:53:21.4370,-0.12,-0.01,-0.02
2020-08-12 19:53:21.5360,-0.03,-0.03,-0.04
2020-08-12 19:53:21.6350,-0.2,-0.07,-0.06
2020-08-12 19:53:21.7340,-0.33,-0.01,-0.09
2020-08-12 19:53:21.8340,-0.37,0.07,-0.25
2020-08-12 19:53:21.9330,-0.07,-0.07,-0.22
2020-08-12 19:53:22.0320,-0.13,0.09,0.05
2020-08-12 19:53:22.1320,-0.05,-0.05,0.08
2020-08-12 19:53:22.2310,0.01,0.0,-0.04
2020-08-12 19:53:22.3300,-0.04,-0.02,-0.06
2020-08-12 19:53:22.4300,0.03,-0.02,-0.03
2020-08-12 19:53:22.5290,0.09,-0.06,-0.06
2020-08-12 19:53:22.6280,0.07,-0.06,-0.01
2020-08-12 19:53:22.7270,0.04,-0.31,0.05
2020-08-12 19:53:22.8260,0.25,-0.26,0.07
2020-08-12 19:53:22.9260,-0.09,0.15,0.04
2020-08-12 19:53:23.0250,0.37,0.2,-0.12
2020-08-12 19:53:23.1240,0.05,0.05,-0.02
2020-08-12 19:53:23.2240,0.11,0.09,-0.04
2020-08-12 19:53:23.3230,0.12,0.0,-0.05
2020-08-12 19:53:23.4220,0.07,0.05,0.05
2020-08-12 19:53:23.5210,-0.01,-0.07,-0.06
2020-08-12 19:53:23.6210,-0.3,-0.07,-0.0
2020-08-12 19:53:23.7200,-0.33,-0.02,-0.08
2020-08-12 19:53:23.8190,-0.39,-0.01,-0.34
2020-08-12 19:53:23.9180,-0.23,0.15,-0.36
2020-08-12 19:53:24.0180,-0.22,0.01,-0.01
2020-08-12 19:53:24.1170,-0.05,-0.01,0.02
2020-08-12 19:53:24.2160,-0.02,-0.0,-0.04
2020-08-12 19:53:24.3150,0.05,-0.02,0.0
2020-08-12 19:53:24.4150,0.01,-0.0,-0.04
2020-08-12 19:53:24.5140,-0.01,-0.04,-0.03
2020-08-12 19:53:24.6130,0.12,-0.33,0.08
2020-08-12 19:53:24.7130,0.2,-0.19,-0.13
2020-08-12 19:53:24.8120,-0.02,0.13,0.06
2020-08-12 19:53:24.9110,0.35,0.17,0.1
2020-08-12 19:53:25.0110,0.24,0.1,-0.02
2020-08-12 19:53:25.1100,0.03,0.07,0.01
2020-08-12 19:53:25.2090,-0.04,-0.05,-0.16
2020-08-12 19:53:25.3080,-0.12,0.04,-0.06
2020-08-12 19:53:25.4070,-0.1,-0.01,-0.12
2020-08-12 19:53:25.5070,-0.21,0.02,0.03
2020-08-12 19:53:25.6060,-0.22,0.05,-0.03
2020-08-12 19:53:25.7050,-0.29,0.13,-0.25
2020-08-12 19:53:25.8050,-0.05,0.09,-0.5
2020-08-12 19:53:25.9040,0.02,-0.01,-0.03
2020-08-12 19:53:26.0030,-0.01,0.03,-0.03
2020-08-12 19:53:26.1020,-0.04,0.02,-0.07
2020-08-12 19:53:26.2020,0.02,-0.06,-0.02
2020-08-12 19:53:26.3010,0.08,-0.07,-0.06
2020-08-12 19:53:26.4000,0.08,-0.39,0.07
2020-08-12 19:53:26.4990,0.14,-0.24,0.05
2020-08-12 19:53:26.5980,0.02,0.15,0.08
2020-08-12 19:53:26.6980,0.42,0.16,0.02
2020-08-12 19:53:26.7970,0.13,0.06,-0.06
2020-08-12 19:53:26.8970,0.03,0.01,-0.02
2020-08-12 19:53:26.9960,0.08,-0.01,-0.1
2020-08-12 19:53:27.0950,-0.03,-0.06,-0.07
2020-08-12 19:53:27.1950,-0.23,-0.05,-0.08
2020-08-12 19:53:27.2940,-0.28,0.0,-0.1
2020-08-12 19:53:27.3930,-0.49,0.02,-0.22
2020-08-12 19:53:27.4920,0.1,-0.37,-0.22
2020-08-12 19:53:27.5910,-0.03,0.04,-0.02
2020-08-12 19:53:27.6920,-0.07,-0.01,-0.01
2020-08-12 19:53:27.7900,0.0,-0.07,0.04
2020-08-12 19:53:27.8890,-0.06,0.02,-0.04
2020-08-12 19:53:27.9880,0.02,-0.0,-0.02
2020-08-12 19:53:28.0880,0.01,-0.03,-0.04
2020-08-12 19:53:28.1870,-0.08,-0.04,-0.08
2020-08-12 19:53:28.2860,0.04,-0.21,0.04
2020-08-12 19:53:28.3850,0.3,-0.41,-0.09
2020-08-12 19:53:28.4850,-0.02,0.09,0.11
2020-08-12 19:53:28.5840,0.5,0.21,0.03
2020-08-12 19:53:28.6830,0.26,0.02,0.01
2020-08-12 19:53:28.7830,0.04,0.04,0.01
2020-08-12 19:53:28.8820,-0.14,-0.0,-0.01
2020-08-12 19:53:28.9810,-0.14,-0.07,-0.06
2020-08-12 19:53:29.0800,-0.19,-0.03,-0.07
2020-08-12 19:53:29.1800,-0.23,-0.01,-0.06
2020-08-12 19:53:29.2790,-0.35,-0.02,-0.12
2020-08-12 19:53:29.3790,-0.91,-0.1,-0.37
2020-08-12 19:53:29.4780,-0.29,0.13,-0.04
2020-08-12 19:53:29.5770,-0.01,-0.08,0.02
2020-08-12 19:53:29.6760,0.03,-0.02,-0.05
2020-08-12 19:53:29.7750,-0.04,0.03,-0.06
2020-08-12 19:53:29.8740,-0.04,-0.03,-0.05
2020-08-12 19:53:29.9740,0.1,-0.0,-0.04
2020-08-12 19:53:30.0730,0.03,-0.16,-0.05
2020-08-12 19:53:30.1720,0.2,-0.48,0.05
2020-08-12 19:53:30.2720,0.09,0.07,0.14
2020-08-12 19:53:30.3710,0.5,0.26,0.02
2020-08-12 19:53:30.4700,0.3,0.1,-0.1
2020-08-12 19:53:30.5690,0.01,0.02,-0.03
2020-08-12 19:53:30.6690,-0.03,0.05,-0.03
2020-08-12 19:53:30.7680,-0.0,-0.0,-0.16
2020-08-12 19:53:30.8670,-0.14,0.01,-0.04
2020-08-12 19:53:30.9660,-0.18,-0.05,-0.09
2020-08-12 19:53:31.0660,-0.37,-0.02,-0.05
2020-08-12 19:53:31.1650,-0.47,-0.1,-0.3
2020-08-12 19:53:31.2640,0.66,-0.72,0.06
2020-08-12 19:53:31.3640,-0.03,0.01,0.15
2020-08-12 19:53:31.4630,-0.08,-0.05,0.04
2020-08-12 19:53:31.5620,-0.0,0.02,-0.05
2020-08-12 19:53:31.6610,-0.0,-0.02,-0.02
2020-08-12 19:53:31.7610,0.0,-0.02,-0.03
2020-08-12 19:53:31.8600,0.08,-0.03,-0.0
2020-08-12 19:53:31.9590,0.06,-0.33,0.03
2020-08-12 19:53:32.0580,0.23,-0.22,-0.08
2020-08-12 19:53:32.1580,0.16,-0.03,0.1
2020-08-12 19:53:32.2570,0.74,0.17,0.18
2020-08-12 19:53:32.3560,0.46,0.13,-0.01
2020-08-12 19:53:32.4560,-0.03,-0.04,-0.04
2020-08-12 19:53:32.5550,-0.2,-0.08,-0.08
2020-08-12 19:53:32.6540,-0.18,-0.1,-0.13
2020-08-12 19:53:32.7530,-0.38,-0.08,-0.1
2020-08-12 19:53:32.8530,-0.35,0.01,-0.07
2020-08-12 19:53:32.9520,-0.29,0.03,-0.14
2020-08-12 19:53:33.0510,0.2,-0.35,-0.02
2020-08-12 19:53:33.1510,0.06,-0.02,0.01
2020-08-12 19:53:33.2500,-0.03,-0.09,0.02
2020-08-12 19:53:33.3490,-0.01,0.02,-0.07
2020-08-12 19:53:33.4480,0.0,-0.02,-0.04
2020-08-12 19:53:33.5480,0.02,-0.07,-0.03
2020-08-12 19:53:33.6470,-0.06,-0.08,-0.04
2020-08-12 19:53:33.7460,0.04,-0.2,-0.01
2020-08-12 19:53:33.8450,0.2,-0.31,-0.07
2020-08-12 19:53:33.9450,0.05,0.15,0.07
2020-08-12 19:53:34.0440,0.58,0.14,0.03
2020-08-12 19:53:34.1430,0.33,0.1,0.01
2020-08-12 19:53:34.2420,0.13,-0.01,-0.01
2020-08-12 19:53:34.3420,-0.05,-0.12,-0.15
2020-08-12 19:53:34.4410,-0.17,-0.06,-0.07
2020-08-12 19:53:34.5400,-0.13,-0.06,-0.15
2020-08-12 19:53:34.6390,-0.41,-0.04,-0.08
2020-08-12 19:53:34.7390,-0.36,0.03,-0.11
2020-08-12 19:53:34.8380,-0.19,-0.27,-0.25
2020-08-12 19:53:34.9370,0.05,0.05,0.14
2020-08-12 19:53:35.0370,0.03,-0.04,-0.03
2020-08-12 19:53:35.1360,-0.04,0.02,-0.0
2020-08-12 19:53:35.2350,-0.04,0.03,-0.04
2020-08-12 19:53:35.3340,0.0,-0.0,-0.04
2020-08-12 19:53:35.4340,0.02,-0.04,-0.02
2020-08-12 19:53:35.5330,-0.0,-0.08,-0.01
2020-08-12 19:53:35.6320,0.07,-0.35,0.04
2020-08-12 19:53:35.7320,0.16,-0.33,0.11
2020-08-12 19:53:35.8310,-0.05,0.1,-0.0
2020-08-12 19:53:35.9300,0.58,0.17,-0.05
2020-08-12 19:53:36.0290,0.19,0.14,0.03
2020-08-12 19:53:36.1280,0.14,0.02,-0.01
2020-08-12 19:53:36.2280,0.02,-0.03,-0.02
2020-08-12 19:53:36.3270,-0.06,-0.06,-0.04
2020-08-12 19:53:36.4260,-0.12,-0.01,-0.09
2020-08-12 19:53:36.5260,-0.14,0.01,-0.08
2020-08-12 19:53:36.6250,-0.45,-0.04,-0.08
2020-08-12 19:53:36.7240,-0.97,-0.13,-0.41
2020-08-12 19:53:36.8230,0.07,0.06,-0.13
2020-08-12 19:53:36.9230,-0.02,-0.04,-0.11
2020-08-12 19:53:37.0220,0.02,-0.05,-0.03
2020-08-12 19:53:37.1210,-0.04,0.01,-0.03
2020-08-12 19:53:37.2210,0.01,-0.01,-0.02
2020-08-12 19:53:37.3200,0.01,0.02,-0.0
2020-08-12 19:53:37.4190,0.07,-0.03,-0.06
2020-08-12 19:53:37.5180,0.0,-0.05,-0.06
2020-08-12 19:53:37.6180,0.07,-0.07,0.02
2020-08-12 19:53:37.7170,0.13,-0.44,-0.03
2020-08-12 19:53:37.8160,0.03,0.02,0.16
2020-08-12 19:53:37.9160,0.33,0.14,-0.01
2020-08-12 19:53:38.0150,0.32,0.23,-0.0
2020-08-12 19:53:38.1140,0.18,0.03,0.01
2020-08-12 19:53:38.2130,0.06,-0.05,-0.05
2020-08-12 19:53:38.3120,0.01,-0.02,-0.01
2020-08-12 19:53:38.4120,-0.17,-0.12,-0.03
2020-08-12 19:53:38.5110,-0.35,-0.07,-0.03
2020-08-12 19:53:38.6100,-0.39,-0.02,-0.17
2020-08-12 19:53:38.7090,-0.68,-0.05,-0.53
2020-08-12 19:53:38.8090,-0.41,0.11,0.12
2020-08-12 19:53:38.9080,-0.19,-0.05,-0.09
2020-08-12 19:53:39.0070,-0.13,-0.02,0.05
2020-08-12 19:53:39.1060,-0.0,0.0,-0.03
2020-08-12 19:53:39.2060,0.02,-0.01,-0.05
2020-08-12 19:53:39.3050,0.08,-0.03,-0.02
2020-08-12 19:53:39.4040,-0.0,-0.14,-0.03
2020-08-12 19:53:39.5040,0.08,-0.43,0.07
2020-08-12 19:53:39.6030,0.2,-0.15,0.05
2020-08-12 19:53:39.7020,0.19,0.27,0.17
2020-08-12 19:53:39.8020,0.36,0.19,-0.01
2020-08-12 19:53:39.9010,0.2,-0.02,-0.02
2020-08-12 19:53:40.0000,0.07,-0.07,-0.05
2020-08-12 19:53:40.0990,-0.02,-0.09,-0.14
2020-08-12 19:53:40.1990,-0.27,-0.15,-0.1
2020-08-12 19:53:40.2980,-0.56,-0.05,-0.15
2020-08-12 19:53:40.3970,-0.48,0.11,-0.24
2020-08-12 19:53:40.4960,-0.6,0.26,-0.31
2020-08-12 19:53:40.5960,-0.73,-0.01,0.22
2020-08-12 19:53:40.6950,-0.17,-0.02,0.01
2020-08-12 19:53:40.7940,-0.02,-0.01,-0.07
2020-08-12 19:53:40.8930,0.03,-0.02,-0.04
2020-08-12 19:53:40.9930,0.06,-0.0,-0.03
2020-08-12 19:53:41.0920,0.02,-0.03,-0.01
2020-08-12 19:53:41.1910,-0.0,-0.09,-0.03
2020-08-12 19:53:41.2910,0.11,-0.42,0.03
2020-08-12 19:53:41.3900,0.19,-0.08,0.09
2020-08-12 19:53:41.4890,0.29,0.33,0.19
2020-08-12 19:53:41.5880,0.28,0.16,-0.05
2020-08-12 19:53:41.6880,-0.06,-0.0,-0.09
2020-08-12 19:53:41.7870,-0.02,-0.02,-0.06
2020-08-12 19:53:41.8860,0.02,-0.01,-0.05
2020-08-12 19:53:41.9850,0.09,0.02,-0.03
2020-08-12 19:53:42.0850,-0.04,-0.06,-0.0
2020-08-12 19:53:42.1840,-0.27,-0.03,-0.04
2020-08-12 19:53:42.2830,-0.46,-0.01,-0.1
2020-08-12 19:53:42.3830,-0.73,-0.09,-0.04
2020-08-12 19:53:42.4820,0.3,-0.09,0.02
2020-08-12 19:53:42.5810,0.09,-0.04,-0.0
2020-08-12 19:53:42.6800,-0.0,0.01,-0.02
2020-08-12 19:53:42.7800,0.02,-0.01,-0.03
2020-08-12 19:53:42.8790,0.04,-0.02,-0.03
2020-08-12 19:53:42.9780,0.04,-0.08,-0.0
2020-08-12 19:53:43.0770,0.1,-0.22,-0.04
2020-08-12 19:53:43.1760,0.24,-0.31,0.01
2020-08-12 19:53:43.2760,0.06,0.11,0.0
2020-08-12 19:53:43.3750,0.74,0.21,0.06
2020-08-12 19:53:43.4750,0.32,0.09,-0.03
2020-08-12 19:53:43.5740,0.01,-0.01,-0.0
2020-08-12 19:53:43.6730,-0.07,-0.06,-0.08
2020-08-12 19:53:43.7720,-0.15,-0.06,-0.06
2020-08-12 19:53:43.8720,-0.29,-0.03,-0.07
2020-08-12 19:53:43.9710,-0.32,-0.01,-0.02
2020-08-12 19:53:44.0700,-0.38,0.02,-0.15
2020-08-12 19:53:44.1690,-0.23,-0.42,0.02
2020-08-12 19:53:44.2690,0.13,-0.04,0.08
2020-08-12 19:53:44.3680,-0.02,-0.0,-0.02
2020-08-12 19:53:44.4670,-0.02,-0.0,-0.06
2020-08-12 19:53:44.5660,0.08,-0.01,-0.0
2020-08-12 19:53:44.6660,-0.02,-0.07,-0.05
2020-08-12 19:53:44.7650,-0.04,-0.11,-0.06
2020-08-12 19:53:44.8640,0.11,-0.38,0.07
2020-08-12 19:53:44.9630,0.17,-0.22,-0.05
2020-08-12 19:53:45.0630,0.02,0.31,0.22
2020-08-12 19:53:45.1620,0.38,0.19,-0.0
2020-08-12 19:53:45.2610,0.14,-0.0,-0.08
2020-08-12 19:53:45.3600,0.02,-0.0,-0.09
2020-08-12 19:53:45.4600,-0.09,-0.05,-0.1
2020-08-12 19:53:45.5590,-0.26,-0.12,-0.07
2020-08-12 19:53:45.6580,-0.42,-0.05,-0.18
2020-08-12 19:53:45.7580,-0.48,0.08,-0.18
2020-08-12 19:53:45.8570,-0.22,0.05,-0.52
2020-08-12 19:53:45.9560,-0.58,0.03,0.21
2020-08-12 19:53:46.0550,-0.09,-0.03,-0.01
2020-08-12 19:53:46.1550,-0.0,-0.02,-0.05
2020-08-12 19:53:46.2540,-0.04,-0.02,-0.03
2020-08-12 19:53:46.3530,-0.02,0.01,-0.07
2020-08-12 19:53:46.4530,0.03,-0.08,-0.08
2020-08-12 19:53:46.5520,0.08,-0.3,-0.01
2020-08-12 19:53:46.6510,0.05,-0.21,-0.1
2020-08-12 19:53:46.7500,0.14,0.01,0.18
2020-08-12 19:53:46.8490,0.31,0.19,0.14
2020-08-12 19:53:46.9490,0.37,0.13,-0.07
2020-08-12 19:53:47.0480,0.1,0.04,0.0
2020-08-12 19:53:47.1470,0.07,-0.07,-0.02
2020-08-12 19:53:47.2470,-0.02,-0.03,-0.03
2020-08-12 19:53:47.3460,-0.09,-0.08,-0.04
2020-08-12 19:53:47.4450,-0.24,-0.08,-0.07
2020-08-12 19:53:47.5440,-0.5,-0.01,-0.12
2020-08-12 19:53:47.6440,-0.43,0.02,-0.34
2020-08-12 19:53:47.7430,0.19,-0.12,-0.0
2020-08-12 19:53:47.8420,0.29,-0.04,-0.06
2020-08-12 19:53:47.9420,-0.08,0.03,0.03
2020-08-12 19:53:48.0410,0.03,-0.01,-0.02
2020-08-12 19:53:48.1400,0.0,-0.04,-0.01
2020-08-12 19:53:48.2390,-0.05,-0.03,-0.09
2020-08-12 19:53:48.3380,0.01,-0.11,-0.03
2020-08-12 19:53:48.4380,0.15,-0.48,0.09
2020-08-12 19:53:48.5370,0.13,-0.05,0.04
2020-08-12 19:53:48.6370,0.72,0.25,0.1
2020-08-12 19:53:48.7360,0.26,0.1,-0.03
2020-08-12 19:53:48.8350,-0.1,-0.02,-0.04
2020-08-12 19:53:48.9340,-0.04,-0.04,-0.14
2020-08-12 19:53:49.0330,-0.01,-0.0,-0.08
2020-08-12 19:53:49.1330,-0.06,-0.04,-0.11
2020-08-12 19:53:49.2320,-0.26,-0.05,0.03
2020-08-12 19:53:49.3310,-0.4,-0.03,0.02
2020-08-12 19:53:49.4300,-0.27,0.04,-0.27
2020-08-12 19:53:49.5300,0.48,-0.71,0.06
2020-08-12 19:53:49.6290,-0.26,-0.05,0.17
2020-08-12 19:53:49.7290,-0.06,-0.03,-0.02
2020-08-12 19:53:49.8280,0.01,-0.0,-0.07
2020-08-12 19:53:49.9270,-0.02,-0.02,-0.04
2020-08-12 19:53:50.0260,-0.04,-0.06,0.01
2020-08-12 19:53:50.1250,-0.02,-0.13,-0.03
2020-08-12 19:53:50.2250,0.06,-0.22,0.01
2020-08-12 19:53:50.3240,0.12,-0.34,-0.03
2020-08-12 19:53:50.4230,0.02,0.05,0.17
2020-08-12 19:53:50.5230,0.6,0.31,-0.04
2020-08-12 19:53:50.6220,0.26,0.11,-0.03
2020-08-12 19:53:50.7210,0.01,-0.01,-0.03
2020-08-12 19:53:50.8200,-0.05,-0.07,-0.11
2020-08-12 19:53:50.9200,-0.08,-0.03,-0.03
2020-08-12 19:53:51.0190,-0.38,-0.13,-0.13
2020-08-12 19:53:51.1180,-0.41,-0.08,-0.11
2020-08-12 19:53:51.2170,-0.4,0.05,-0.24
2020-08-12 19:53:51.3170,-0.18,-0.05,-0.42
2020-08-12 19:53:51.4160,-0.28,-0.05,0.02
2020-08-12 19:53:51.5150,-0.04,-0.01,-0.05
2020-08-12 19:53:51.6140,0.02,0.0,-0.08
2020-08-12 19:53:51.7140,0.04,-0.0,-0.02
2020-08-12 19:53:51.8130,-0.02,-0.02,-0.05
2020-08-12 19:53:51.9120,0.02,-0.11,-0.03
2020-08-12 19:53:52.0120,0.05,-0.36,0.1
2020-08-12 19:53:52.1110,0.2,-0.22,0.0
2020-08-12 19:53:52.2100,0.07,0.28,0.11
2020-08-12 19:53:52.3090,0.29,0.16,-0.15
2020-08-12 19:53:52.4090,0.2,-0.0,-0.04
2020-08-12 19:53:52.5080,0.19,0.0,0.0
2020-08-12 19:53:52.6070,0.07,-0.03,-0.01
2020-08-12 19:53:52.7060,-0.01,-0.05,-0.01
2020-08-12 19:53:52.8060,-0.31,-0.1,0.0
2020-08-12 19:53:52.9050,-0.57,-0.03,-0.01
2020-08-12 19:53:53.0040,-0.47,0.03,-0.26
2020-08-12 19:53:53.1030,0.18,-0.52,-0.28
2020-08-12 19:53:53.2030,-0.35,-0.05,0.13
2020-08-12 19:53:53.3030,-0.03,-0.04,-0.02
2020-08-12 19:53:53.4010,-0.01,-0.01,-0.07
2020-08-12 19:53:53.5010,0.04,-0.02,-0.01
2020-08-12 19:53:53.6000,-0.02,-0.01,-0.05
2020-08-12 19:53:53.6990,0.04,-0.09,-0.03
2020-08-12 19:53:53.7980,0.14,-0.38,0.09
2020-08-12 19:53:53.8980,0.16,-0.12,-0.02
2020-08-12 19:53:53.9970,0.13,0.04,0.06
2020-08-12 19:53:54.0960,0.65,0.33,-0.02
2020-08-12 19:53:54.1950,0.3,0.07,-0.03
2020-08-12 19:53:54.2950,-0.06,-0.18,-0.07
2020-08-12 19:53:54.3940,-0.21,-0.13,-0.1
2020-08-12 19:53:54.4930,-0.31,-0.05,-0.04
2020-08-12 19:53:54.5930,-0.37,-0.05,-0.12
2020-08-12 19:53:54.6920,-0.44,0.01,-0.17
2020-08-12 19:53:54.7910,0.12,-0.28,-0.18
2020-08-12 19:53:54.8910,0.19,-0.04,0.08
2020-08-12 19:53:54.9900,0.12,-0.06,0.03
2020-08-12 19:53:55.0890,-0.05,0.03,-0.04
2020-08-12 19:53:55.1880,0.01,-0.02,-0.04
2020-08-12 19:53:55.2870,-0.04,-0.03,-0.07
2020-08-12 19:53:55.3870,0.01,-0.06,-0.04
2020-08-12 19:53:55.4860,0.03,-0.18,-0.0
2020-08-12 19:53:55.5850,0.25,-0.34,-0.03
2020-08-12 19:53:55.6840,0.01,0.12,0.04
2020-08-12 19:53:55.7840,0.47,0.19,-0.02
2020-08-12 19:53:55.8830,0.22,0.12,0.03
2020-08-12 19:53:55.9820,0.13,0.02,-0.04
2020-08-12 19:53:56.0810,-0.03,-0.09,-0.14
2020-08-12 19:53:56.1810,-0.04,-0.02,-0.08
2020-08-12 19:53:56.2800,-0.14,-0.07,-0.13
2020-08-12 19:53:56.3800,-0.33,-0.07,-0.03
2020-08-12 19:53:56.4790,-0.39,0.01,-0.09
2020-08-12 19:53:56.5780,-0.77,-0.01,-0.39
2020-08-12 19:53:56.6770,0.22,-0.11,0.01
2020-08-12 19:53:56.7770,0.16,-0.04,0.0
2020-08-12 19:53:56.8760,-0.04,0.05,-0.02
2020-08-12 19:53:56.9750,-0.0,-0.05,-0.04
2020-08-12 19:53:57.0740,0.04,-0.02,-0.02
2020-08-12 19:53:57.1740,-0.0,-0.01,-0.07
2020-08-12 19:53:57.2730,-0.01,-0.12,-0.0
2020-08-12 19:53:57.3720,0.18,-0.51,0.02
2020-08-12 19:53:57.4710,0.25,-0.06,0.08
2020-08-12 19:53:57.5710,0.06,0.41,0.28
2020-08-12 19:53:57.6700,0.38,0.18,-0.09
2020-08-12 19:53:57.7690,-0.05,-0.03,-0.04
2020-08-12 19:53:57.8680,-0.07,0.0,-0.08
2020-08-12 19:53:57.9680,-0.12,-0.01,-0.08
2020-08-12 19:53:58.0670,-0.17,-0.02,-0.09
2020-08-12 19:53:58.1660,-0.23,-0.04,-0.08
2020-08-12 19:53:58.2650,-0.27,0.0,-0.12
2020-08-12 19:53:58.3650,-0.49,0.06,-0.2
2020-08-12 19:53:58.4640,-0.22,0.17,-0.13
2020-08-12 19:53:58.5630,0.05,-0.04,-0.0
2020-08-12 19:53:58.6630,0.02,-0.0,-0.0
2020-08-12 19:53:58.7620,0.01,-0.02,-0.05
2020-08-12 19:53:58.8610,-0.0,-0.03,-0.02
2020-08-12 19:53:58.9600,-0.06,-0.07,-0.07
2020-08-12 19:53:59.0600,0.05,-0.22,0.03
2020-08-12 19:53:59.1590,0.18,-0.48,0.01
2020-08-12 19:53:59.2580,0.13,-0.07,0.1
2020-08-12 19:53:59.3580,0.53,0.25,0.09
2020-08-12 19:53:59.4570,0.35,0.16,-0.09
2020-08-12 19:53:59.5560,0.02,0.01,-0.06
2020-08-12 19:53:59.6550,-0.15,-0.06,-0.08
2020-08-12 19:53:59.7540,-0.07,-0.02,-0.06
2020-08-12 19:53:59.8540,-0.09,-0.08,-0.09
2020-08-12 19:53:59.9530,-0.15,-0.0,-0.08
2020-08-12 19:54:00.0520,-0.28,0.01,-0.05
2020-08-12 19:54:00.1520,-0.36,0.07,-0.12
2020-08-12 19:54:00.2510,0.34,-0.61,0.02
2020-08-12 19:54:00.3500,-0.26,-0.04,0.15
2020-08-12 19:54:00.4490,-0.01,-0.02,-0.06
2020-08-12 19:54:00.5490,0.02,0.01,-0.07
2020-08-12 19:54:00.6480,0.01,-0.01,-0.04
2020-08-12 19:54:00.7470,0.04,-0.06,-0.05
2020-08-12 19:54:00.8460,0.04,-0.13,0.02
2020-08-12 19:54:00.9460,0.13,-0.36,0.05
2020-08-12 19:54:01.0450,0.15,-0.17,0.06
2020-08-12 19:54:01.1440,-0.08,0.23,0.09
2020-08-12 19:54:01.2440,0.43,0.2,-0.04
2020-08-12 19:54:01.3430,0.02,0.04,-0.02
2020-08-12 19:54:01.4420,-0.07,-0.04,-0.12
2020-08-12 19:54:01.5410,-0.12,-0.01,-0.07
2020-08-12 19:54:01.6410,-0.07,-0.02,-0.11
2020-08-12 19:54:01.7400,-0.11,-0.0,-0.06
2020-08-12 19:54:01.8390,-0.22,-0.02,-0.06
2020-08-12 19:54:01.9380,-0.3,0.02,-0.06
2020-08-12 19:54:02.0380,-0.38,-0.13,-0.04
2020-08-12 19:54:02.1370,0.18,-0.15,-0.01
2020-08-12 19:54:02.2360,0.07,-0.01,0.06
2020-08-12 19:54:02.3350,-0.08,0.03,-0.03
2020-08-12 19:54:02.4350,0.02,-0.03,-0.04
2020-08-12 19:54:02.5340,0.05,-0.04,-0.03
2020-08-12 19:54:02.6330,0.05,-0.11,-0.0
2020-08-12 19:54:02.7330,0.1,-0.49,-0.02
2020-08-12 19:54:02.8320,0.04,-0.11,0.12
2020-08-12 19:54:02.9310,0.17,0.33,0.11
2020-08-12 19:54:03.0310,0.32,0.2,-0.05
2020-08-12 19:54:03.1300,0.09,-0.03,-0.01
2020-08-12 19:54:03.2290,-0.07,0.01,-0.02
2020-08-12 19:54:03.3280,-0.01,-0.01,-0.11
2020-08-12 19:54:03.4280,-0.25,-0.09,-0.15
2020-08-12 19:54:03.5270,-0.22,-0.07,-0.16
2020-08-12 19:54:03.6260,-0.25,0.01,-0.08
2020-08-12 19:54:03.7260,-0.33,0.12,-0.09
2020-08-12 19:54:03.8250,-0.22,-0.82,-0.36
2020-08-12 19:54:03.9240,-0.41,-0.06,0.18
2020-08-12 19:54:04.0230,-0.04,0.01,-0.04
2020-08-12 19:54:04.1220,0.02,-0.0,-0.07
2020-08-12 19:54:04.2220,0.02,-0.02,-0.03
2020-08-12 19:54:04.3210,0.09,0.02,-0.06
2020-08-12 19:54:04.4200,0.02,-0.08,0.01
2020-08-12 19:54:04.5190,0.11,-0.34,-0.0
2020-08-12 19:54:04.6190,0.19,-0.16,0.02
2020-08-12 19:54:04.7180,0.01,0.09,0.08
2020-08-12 19:54:04.8170,0.53,0.24,-0.03
2020-08-12 19:54:04.9170,0.15,0.07,-0.12
2020-08-12 19:54:05.0160,-0.06,0.0,-0.1
2020-08-12 19:54:05.1150,-0.0,0.02,-0.03
2020-08-12 19:54:05.2140,-0.15,0.0,-0.05
2020-08-12 19:54:05.3140,-0.04,0.01,-0.12
2020-08-12 19:54:05.4130,-0.04,-0.02,-0.0
2020-08-12 19:54:05.5120,-0.24,0.0,0.03
2020-08-12 19:54:05.6120,-0.28,0.06,-0.15
2020-08-12 19:54:05.7110,0.26,-0.43,0.14
2020-08-12 19:54:05.8100,-0.15,-0.07,0.08
2020-08-12 19:54:05.9090,-0.02,-0.02,-0.04
2020-08-12 19:54:06.0080,-0.03,-0.02,-0.07
2020-08-12 19:54:06.1080,0.05,-0.05,-0.05
2020-08-12 19:54:06.2070,-0.0,-0.06,-0.03
2020-08-12 19:54:06.3060,-0.02,-0.17,-0.0
2020-08-12 19:54:06.4060,0.21,-0.3,-0.08
2020-08-12 19:54:06.5050,0.15,-0.03,0.19
2020-08-12 19:54:06.6040,0.22,0.22,0.08
2020-08-12 19:54:06.7030,0.23,0.14,-0.05
2020-08-12 19:54:06.8030,0.09,0.04,-0.03
2020-08-12 19:54:06.9020,-0.04,0.04,-0.06
2020-08-12 19:54:07.0010,-0.07,-0.02,-0.12
2020-08-12 19:54:07.1010,0.04,-0.02,-0.13
2020-08-12 19:54:07.2000,-0.04,-0.01,-0.07
2020-08-12 19:54:07.2990,-0.26,-0.05,0.07
2020-08-12 19:54:07.3980,-0.27,0.02,-0.07
2020-08-12 19:54:07.4980,-0.34,-0.01,-0.44
2020-08-12 19:54:07.5970,0.03,0.01,0.08
2020-08-12 19:54:07.6960,0.17,-0.1,-0.03
2020-08-12 19:54:07.7960,-0.05,0.02,0.02
2020-08-12 19:54:07.8950,0.0,-0.02,-0.03
2020-08-12 19:54:07.9940,-0.01,-0.01,-0.07
2020-08-12 19:54:08.0930,0.03,-0.06,-0.03
2020-08-12 19:54:08.1930,0.07,-0.33,0.01
2020-08-12 19:54:08.2920,0.14,-0.22,-0.05
2020-08-12 19:54:08.3910,0.13,-0.02,0.19
2020-08-12 19:54:08.4900,0.58,0.23,0.04
2020-08-12 19:54:08.5890,0.24,0.1,-0.04
2020-08-12 19:54:08.6890,0.07,-0.03,-0.12
2020-08-12 19:54:08.7880,-0.13,-0.05,-0.06
2020-08-12 19:54:08.8870,-0.06,-0.02,-0.09
2020-08-12 19:54:08.9860,-0.08,-0.02,-0.12
2020-08-12 19:54:09.0860,-0.25,-0.01,-0.04
2020-08-12 19:54:09.1850,-0.32,-0.01,-0.09
2020-08-12 19:54:09.2850,-0.28,0.07,-0.1
2020-08-12 19:54:09.3840,-0.43,-1.18,-0.07
2020-08-12 19:54:09.4830,-0.09,0.02,0.24
2020-08-12 19:54:09.5820,-0.0,-0.01,-0.04
2020-08-12 19:54:09.6820,-0.02,0.01,-0.06
2020-08-12 19:54:09.7810,0.03,-0.04,-0.05
2020-08-12 19:54:09.8800,-0.0,-0.0,-0.04
2020-08-12 19:54:09.9790,-0.0,-0.05,-0.01
2020-08-12 19:54:10.0790,0.02,-0.13,0.07
2020-08-12 19:54:10.1780,0.22,-0.31,-0.19
2020-08-12 19:54:10.2770,-0.02,0.07,0.09
2020-08-12 19:54:10.3760,0.49,0.18,0.06
2020-08-12 19:54:10.4760,0.34,0.19,-0.01
2020-08-12 19:54:10.5750,0.02,0.01,0.01
2020-08-12 19:54:10.6740,-0.09,-0.03,-0.11
2020-08-12 19:54:10.7730,-0.26,-0.03,-0.15
2020-08-12 19:54:10.8730,-0.21,-0.0,-0.09
2020-08-12 19:54:10.9720,-0.14,0.02,-0.09
2020-08-12 19:54:11.0720,-0.62,-0.09,-0.18
2020-08-12 19:54:11.1710,-0.16,0.14,-0.53
2020-08-12 19:54:11.2700,0.06,-0.02,-0.08
2020-08-12 19:54:11.3690,0.02,0.06,-0.08
2020-08-12 19:54:11.4680,0.06,-0.0,-0.06
2020-08-12 19:54:11.5680,-0.02,0.01,-0.02
2020-08-12 19:54:11.6670,-0.05,0.04,-0.04
2020-08-12 19:54:11.7660,-0.05,-0.03,-0.07
2020-08-12 19:54:11.8660,-0.03,-0.01,-0.01
2020-08-12 19:54:11.9650,-0.01,-0.01,-0.05
2020-08-12 19:54:12.0640,0.0,-0.0,-0.03
2020-08-12 19:54:12.1630,-0.01,0.01,-0.04
2020-08-12 19:54:12.2620,0.01,-0.01,-0.03
2020-08-12 19:54:12.3620,-0.0,-0.0,-0.03
2020-08-12 19:54:12.4610,-0.0,-0.01,-0.01
2020-08-12 19:54:12.5600,-0.02,-0.0,-0.02
2020-08-12 19:54:12.6590,-0.02,0.01,-0.01
2020-08-12 19:54:12.7590,0.0,-0.01,-0.02
2020-08-12 19:54:12.8580,-0.0,-0.01,-0.01
2020-08-12 19:54:12.9570,0.0,-0.02,-0.0
2020-08-12 19:54:13.0570,-0.03,-0.01,-0.01
2020-08-12 19:54:13.1560,0.01,0.0,-0.0
2020-08-12 19:54:13.2550,0.03,-0.0,-0.02
2020-08-12 19:54:13.3550,-0.01,0.02,-0.0
2020-08-12 19:54:13.4540,-0.01,-0.0,-0.0
2020-08-12 19:54:13.5530,-0.01,0.01,-0.0
2020-08-12 19:54:13.6520,0.01,-0.01,-0.01
2020-08-12 19:54:13.7520,0.04,-0.03,0.03
2020-08-12 19:54:13.8510,-0.01,-0.01,-0.04
2020-08-12 19:54:13.9500,-0.02,-0.06,0.05
