time,ax,ay,az
2020-08-10 16:3:36.5320,-0.01,0.01,0.06
2020-08-10 16:3:36.6060,-0.01,0.04,0.0
2020-08-10 16:3:36.6960,-0.01,0.05,-0.01
2020-08-10 16:3:36.8000,-0.03,0.09,0.01
2020-08-10 16:3:36.8900,-0.04,0.05,-0.02
2020-08-10 16:3:36.9730,-0.02,0.05,-0.01
2020-08-10 16:3:37.0720,-0.01,0.0,0.0
2020-08-10 16:3:37.1720,0.01,0.06,0.01
2020-08-10 16:3:37.2720,0.02,0.02,-0.01
2020-08-10 16:3:37.3260,0.02,0.01,0.01
2020-08-10 16:3:37.4170,-0.0,0.03,-0.01
2020-08-10 16:3:37.5090,0.04,0.03,0.0
2020-08-10 16:3:37.6090,-0.01,0.05,0.01
2020-08-10 16:3:37.6990,-0.04,0.0,0.02
2020-08-10 16:3:37.7890,0.01,0.0,0.02
2020-08-10 16:3:37.8830,0.01,0.01,-0.0
2020-08-10 16:3:37.9770,0.01,0.02,0.02
2020-08-10 16:3:38.0640,-0.05,0.02,-0.01
2020-08-10 16:3:38.1630,-0.02,0.06,-0.0
2020-08-10 16:3:38.2620,0.01,0.04,-0.01
2020-08-10 16:3:38.3610,-0.01,0.02,-0.01
2020-08-10 16:3:38.4190,-0.02,0.02,0.02
2020-08-10 16:3:38.5090,-0.01,0.01,-0.0
2020-08-10 16:3:38.5990,-0.01,0.01,0.0
2020-08-10 16:3:38.6890,0.02,0.01,-0.01
2020-08-10 16:3:38.7800,0.01,0.04,-0.02
2020-08-10 16:3:38.8690,0.01,0.03,-0.0
2020-08-10 16:3:38.9700,0.0,0.05,-0.01
2020-08-10 16:3:39.0550,-0.0,0.05,-0.04
2020-08-10 16:3:39.1550,-0.03,0.05,0.06
2020-08-10 16:3:39.2560,-0.05,-0.02,0.01
2020-08-10 16:3:39.3530,0.04,0.0,0.05
2020-08-10 16:3:39.4520,-0.04,0.07,0.03
2020-08-10 16:3:39.5050,-0.01,0.02,-0.03
2020-08-10 16:3:39.5940,-0.0,0.0,0.01
2020-08-10 16:3:39.6930,-0.01,-0.01,-0.02
2020-08-10 16:3:39.7790,-0.01,-0.02,0.01
2020-08-10 16:3:39.8620,0.07,-0.17,-0.05
2020-08-10 16:3:39.9610,0.29,-0.38,0.07
2020-08-10 16:3:40.0500,0.64,-0.24,0.31
2020-08-10 16:3:40.1540,0.25,-0.05,0.2
2020-08-10 16:3:40.2460,0.64,0.22,0.08
2020-08-10 16:3:40.3450,0.44,0.13,-0.1
2020-08-10 16:3:40.4060,0.13,-0.21,-0.08
2020-08-10 16:3:40.4960,-0.3,-0.38,0.05
2020-08-10 16:3:40.5950,-0.72,-0.29,0.07
2020-08-10 16:3:40.6830,-1.07,-0.09,0.06
2020-08-10 16:3:40.7730,-0.38,-0.11,0.03
2020-08-10 16:3:40.8620,-0.46,-0.36,-0.26
2020-08-10 16:3:40.9590,-0.07,0.08,0.2
2020-08-10 16:3:41.0460,0.04,0.04,0.01
2020-08-10 16:3:41.1410,-0.36,-0.16,-0.14
2020-08-10 16:3:41.2340,-0.13,0.01,0.02
2020-08-10 16:3:41.3350,-0.01,0.05,-0.0
2020-08-10 16:3:41.4060,0.01,0.03,0.04
2020-08-10 16:3:41.4950,0.0,-0.01,-0.02
2020-08-10 16:3:41.5850,-0.01,-0.04,-0.04
2020-08-10 16:3:41.6760,0.13,-0.29,-0.04
2020-08-10 16:3:41.7700,0.25,-0.39,0.06
2020-08-10 16:3:41.8560,0.54,-0.37,0.19
2020-08-10 16:3:41.9500,0.25,0.03,0.14
2020-08-10 16:3:42.0510,0.7,0.27,-0.04
2020-08-10 16:3:42.1300,0.42,0.01,-0.14
2020-08-10 16:3:42.2270,0.06,-0.32,0.03
2020-08-10 16:3:42.3270,-0.47,-0.38,0.14
2020-08-10 16:3:42.4360,-0.86,-0.2,-0.07
2020-08-10 16:3:42.5250,-1.08,-0.04,0.07
2020-08-10 16:3:42.5790,-0.07,-0.59,-0.0
2020-08-10 16:3:42.6750,-0.03,0.04,0.61
2020-08-10 16:3:42.7590,0.22,-0.01,-0.16
2020-08-10 16:3:42.8460,0.03,0.06,0.02
2020-08-10 16:3:42.9390,-0.08,0.03,0.0
2020-08-10 16:3:43.0260,-0.08,-0.01,-0.03
2020-08-10 16:3:43.1310,-0.01,0.04,0.04
2020-08-10 16:3:43.2200,-0.02,0.01,-0.07
2020-08-10 16:3:43.3170,0.02,-0.02,-0.0
2020-08-10 16:3:43.4150,0.13,-0.11,0.04
2020-08-10 16:3:43.5140,0.22,-0.38,-0.09
2020-08-10 16:3:43.5760,0.4,-0.46,0.25
2020-08-10 16:3:43.6660,0.15,0.0,0.03
2020-08-10 16:3:43.7600,0.66,0.38,-0.22
2020-08-10 16:3:43.8500,0.57,0.21,-0.1
2020-08-10 16:3:43.9400,0.18,-0.28,-0.08
2020-08-10 16:3:44.0320,-0.23,-0.42,0.02
2020-08-10 16:3:44.1210,-0.56,-0.38,0.16
2020-08-10 16:3:44.2120,-1.05,-0.13,0.08
2020-08-10 16:3:44.3120,-0.41,-0.14,0.08
2020-08-10 16:3:44.4040,-0.27,-0.4,-0.21
2020-08-10 16:3:44.5030,-0.0,0.09,0.26
2020-08-10 16:3:44.6020,-0.1,0.04,0.02
2020-08-10 16:3:44.6760,-0.11,0.02,-0.01
2020-08-10 16:3:44.7560,-0.09,0.06,0.02
2020-08-10 16:3:44.8450,-0.03,0.07,-0.01
2020-08-10 16:3:44.9440,0.0,-0.04,-0.04
2020-08-10 16:3:45.0330,0.05,-0.02,0.01
2020-08-10 16:3:45.1220,0.09,-0.11,-0.03
2020-08-10 16:3:45.2120,0.25,-0.28,-0.01
2020-08-10 16:3:45.3080,0.31,-0.33,0.1
2020-08-10 16:3:45.4040,0.32,-0.01,0.08
2020-08-10 16:3:45.4940,0.96,0.28,-0.09
2020-08-10 16:3:45.5940,0.57,0.25,-0.1
2020-08-10 16:3:45.6670,0.18,-0.22,-0.13
2020-08-10 16:3:45.7470,-0.2,-0.24,0.14
2020-08-10 16:3:45.8350,-0.38,-0.33,0.06
2020-08-10 16:3:45.9290,-0.84,-0.12,0.04
2020-08-10 16:3:46.0240,-1.01,-0.02,0.16
2020-08-10 16:3:46.1130,-0.37,-0.43,-0.2
2020-08-10 16:3:46.1960,-0.23,0.01,0.07
2020-08-10 16:3:46.2920,-0.12,0.01,-0.03
2020-08-10 16:3:46.3870,-0.04,-0.0,0.06
2020-08-10 16:3:46.4850,-0.07,0.01,0.02
2020-08-10 16:3:46.5840,-0.02,0.02,0.0
2020-08-10 16:3:46.6570,-0.03,0.03,0.02
2020-08-10 16:3:46.7380,-0.0,0.01,-0.06
2020-08-10 16:3:46.8360,0.03,-0.06,-0.01
2020-08-10 16:3:46.9190,0.12,-0.18,-0.02
2020-08-10 16:3:47.0050,0.25,-0.25,-0.02
2020-08-10 16:3:47.0990,0.54,-0.27,0.21
2020-08-10 16:3:47.1890,0.08,-0.04,0.14
2020-08-10 16:3:47.2860,0.74,0.31,-0.16
2020-08-10 16:3:47.3770,0.64,0.07,-0.13
2020-08-10 16:3:47.4760,0.09,-0.15,0.02
2020-08-10 16:3:47.5740,-0.2,-0.33,0.06
2020-08-10 16:3:47.6470,-0.62,-0.51,0.1
2020-08-10 16:3:47.7360,-1.06,-0.17,0.0
2020-08-10 16:3:47.8270,-1.16,-0.06,0.23
2020-08-10 16:3:47.9180,-0.17,-0.01,-0.07
2020-08-10 16:3:48.0220,-0.17,-0.09,-0.18
2020-08-10 16:3:48.1120,-0.02,0.07,0.1
2020-08-10 16:3:48.1880,-0.06,0.01,-0.0
2020-08-10 16:3:48.2920,-0.01,0.06,0.02
2020-08-10 16:3:48.3820,-0.03,0.0,0.0
2020-08-10 16:3:48.4650,-0.03,0.03,0.02
2020-08-10 16:3:48.5650,-0.0,0.03,0.0
2020-08-10 16:3:48.6640,-0.0,-0.05,0.01
2020-08-10 16:3:48.7630,0.11,-0.25,0.01
2020-08-10 16:3:48.8200,0.35,-0.34,0.04
2020-08-10 16:3:48.9140,0.48,-0.38,0.09
2020-08-10 16:3:49.0120,0.87,0.02,0.07
2020-08-10 16:3:49.0870,0.63,0.23,-0.11
2020-08-10 16:3:49.1920,0.32,-0.02,-0.12
2020-08-10 16:3:49.2820,-0.03,-0.34,0.02
2020-08-10 16:3:49.3730,-0.56,-0.47,0.15
2020-08-10 16:3:49.4560,-1.04,-0.24,0.04
2020-08-10 16:3:49.5560,-0.91,-0.17,0.07
2020-08-10 16:3:49.6640,-0.39,-0.53,-0.1
2020-08-10 16:3:49.7530,-0.23,0.01,0.23
2020-08-10 16:3:49.8110,-0.09,0.02,0.01
2020-08-10 16:3:49.9070,0.0,-0.01,0.04
2020-08-10 16:3:50.0020,-0.08,0.03,0.04
2020-08-10 16:3:50.0910,-0.06,0.05,0.05
2020-08-10 16:3:50.1820,-0.17,-0.06,0.01
2020-08-10 16:3:50.2790,-0.15,-0.01,0.02
2020-08-10 16:3:50.3640,-0.06,-0.03,0.01
2020-08-10 16:3:50.4520,-0.04,-0.21,-0.01
2020-08-10 16:3:50.5580,0.13,-0.23,0.08
2020-08-10 16:3:50.6460,0.33,-0.21,0.24
2020-08-10 16:3:50.7440,0.17,-0.05,0.15
2020-08-10 16:3:50.8550,0.61,0.36,-0.1
2020-08-10 16:3:50.9010,0.43,0.19,-0.12
2020-08-10 16:3:51.0080,0.16,-0.16,-0.03
2020-08-10 16:3:51.0820,-0.28,-0.3,0.11
2020-08-10 16:3:51.1880,-0.68,-0.46,0.12
2020-08-10 16:3:51.2710,-1.1,-0.14,0.1
2020-08-10 16:3:51.3680,-0.77,-0.04,0.13
2020-08-10 16:3:51.4500,-0.33,-0.43,0.09
2020-08-10 16:3:51.5400,-0.24,0.04,0.25
2020-08-10 16:3:51.6390,-0.15,-0.05,-0.05
2020-08-10 16:3:51.7380,-0.15,0.01,0.03
2020-08-10 16:3:51.8390,-0.05,0.02,0.04
2020-08-10 16:3:51.8960,-0.04,0.04,0.04
2020-08-10 16:3:51.9930,-0.05,0.01,-0.01
2020-08-10 16:3:52.0790,-0.02,0.01,0.02
2020-08-10 16:3:52.1740,-0.06,-0.02,-0.03
2020-08-10 16:3:52.2600,-0.0,-0.06,0.01
2020-08-10 16:3:52.3580,0.18,-0.23,-0.01
2020-08-10 16:3:52.4420,0.27,-0.15,0.09
2020-08-10 16:3:52.5380,0.32,-0.17,0.16
2020-08-10 16:3:52.6360,0.59,0.02,0.05
2020-08-10 16:3:52.7370,0.59,0.34,0.02
2020-08-10 16:3:52.8320,0.37,0.0,-0.11
2020-08-10 16:3:52.8860,-0.02,-0.27,0.02
2020-08-10 16:3:52.9760,-0.48,-0.4,0.14
2020-08-10 16:3:53.0700,-0.78,-0.16,0.04
2020-08-10 16:3:53.1560,-1.01,-0.07,-0.03
2020-08-10 16:3:53.2580,0.97,-0.12,-0.05
2020-08-10 16:3:53.3460,-0.01,-0.05,0.1
2020-08-10 16:3:53.4380,-0.19,0.01,-0.12
2020-08-10 16:3:53.5360,-0.17,0.01,0.07
2020-08-10 16:3:53.6260,-0.05,0.01,0.02
2020-08-10 16:3:53.7240,-0.08,0.02,0.04
2020-08-10 16:3:53.8230,-0.01,0.03,0.01
2020-08-10 16:3:53.8760,-0.06,0.01,0.01
2020-08-10 16:3:53.9660,-0.04,-0.0,-0.02
2020-08-10 16:3:54.0600,0.03,0.0,0.05
2020-08-10 16:3:54.1530,0.07,-0.19,-0.01
2020-08-10 16:3:54.2390,0.25,-0.29,0.01
2020-08-10 16:3:54.3390,0.45,-0.37,0.12
2020-08-10 16:3:54.4280,0.13,0.07,-0.04
2020-08-10 16:3:54.5190,0.74,0.36,-0.09
2020-08-10 16:3:54.6200,0.37,0.11,-0.01
2020-08-10 16:3:54.7190,0.05,-0.16,-0.02
2020-08-10 16:3:54.8160,-0.12,-0.2,-0.01
2020-08-10 16:3:54.8790,-0.43,-0.28,0.08
2020-08-10 16:3:54.9690,-0.95,-0.16,0.05
2020-08-10 16:3:55.0510,-1.03,-0.08,0.04
2020-08-10 16:3:55.1360,-0.27,-0.42,-0.01
2020-08-10 16:3:55.2290,-0.31,0.19,0.19
2020-08-10 16:3:55.3180,-0.08,-0.05,-0.09
2020-08-10 16:3:55.4140,-0.07,-0.01,0.08
2020-08-10 16:3:55.5100,-0.05,-0.02,0.01
2020-08-10 16:3:55.6090,-0.04,0.09,0.04
2020-08-10 16:3:55.7080,-0.1,-0.04,-0.05
2020-08-10 16:3:55.8080,0.02,0.08,0.04
2020-08-10 16:3:55.8690,0.07,-0.01,-0.08
2020-08-10 16:3:55.9590,0.08,-0.14,0.04
2020-08-10 16:3:56.0410,0.32,-0.33,-0.02
2020-08-10 16:3:56.1280,0.42,-0.44,0.15
2020-08-10 16:3:56.2200,0.1,-0.0,-0.03
2020-08-10 16:3:56.3070,0.72,0.4,-0.16
2020-08-10 16:3:56.4030,0.48,0.17,-0.07
2020-08-10 16:3:56.5000,0.08,-0.25,0.05
2020-08-10 16:3:56.5990,-0.38,-0.4,0.16
2020-08-10 16:3:56.7080,-0.79,-0.34,0.09
2020-08-10 16:3:56.7980,-0.96,-0.07,-0.09
2020-08-10 16:3:56.8910,0.3,0.03,0.16
2020-08-10 16:3:56.9530,-0.42,-0.26,-0.45
2020-08-10 16:3:57.0510,-0.23,0.11,0.16
2020-08-10 16:3:57.1360,-0.05,0.0,0.04
2020-08-10 16:3:57.2290,-0.01,0.0,0.02
2020-08-10 16:3:57.3100,-0.07,0.01,0.02
2020-08-10 16:3:57.4030,-0.03,0.03,0.04
2020-08-10 16:3:57.4960,-0.08,0.01,-0.04
2020-08-10 16:3:57.5940,-0.04,-0.01,0.01
2020-08-10 16:3:57.6840,0.04,-0.09,0.02
2020-08-10 16:3:57.7840,0.2,-0.27,-0.0
2020-08-10 16:3:57.8810,0.31,-0.22,0.1
2020-08-10 16:3:57.9390,0.3,-0.15,0.04
2020-08-10 16:3:58.0410,0.85,0.19,-0.1
2020-08-10 16:3:58.1260,0.62,0.24,-0.06
2020-08-10 16:3:58.2190,0.16,-0.14,-0.08
2020-08-10 16:3:58.3230,-0.19,-0.34,0.06
2020-08-10 16:3:58.4040,-0.54,-0.42,0.09
2020-08-10 16:3:58.4940,-1.12,-0.2,-0.03
2020-08-10 16:3:58.5850,-0.88,-0.09,0.13
2020-08-10 16:3:58.6760,-0.12,-0.6,-0.13
2020-08-10 16:3:58.7830,-0.23,0.0,0.22
2020-08-10 16:3:58.8720,-0.13,-0.04,0.04
2020-08-10 16:3:58.9710,-0.1,0.01,0.01
2020-08-10 16:3:59.0760,-0.04,0.05,0.03
2020-08-10 16:3:59.1250,-0.07,-0.01,-0.03
2020-08-10 16:3:59.2290,-0.02,0.01,0.02
2020-08-10 16:3:59.3100,-0.01,0.02,-0.02
2020-08-10 16:3:59.3950,0.01,0.0,-0.03
2020-08-10 16:3:59.4870,0.03,-0.12,0.01
2020-08-10 16:3:59.5770,0.22,-0.3,-0.01
2020-08-10 16:3:59.6750,0.24,-0.23,0.07
2020-08-10 16:3:59.7650,0.19,0.01,0.01
2020-08-10 16:3:59.8620,0.72,0.3,-0.18
2020-08-10 16:3:59.9620,0.54,0.2,-0.14
2020-08-10 16:4:00.0640,0.18,-0.21,-0.04
2020-08-10 16:4:00.1600,-0.25,-0.32,0.15
2020-08-10 16:4:00.2200,-0.52,-0.35,0.08
2020-08-10 16:4:00.3090,-0.96,-0.14,-0.0
2020-08-10 16:4:00.4010,-0.96,-0.08,0.09
2020-08-10 16:4:00.4930,-0.11,-0.6,-0.0
2020-08-10 16:4:00.5850,-0.41,-0.04,0.09
2020-08-10 16:4:00.6850,-0.16,0.01,0.03
2020-08-10 16:4:00.7710,-0.05,0.02,-0.0
2020-08-10 16:4:00.8650,-0.04,0.04,0.05
2020-08-10 16:4:00.9540,-0.03,0.04,0.0
2020-08-10 16:4:01.0520,0.02,0.0,0.01
2020-08-10 16:4:01.1510,-0.0,0.02,0.03
2020-08-10 16:4:01.2500,-0.02,-0.05,-0.02
2020-08-10 16:4:01.3100,0.05,-0.27,-0.0
2020-08-10 16:4:01.3990,0.24,-0.33,0.07
2020-08-10 16:4:01.4830,0.45,-0.33,0.13
2020-08-10 16:4:01.5820,0.45,-0.01,0.04
2020-08-10 16:4:01.6680,0.65,0.34,-0.06
2020-08-10 16:4:01.7600,0.48,0.1,-0.12
2020-08-10 16:4:01.8560,0.13,-0.27,-0.0
2020-08-10 16:4:01.9540,-0.33,-0.45,0.11
2020-08-10 16:4:02.0450,-0.72,-0.25,0.17
2020-08-10 16:4:02.1420,-1.08,-0.06,-0.01
2020-08-10 16:4:02.2420,1.2,-0.12,-0.15
2020-08-10 16:4:02.2950,-0.14,-0.03,-0.11
2020-08-10 16:4:02.3900,-0.06,0.05,-0.08
2020-08-10 16:4:02.4860,-0.08,0.06,0.09
2020-08-10 16:4:02.5750,-0.03,0.01,-0.0
2020-08-10 16:4:02.6660,-0.07,0.02,0.0
2020-08-10 16:4:02.7560,-0.01,0.03,0.0
2020-08-10 16:4:02.8460,-0.03,0.04,-0.04
2020-08-10 16:4:02.9440,0.01,0.02,-0.01
2020-08-10 16:4:03.0360,0.02,-0.01,-0.03
2020-08-10 16:4:03.1340,0.09,-0.28,-0.05
2020-08-10 16:4:03.2330,0.29,-0.4,0.07
2020-08-10 16:4:03.3310,0.61,-0.32,0.1
2020-08-10 16:4:03.3870,0.01,0.19,-0.01
2020-08-10 16:4:03.4750,0.63,0.34,-0.17
2020-08-10 16:4:03.5660,0.4,0.03,-0.09
2020-08-10 16:4:03.6550,0.04,-0.26,0.03
2020-08-10 16:4:03.7460,-0.29,-0.41,0.02
2020-08-10 16:4:03.8370,-0.6,-0.32,0.13
2020-08-10 16:4:03.9260,-0.94,-0.09,-0.0
2020-08-10 16:4:04.0250,-0.88,0.02,0.09
2020-08-10 16:4:04.1230,-0.47,-0.64,-0.11
2020-08-10 16:4:04.2220,-0.16,0.04,0.17
2020-08-10 16:4:04.3320,-0.04,0.02,0.03
2020-08-10 16:4:04.3760,-0.06,0.02,-0.03
2020-08-10 16:4:04.4660,-0.04,0.04,0.02
2020-08-10 16:4:04.5560,-0.03,0.03,-0.01
2020-08-10 16:4:04.6450,-0.01,0.03,0.02
2020-08-10 16:4:04.7350,-0.02,0.0,-0.04
2020-08-10 16:4:04.8260,-0.05,-0.02,-0.05
2020-08-10 16:4:04.9170,0.01,-0.13,-0.02
2020-08-10 16:4:05.0140,0.18,-0.25,0.01
2020-08-10 16:4:05.1130,0.26,-0.24,0.07
2020-08-10 16:4:05.2250,0.21,-0.15,0.08
2020-08-10 16:4:05.3130,0.68,0.23,-0.13
2020-08-10 16:4:05.3660,0.51,0.28,-0.1
2020-08-10 16:4:05.4560,0.16,-0.2,-0.08
2020-08-10 16:4:05.5520,-0.16,-0.37,0.02
2020-08-10 16:4:05.6510,-0.57,-0.28,0.09
2020-08-10 16:4:05.7320,-1.0,-0.16,0.05
2020-08-10 16:4:05.8300,-0.56,-0.17,-0.06
2020-08-10 16:4:05.9340,-0.27,-0.01,0.02
2020-08-10 16:4:06.0110,0.03,0.07,0.04
2020-08-10 16:4:06.1130,-0.09,-0.01,-0.0
2020-08-10 16:4:06.2070,-0.07,0.04,0.01
2020-08-10 16:4:06.3060,-0.04,0.06,0.0
2020-08-10 16:4:06.4040,-0.03,0.02,-0.03
2020-08-10 16:4:06.4610,-0.08,-0.01,-0.04
2020-08-10 16:4:06.5510,-0.2,-0.09,-0.02
2020-08-10 16:4:06.6400,-0.13,-0.06,-0.04
2020-08-10 16:4:06.7310,0.02,-0.16,-0.03
2020-08-10 16:4:06.8360,0.3,-0.31,0.01
2020-08-10 16:4:06.9270,0.34,-0.29,0.14
2020-08-10 16:4:07.0170,0.21,-0.02,-0.03
2020-08-10 16:4:07.1000,0.67,0.33,-0.11
2020-08-10 16:4:07.1970,0.48,0.14,-0.18
2020-08-10 16:4:07.2980,0.06,-0.26,0.0
2020-08-10 16:4:07.4010,-0.47,-0.32,0.08
2020-08-10 16:4:07.4940,-0.81,-0.27,0.1
2020-08-10 16:4:07.5450,-1.03,-0.11,-0.05
2020-08-10 16:4:07.6440,0.09,-0.15,-0.15
2020-08-10 16:4:07.7280,-0.05,-0.22,-0.01
2020-08-10 16:4:07.8150,-0.14,0.0,0.03
2020-08-10 16:4:07.9090,-0.06,-0.01,-0.03
2020-08-10 16:4:08.0070,-0.04,-0.03,-0.04
2020-08-10 16:4:08.0990,-0.03,0.03,0.02
2020-08-10 16:4:08.1870,-0.02,0.03,-0.02
2020-08-10 16:4:08.2870,-0.01,0.02,-0.0
2020-08-10 16:4:08.3860,-0.08,-0.04,-0.03
2020-08-10 16:4:08.4840,-0.05,-0.07,-0.04
2020-08-10 16:4:08.5830,0.06,-0.23,-0.01
2020-08-10 16:4:08.6360,0.26,-0.31,-0.03
2020-08-10 16:4:08.7250,0.36,-0.44,0.17
2020-08-10 16:4:08.8170,0.19,0.06,-0.06
2020-08-10 16:4:08.9060,0.68,0.25,-0.12
2020-08-10 16:4:08.9960,0.46,0.09,-0.15
2020-08-10 16:4:09.0880,0.1,-0.15,0.01
2020-08-10 16:4:09.1880,-0.34,-0.31,0.05
2020-08-10 16:4:09.2750,-0.53,-0.33,0.16
2020-08-10 16:4:09.3770,-1.04,-0.12,0.08
2020-08-10 16:4:09.4880,-0.23,-0.19,-0.23
2020-08-10 16:4:09.5740,-0.17,-0.15,0.02
2020-08-10 16:4:09.6740,-0.1,0.03,0.01
2020-08-10 16:4:09.7180,-0.12,-0.02,-0.01
2020-08-10 16:4:09.8220,-0.14,-0.03,-0.05
2020-08-10 16:4:09.9120,-0.07,0.0,0.01
2020-08-10 16:4:09.9940,-0.09,0.01,-0.05
2020-08-10 16:4:10.0920,-0.03,0.01,-0.02
2020-08-10 16:4:10.1840,-0.01,0.01,-0.02
2020-08-10 16:4:10.2880,-0.05,-0.06,-0.06
2020-08-10 16:4:10.3770,0.1,-0.23,0.01
2020-08-10 16:4:10.4780,0.36,-0.43,0.09
2020-08-10 16:4:10.5640,0.31,-0.18,0.07
2020-08-10 16:4:10.6730,0.84,0.2,-0.11
2020-08-10 16:4:10.7220,0.57,0.28,-0.1
2020-08-10 16:4:10.8120,0.24,-0.06,-0.09
2020-08-10 16:4:10.9030,-0.05,-0.28,-0.01
2020-08-10 16:4:10.9920,-0.4,-0.27,0.1
2020-08-10 16:4:11.0980,-0.72,-0.19,0.04
2020-08-10 16:4:11.1810,-1.11,-0.04,0.18
2020-08-10 16:4:11.2780,1.3,-0.03,-0.33
2020-08-10 16:4:11.3680,-0.52,-0.26,0.05
2020-08-10 16:4:11.4580,0.01,0.03,0.01
2020-08-10 16:4:11.5580,-0.01,0.0,0.02
2020-08-10 16:4:11.6620,-0.05,-0.01,-0.03
2020-08-10 16:4:11.7550,-0.06,0.03,-0.02
2020-08-10 16:4:11.8080,-0.01,0.05,0.0
2020-08-10 16:4:11.9030,0.04,-0.0,-0.04
2020-08-10 16:4:11.9880,-0.02,-0.03,-0.03
2020-08-10 16:4:12.0870,0.04,-0.09,-0.02
2020-08-10 16:4:12.1770,0.25,-0.34,-0.03
2020-08-10 16:4:12.2670,0.27,-0.34,0.02
2020-08-10 16:4:12.3580,0.17,0.08,-0.03
2020-08-10 16:4:12.4480,0.83,0.31,-0.2
2020-08-10 16:4:12.5480,0.4,0.3,-0.03
2020-08-10 16:4:12.6460,0.19,-0.18,-0.13
2020-08-10 16:4:12.7180,-0.24,-0.25,-0.0
2020-08-10 16:4:12.8440,-0.49,-0.29,-0.03
2020-08-10 16:4:12.8970,-0.91,-0.05,0.16
2020-08-10 16:4:12.9870,-0.96,-0.03,0.06
2020-08-10 16:4:13.0790,-0.85,-0.56,0.06
2020-08-10 16:4:13.1670,-0.29,-0.08,0.16
2020-08-10 16:4:13.2570,-0.07,0.0,-0.02
2020-08-10 16:4:13.3470,-0.02,0.05,-0.02
2020-08-10 16:4:13.4390,-0.04,0.02,-0.01
2020-08-10 16:4:13.5380,-0.05,0.01,-0.04
2020-08-10 16:4:13.6410,-0.08,0.02,-0.02
2020-08-10 16:4:13.7360,-0.05,0.02,-0.02
2020-08-10 16:4:13.8390,-0.03,0.02,-0.05
2020-08-10 16:4:13.9340,-0.01,-0.06,-0.04
2020-08-10 16:4:13.9930,0.15,-0.27,-0.03
2020-08-10 16:4:14.0760,0.28,-0.31,-0.0
2020-08-10 16:4:14.1580,0.4,-0.4,0.12
2020-08-10 16:4:14.2630,0.76,0.03,-0.08
2020-08-10 16:4:14.3530,0.62,0.3,-0.14
2020-08-10 16:4:14.4430,0.26,0.01,-0.12
2020-08-10 16:4:14.5320,-0.14,-0.22,0.07
2020-08-10 16:4:14.6300,-0.43,-0.42,0.1
2020-08-10 16:4:14.7280,-0.7,-0.2,0.14
2020-08-10 16:4:14.8280,-0.61,0.01,-0.09
2020-08-10 16:4:14.8880,-0.8,-0.02,0.08
2020-08-10 16:4:14.9780,-0.44,-0.47,0.04
2020-08-10 16:4:15.0730,-0.23,0.0,0.12
2020-08-10 16:4:15.1710,-0.05,0.02,0.02
2020-08-10 16:4:15.2530,-0.05,0.01,-0.02
2020-08-10 16:4:15.3440,-0.04,0.04,0.01
2020-08-10 16:4:15.4340,0.02,0.0,-0.06
2020-08-10 16:4:15.5240,0.0,0.02,-0.0
2020-08-10 16:4:15.6300,0.01,0.01,-0.02
2020-08-10 16:4:15.7280,-0.0,-0.04,-0.03
2020-08-10 16:4:15.8170,0.01,-0.15,-0.09
2020-08-10 16:4:15.9170,0.25,-0.31,-0.02
2020-08-10 16:4:15.9890,0.25,-0.4,0.05
2020-08-10 16:4:16.0780,0.25,0.08,0.0
2020-08-10 16:4:16.1610,0.53,0.34,-0.17
2020-08-10 16:4:16.2440,0.43,0.16,-0.14
2020-08-10 16:4:16.3330,0.11,-0.21,0.04
2020-08-10 16:4:16.4230,-0.2,-0.22,0.05
2020-08-10 16:4:16.5200,-0.53,-0.3,-0.0
2020-08-10 16:4:16.6040,-0.84,-0.14,-0.01
2020-08-10 16:4:16.7040,-0.99,-0.04,0.08
2020-08-10 16:4:16.8010,-0.31,-0.43,-0.18
2020-08-10 16:4:16.9010,-0.25,-0.02,0.21
2020-08-10 16:4:17.0010,-0.08,-0.04,-0.08
2020-08-10 16:4:17.0530,-0.03,0.03,0.01
2020-08-10 16:4:17.1430,-0.07,0.04,-0.0
2020-08-10 16:4:17.2490,-0.05,0.03,-0.03
2020-08-10 16:4:17.3230,-0.05,0.03,-0.01
2020-08-10 16:4:17.4130,-0.02,-0.0,-0.02
2020-08-10 16:4:17.5040,-0.06,-0.04,-0.04
2020-08-10 16:4:17.5940,-0.02,-0.1,-0.03
2020-08-10 16:4:17.6930,0.17,-0.26,-0.05
2020-08-10 16:4:17.7910,0.39,-0.41,0.17
2020-08-10 16:4:17.8910,0.13,0.02,0.07
2020-08-10 16:4:17.9910,0.93,0.34,-0.21
2020-08-10 16:4:18.0490,0.53,0.27,-0.13
2020-08-10 16:4:18.1410,0.13,-0.19,-0.04
2020-08-10 16:4:18.2340,-0.32,-0.35,0.04
2020-08-10 16:4:18.3290,-0.4,-0.28,0.05
2020-08-10 16:4:18.4090,-0.74,-0.15,0.08
2020-08-10 16:4:18.5010,-0.78,0.05,0.04
2020-08-10 16:4:18.5880,0.46,-0.49,-0.17
2020-08-10 16:4:18.6830,-0.28,0.07,0.37
2020-08-10 16:4:18.7830,-0.01,-0.04,-0.1
2020-08-10 16:4:18.8810,-0.12,-0.02,-0.06
2020-08-10 16:4:18.9810,-0.05,0.03,-0.02
2020-08-10 16:4:19.0490,-0.06,0.01,-0.05
2020-08-10 16:4:19.1330,-0.11,0.02,-0.03
2020-08-10 16:4:19.2290,0.0,0.01,-0.01
2020-08-10 16:4:19.3050,0.01,-0.01,-0.09
2020-08-10 16:4:19.3970,0.06,-0.06,0.02
2020-08-10 16:4:19.4850,0.23,-0.32,-0.03
2020-08-10 16:4:19.5770,0.42,-0.38,0.12
2020-08-10 16:4:19.6760,0.14,-0.11,0.08
2020-08-10 16:4:19.7760,0.77,0.4,-0.21
2020-08-10 16:4:19.8720,0.52,0.22,-0.16
2020-08-10 16:4:19.9730,0.12,-0.21,-0.01
2020-08-10 16:4:20.0250,-0.18,-0.33,0.0
2020-08-10 16:4:20.1300,-0.38,-0.25,0.12
2020-08-10 16:4:20.2200,-0.63,-0.13,0.03
2020-08-10 16:4:20.2950,-0.9,-0.02,-0.01
2020-08-10 16:4:20.3990,1.25,-0.1,-0.11
2020-08-10 16:4:20.4760,-0.17,-0.02,-0.0
2020-08-10 16:4:20.5830,-0.03,-0.05,-0.14
2020-08-10 16:4:20.6690,-0.08,-0.02,0.04
2020-08-10 16:4:20.7750,-0.04,0.02,-0.02
2020-08-10 16:4:20.8640,-0.02,0.05,-0.01
2020-08-10 16:4:20.9670,-0.05,0.01,-0.03
2020-08-10 16:4:21.0620,0.0,0.01,-0.04
2020-08-10 16:4:21.1610,-0.01,-0.01,-0.04
2020-08-10 16:4:21.2240,-0.01,-0.11,-0.04
2020-08-10 16:4:21.3120,0.19,-0.33,-0.01
2020-08-10 16:4:21.4020,0.39,-0.42,0.09
2020-08-10 16:4:21.4920,0.21,-0.0,0.05
2020-08-10 16:4:21.5820,0.96,0.3,-0.2
2020-08-10 16:4:21.6650,0.49,0.24,-0.09
2020-08-10 16:4:21.7610,0.25,-0.07,-0.07
2020-08-10 16:4:21.8590,-0.21,-0.4,0.05
2020-08-10 16:4:21.9570,-0.69,-0.38,0.07
2020-08-10 16:4:22.0570,-0.97,-0.13,-0.06
2020-08-10 16:4:22.1540,-0.51,0.02,0.03
2020-08-10 16:4:22.2150,-0.74,-0.63,-0.06
2020-08-10 16:4:22.3050,-0.36,-0.08,0.27
2020-08-10 16:4:22.3960,-0.03,0.01,-0.02
2020-08-10 16:4:22.4900,0.06,0.02,-0.04
2020-08-10 16:4:22.5750,0.01,0.04,-0.0
2020-08-10 16:4:22.6810,-0.01,0.03,-0.04
2020-08-10 16:4:22.7550,-0.02,0.03,-0.03
2020-08-10 16:4:22.8480,-0.05,-0.01,-0.04
2020-08-10 16:4:22.9460,0.01,-0.07,-0.03
2020-08-10 16:4:23.0480,0.12,-0.23,-0.05
2020-08-10 16:4:23.1460,0.2,-0.33,0.04
2020-08-10 16:4:23.2070,0.47,-0.4,0.01
2020-08-10 16:4:23.3060,0.13,0.15,0.17
2020-08-10 16:4:23.3940,0.67,0.21,-0.11
2020-08-10 16:4:23.4820,0.43,0.07,-0.08
2020-08-10 16:4:23.5810,0.1,-0.21,0.01
2020-08-10 16:4:23.6590,-0.42,-0.46,0.05
2020-08-10 16:4:23.7470,-1.02,-0.23,0.2
2020-08-10 16:4:23.8430,-1.08,-0.09,-0.03
2020-08-10 16:4:23.9390,0.17,-0.18,-0.28
2020-08-10 16:4:24.0400,-0.21,-0.3,0.02
2020-08-10 16:4:24.1440,-0.09,0.03,-0.01
2020-08-10 16:4:24.2370,0.03,0.01,0.05
2020-08-10 16:4:24.3460,-0.03,0.01,-0.03
2020-08-10 16:4:24.4060,-0.0,0.01,-0.03
2020-08-10 16:4:24.4960,-0.02,0.01,-0.01
2020-08-10 16:4:24.5750,0.01,0.01,-0.01
2020-08-10 16:4:24.6690,-0.04,-0.06,-0.06
2020-08-10 16:4:24.7640,0.08,-0.21,-0.05
2020-08-10 16:4:24.8530,0.31,-0.39,-0.01
2020-08-10 16:4:24.9420,0.62,-0.47,0.07
2020-08-10 16:4:25.0310,0.12,0.14,0.14
2020-08-10 16:4:25.1330,0.66,0.34,-0.09
2020-08-10 16:4:25.2270,0.34,0.08,-0.12
2020-08-10 16:4:25.3280,0.06,-0.26,0.03
2020-08-10 16:4:25.3960,-0.34,-0.36,0.1
2020-08-10 16:4:25.4780,-0.83,-0.25,0.18
2020-08-10 16:4:25.5760,-1.14,-0.09,0.06
2020-08-10 16:4:25.6590,1.12,-0.12,-0.3
2020-08-10 16:4:25.7460,-0.35,-0.18,-0.14
2020-08-10 16:4:25.8380,-0.54,-0.12,0.03
2020-08-10 16:4:25.9330,0.0,0.02,0.03
2020-08-10 16:4:26.0220,-0.05,-0.0,-0.03
2020-08-10 16:4:26.1200,-0.03,-0.0,-0.05
2020-08-10 16:4:26.2170,-0.0,0.02,-0.02
2020-08-10 16:4:26.3180,0.01,0.04,-0.02
2020-08-10 16:4:26.3710,-0.02,0.02,-0.05
2020-08-10 16:4:26.4700,0.01,-0.13,-0.03
2020-08-10 16:4:26.5660,0.21,-0.31,0.0
2020-08-10 16:4:26.6500,0.33,-0.37,0.03
2020-08-10 16:4:26.7450,0.1,-0.02,0.12
2020-08-10 16:4:26.8350,0.87,0.34,-0.21
2020-08-10 16:4:26.9240,0.63,0.23,-0.14
2020-08-10 16:4:27.0120,0.18,-0.22,-0.12
2020-08-10 16:4:27.1120,-0.32,-0.33,0.05
2020-08-10 16:4:27.2090,-0.72,-0.33,0.05
2020-08-10 16:4:27.3110,-0.99,-0.14,0.0
2020-08-10 16:4:27.4070,-0.09,-0.09,0.04
2020-08-10 16:4:27.4550,-0.18,-0.23,-0.22
2020-08-10 16:4:27.5480,-0.15,0.04,0.03
2020-08-10 16:4:27.6460,-0.13,0.01,-0.01
2020-08-10 16:4:27.7360,-0.1,0.0,-0.02
2020-08-10 16:4:27.8200,-0.12,0.02,-0.04
2020-08-10 16:4:27.9140,-0.03,0.02,-0.03
2020-08-10 16:4:28.0030,-0.02,0.03,-0.06
2020-08-10 16:4:28.1040,0.03,-0.03,-0.01
2020-08-10 16:4:28.1990,0.01,-0.17,-0.13
2020-08-10 16:4:28.3010,0.27,-0.33,0.03
2020-08-10 16:4:28.3970,0.13,-0.44,0.09
2020-08-10 16:4:28.4560,0.21,0.13,0.01
2020-08-10 16:4:28.5470,0.66,0.37,-0.13
2020-08-10 16:4:28.6360,0.41,0.08,-0.12
2020-08-10 16:4:28.7270,0.07,-0.23,-0.02
2020-08-10 16:4:28.8180,-0.34,-0.31,0.08
2020-08-10 16:4:28.9090,-0.69,-0.28,0.02
2020-08-10 16:4:28.9970,-1.03,-0.11,-0.04
2020-08-10 16:4:29.0920,0.95,-0.15,-0.07
2020-08-10 16:4:29.1890,-0.18,-0.03,-0.15
2020-08-10 16:4:29.2920,-0.24,-0.02,-0.09
2020-08-10 16:4:29.3930,-0.07,0.02,0.08
2020-08-10 16:4:29.4480,-0.13,-0.0,-0.06
2020-08-10 16:4:29.5360,-0.06,0.02,-0.0
2020-08-10 16:4:29.6270,-0.04,-0.0,-0.03
2020-08-10 16:4:29.7170,-0.01,0.02,-0.05
2020-08-10 16:4:29.8060,0.02,-0.02,-0.03
2020-08-10 16:4:29.9010,0.05,-0.12,-0.01
2020-08-10 16:4:29.9860,0.21,-0.28,-0.11
2020-08-10 16:4:30.0840,0.39,-0.52,0.14
2020-08-10 16:4:30.1800,0.2,-0.1,0.1
2020-08-10 16:4:30.2830,0.78,0.41,-0.19
2020-08-10 16:4:30.3810,0.56,0.25,-0.13
2020-08-10 16:4:30.4360,0.07,-0.22,0.01
2020-08-10 16:4:30.5270,-0.28,-0.27,0.06
2020-08-10 16:4:30.6170,-0.54,-0.37,0.1
2020-08-10 16:4:30.7080,-1.01,-0.15,0.1
2020-08-10 16:4:30.7970,-0.8,-0.16,-0.08
2020-08-10 16:4:30.8910,-0.3,-0.2,-0.15
2020-08-10 16:4:30.9760,-0.22,0.06,0.08
2020-08-10 16:4:31.0720,-0.12,-0.0,0.07
2020-08-10 16:4:31.1730,-0.11,-0.04,-0.04
2020-08-10 16:4:31.2720,-0.07,0.02,-0.03
2020-08-10 16:4:31.3710,-0.07,0.03,-0.03
2020-08-10 16:4:31.4290,0.0,0.0,-0.01
2020-08-10 16:4:31.5180,0.04,-0.06,-0.06
2020-08-10 16:4:31.6150,0.11,-0.18,-0.08
2020-08-10 16:4:31.7080,0.45,-0.44,-0.04
2020-08-10 16:4:31.7950,0.6,-0.43,0.15
2020-08-10 16:4:31.8920,1.08,0.16,-0.11
2020-08-10 16:4:31.9820,0.72,0.26,-0.08
2020-08-10 16:4:32.0620,0.36,-0.05,-0.16
2020-08-10 16:4:32.1630,-0.06,-0.35,0.06
2020-08-10 16:4:32.2610,-0.7,-0.42,0.08
2020-08-10 16:4:32.3590,-1.29,-0.18,0.09
2020-08-10 16:4:32.4570,-0.93,-0.29,-0.17
2020-08-10 16:4:32.5200,-0.3,-0.19,-0.0
2020-08-10 16:4:32.6090,-0.14,-0.03,-0.12
2020-08-10 16:4:32.6990,-0.1,0.01,0.06
2020-08-10 16:4:32.7870,-0.11,0.01,-0.02
2020-08-10 16:4:32.8770,-0.07,0.05,-0.04
2020-08-10 16:4:32.9660,-0.06,-0.02,-0.04
2020-08-10 16:4:33.0620,0.04,0.02,-0.03
2020-08-10 16:4:33.1530,0.03,-0.1,-0.08
2020-08-10 16:4:33.2530,0.19,-0.21,-0.03
2020-08-10 16:4:33.3520,0.46,-0.42,0.18
2020-08-10 16:4:33.4450,0.34,-0.26,0.05
2020-08-10 16:4:33.5430,1.09,0.15,0.01
2020-08-10 16:4:33.6020,0.61,0.22,-0.09
2020-08-10 16:4:33.6930,0.27,-0.09,-0.14
2020-08-10 16:4:33.7830,-0.11,-0.27,0.08
2020-08-10 16:4:33.8870,-0.54,-0.36,0.08
2020-08-10 16:4:33.9630,-0.98,-0.14,0.08
2020-08-10 16:4:34.0610,-1.22,-0.17,-0.05
2020-08-10 16:4:34.1480,-0.45,-0.48,0.09
2020-08-10 16:4:34.2440,-0.26,0.05,0.06
2020-08-10 16:4:34.3490,-0.1,-0.02,0.02
2020-08-10 16:4:34.4340,-0.07,0.02,-0.01
2020-08-10 16:4:34.5330,-0.04,0.03,-0.01
2020-08-10 16:4:34.6320,0.0,0.02,-0.01
2020-08-10 16:4:34.6860,-0.04,0.0,-0.01
2020-08-10 16:4:34.7760,0.0,-0.01,-0.06
2020-08-10 16:4:34.8690,0.04,-0.06,-0.02
2020-08-10 16:4:34.9550,0.14,-0.29,-0.06
2020-08-10 16:4:35.0520,0.48,-0.41,0.13
2020-08-10 16:4:35.1490,0.17,-0.18,0.11
2020-08-10 16:4:35.2340,0.83,0.31,-0.17
2020-08-10 16:4:35.3290,0.71,0.26,-0.12
2020-08-10 16:4:35.4280,0.2,-0.27,-0.06
2020-08-10 16:4:35.5310,-0.18,-0.3,0.11
2020-08-10 16:4:35.6250,-0.49,-0.26,0.1
2020-08-10 16:4:35.6770,-0.93,-0.24,-0.0
2020-08-10 16:4:35.7700,-1.02,-0.16,-0.04
2020-08-10 16:4:35.8590,-0.39,-0.48,0.11
2020-08-10 16:4:35.9460,-0.24,-0.02,0.06
2020-08-10 16:4:36.0410,-0.05,0.01,0.02
2020-08-10 16:4:36.1260,-0.07,0.01,-0.04
2020-08-10 16:4:36.2210,-0.06,0.04,-0.01
2020-08-10 16:4:36.3270,-0.01,0.07,-0.0
2020-08-10 16:4:36.4190,-0.08,-0.01,-0.05
2020-08-10 16:4:36.5170,0.02,-0.06,-0.06
2020-08-10 16:4:36.6170,0.08,-0.17,-0.05
2020-08-10 16:4:36.7190,0.33,-0.49,0.03
2020-08-10 16:4:36.7680,0.47,-0.37,0.08
2020-08-10 16:4:36.8580,0.44,0.13,0.12
2020-08-10 16:4:36.9500,0.49,0.24,-0.02
2020-08-10 16:4:37.0380,0.33,-0.02,-0.11
2020-08-10 16:4:37.1280,-0.11,-0.32,0.13
2020-08-10 16:4:37.2180,-0.37,-0.19,0.1
2020-08-10 16:4:37.3180,-0.64,-0.2,0.0
2020-08-10 16:4:37.4090,-1.04,-0.12,0.06
2020-08-10 16:4:37.5080,1.34,-0.16,-0.29
2020-08-10 16:4:37.5790,-0.15,-0.09,-0.04
2020-08-10 16:4:37.7070,-0.23,-0.07,-0.11
2020-08-10 16:4:37.8110,-0.07,-0.01,0.03
2020-08-10 16:4:37.8500,-0.1,0.02,-0.03
2020-08-10 16:4:37.9540,-0.08,0.01,-0.04
2020-08-10 16:4:38.0350,0.0,0.01,-0.01
2020-08-10 16:4:38.1340,0.0,0.0,-0.01
2020-08-10 16:4:38.2240,-0.01,-0.03,-0.03
2020-08-10 16:4:38.3010,0.07,-0.19,0.03
2020-08-10 16:4:38.4020,0.28,-0.44,0.09
2020-08-10 16:4:38.5080,0.42,-0.34,0.09
2020-08-10 16:4:38.6090,0.89,0.1,-0.04
2020-08-10 16:4:38.6970,0.63,0.31,-0.05
2020-08-10 16:4:38.7530,0.37,0.01,-0.11
2020-08-10 16:4:38.8550,0.06,-0.28,-0.03
2020-08-10 16:4:38.9370,-0.41,-0.32,0.07
2020-08-10 16:4:39.0340,-0.91,-0.18,0.1
2020-08-10 16:4:39.1250,-1.13,-0.07,0.05
2020-08-10 16:4:39.2140,-0.39,-0.43,-0.21
2020-08-10 16:4:39.3040,-0.25,-0.03,0.06
2020-08-10 16:4:39.3930,-0.2,-0.06,-0.04
2020-08-10 16:4:39.4890,-0.03,-0.03,0.03
2020-08-10 16:4:39.5890,-0.04,0.03,-0.01
2020-08-10 16:4:39.6890,-0.03,0.02,-0.08
2020-08-10 16:4:39.7860,-0.04,0.03,-0.01
2020-08-10 16:4:39.8430,-0.03,-0.0,-0.02
2020-08-10 16:4:39.9330,0.03,-0.12,-0.08
2020-08-10 16:4:40.0240,0.16,-0.31,-0.02
2020-08-10 16:4:40.1210,0.32,-0.33,-0.01
2020-08-10 16:4:40.2110,0.26,-0.19,0.06
2020-08-10 16:4:40.2940,1.01,0.15,-0.09
2020-08-10 16:4:40.4000,0.61,0.28,-0.05
2020-08-10 16:4:40.4890,0.18,-0.26,-0.05
2020-08-10 16:4:40.5790,-0.33,-0.36,0.01
2020-08-10 16:4:40.6790,-0.66,-0.47,0.06
2020-08-10 16:4:40.7770,-1.34,-0.12,-0.05
2020-08-10 16:4:40.8490,0.71,-0.06,0.12
2020-08-10 16:4:40.9310,-0.19,-0.1,0.05
2020-08-10 16:4:41.0150,-0.16,-0.05,0.0
2020-08-10 16:4:41.1110,-0.11,-0.0,0.06
2020-08-10 16:4:41.2000,-0.07,-0.0,-0.01
2020-08-10 16:4:41.2930,-0.02,0.02,-0.0
2020-08-10 16:4:41.3770,-0.01,0.01,-0.02
2020-08-10 16:4:41.4800,-0.01,0.02,-0.03
2020-08-10 16:4:41.5700,0.04,-0.01,0.01
2020-08-10 16:4:41.6680,0.09,-0.12,-0.04
2020-08-10 16:4:41.7680,0.26,-0.29,-0.07
2020-08-10 16:4:41.8400,0.37,-0.38,0.07
2020-08-10 16:4:41.9150,0.28,-0.21,0.03
2020-08-10 16:4:42.0060,0.89,0.26,-0.1
2020-08-10 16:4:42.1080,0.61,0.24,-0.15
2020-08-10 16:4:42.1880,0.24,-0.2,-0.05
2020-08-10 16:4:42.2810,-0.23,-0.32,0.14
2020-08-10 16:4:42.3680,-0.69,-0.48,0.13
2020-08-10 16:4:42.4700,-1.11,-0.15,-0.03
2020-08-10 16:4:42.5610,-0.68,-0.06,-0.05
2020-08-10 16:4:42.6590,-0.6,-0.33,0.01
2020-08-10 16:4:42.7620,0.28,0.01,0.06
2020-08-10 16:4:42.8590,-0.02,0.01,-0.04
2020-08-10 16:4:42.9190,-0.04,-0.01,0.01
2020-08-10 16:4:43.0100,-0.03,0.04,-0.01
2020-08-10 16:4:43.0990,-0.05,0.03,-0.01
2020-08-10 16:4:43.1990,-0.0,0.02,-0.01
2020-08-10 16:4:43.2950,-0.02,-0.03,-0.11
2020-08-10 16:4:43.3750,0.08,-0.12,-0.02
2020-08-10 16:4:43.4760,0.26,-0.36,-0.05
2020-08-10 16:4:43.5570,0.57,-0.46,0.11
2020-08-10 16:4:43.6540,0.26,-0.08,0.04
2020-08-10 16:4:43.7520,0.64,0.36,-0.13
2020-08-10 16:4:43.8510,0.48,0.16,0.01
2020-08-10 16:4:43.9490,0.05,-0.24,0.0
2020-08-10 16:4:44.0110,-0.26,-0.34,0.08
2020-08-10 16:4:44.0980,-0.81,-0.46,0.14
2020-08-10 16:4:44.1870,-1.36,-0.12,0.04
2020-08-10 16:4:44.2830,0.17,-0.19,-0.34
2020-08-10 16:4:44.3680,-0.2,-0.22,0.22
2020-08-10 16:4:44.4660,0.08,-0.02,-0.13
2020-08-10 16:4:44.5560,-0.03,0.03,0.03
2020-08-10 16:4:44.6550,-0.07,0.02,0.01
2020-08-10 16:4:44.7420,-0.04,0.02,-0.01
2020-08-10 16:4:44.8400,-0.04,0.06,0.03
2020-08-10 16:4:44.9400,-0.07,-0.01,-0.06
2020-08-10 16:4:45.0400,0.05,-0.04,-0.03
2020-08-10 16:4:45.0960,0.12,-0.27,-0.03
2020-08-10 16:4:45.2000,0.39,-0.39,0.07
2020-08-10 16:4:45.2820,0.32,-0.35,0.22
2020-08-10 16:4:45.3780,0.86,0.17,0.04
2020-08-10 16:4:45.4630,0.63,0.3,-0.1
2020-08-10 16:4:45.5530,0.32,-0.04,-0.16
2020-08-10 16:4:45.6460,-0.02,-0.3,-0.01
2020-08-10 16:4:45.7350,-0.43,-0.37,0.13
2020-08-10 16:4:45.8310,-0.85,-0.16,0.17
2020-08-10 16:4:45.9300,-1.01,-0.01,0.1
2020-08-10 16:4:46.0330,-0.61,-0.59,-0.33
2020-08-10 16:4:46.0870,-0.35,0.02,0.44
2020-08-10 16:4:46.1910,-0.18,0.01,-0.01
2020-08-10 16:4:46.2720,0.02,-0.01,0.11
2020-08-10 16:4:46.3570,0.01,0.03,0.02
2020-08-10 16:4:46.4530,0.01,0.08,0.01
2020-08-10 16:4:46.5430,-0.01,0.01,-0.06
2020-08-10 16:4:46.6280,-0.02,-0.06,-0.08
2020-08-10 16:4:46.7260,0.13,-0.11,0.05
2020-08-10 16:4:46.8220,0.18,-0.23,-0.03
2020-08-10 16:4:46.9210,0.35,-0.38,0.04
2020-08-10 16:4:47.0220,0.28,-0.04,0.12
2020-08-10 16:4:47.0910,0.92,0.21,-0.03
2020-08-10 16:4:47.1810,0.57,0.3,-0.09
2020-08-10 16:4:47.2870,0.2,-0.18,-0.06
2020-08-10 16:4:47.3700,-0.19,-0.29,0.1
2020-08-10 16:4:47.4580,-0.43,-0.37,0.05
2020-08-10 16:4:47.5570,-1.01,-0.13,0.03
2020-08-10 16:4:47.6430,-0.86,-0.15,0.05
2020-08-10 16:4:47.7370,-0.2,-0.42,-0.08
2020-08-10 16:4:47.8190,-0.25,0.01,0.08
2020-08-10 16:4:47.9170,-0.13,0.0,0.07
2020-08-10 16:4:48.0150,-0.04,0.0,-0.01
2020-08-10 16:4:48.1130,-0.04,0.05,0.01
2020-08-10 16:4:48.2100,0.05,0.07,0.02
2020-08-10 16:4:48.2650,0.01,-0.01,-0.03
2020-08-10 16:4:48.3630,0.01,-0.03,-0.0
2020-08-10 16:4:48.4520,0.07,-0.1,-0.0
2020-08-10 16:4:48.5370,0.18,-0.29,-0.06
2020-08-10 16:4:48.6320,0.38,-0.38,0.07
2020-08-10 16:4:48.7280,0.3,-0.05,0.03
2020-08-10 16:4:48.8170,0.85,0.31,-0.17
2020-08-10 16:4:48.9080,0.61,0.25,-0.06
2020-08-10 16:4:49.0070,0.16,-0.22,-0.05
2020-08-10 16:4:49.1040,-0.22,-0.28,0.14
2020-08-10 16:4:49.2030,-0.55,-0.33,0.04
2020-08-10 16:4:49.3030,-1.11,-0.08,-0.13
2020-08-10 16:4:49.4010,-0.46,-0.14,0.09
2020-08-10 16:4:49.4480,-0.46,-0.51,-0.18
2020-08-10 16:4:49.5410,-0.15,0.05,0.12
2020-08-10 16:4:49.6420,-0.06,-0.0,-0.01
2020-08-10 16:4:49.7310,-0.08,-0.0,-0.01
2020-08-10 16:4:49.8190,-0.06,0.04,0.01
2020-08-10 16:4:49.9010,-0.02,0.02,-0.03
2020-08-10 16:4:49.9980,-0.12,-0.05,-0.04
2020-08-10 16:4:50.0950,-0.2,-0.06,-0.05
2020-08-10 16:4:50.1920,0.02,-0.1,0.0
2020-08-10 16:4:50.2920,0.23,-0.34,-0.06
2020-08-10 16:4:50.3930,0.34,-0.46,0.07
2020-08-10 16:4:50.4370,0.29,0.05,0.06
2020-08-10 16:4:50.5420,0.73,0.35,-0.15
2020-08-10 16:4:50.6320,0.52,0.2,-0.06
2020-08-10 16:4:50.7210,0.2,-0.18,-0.04
2020-08-10 16:4:50.7980,-0.15,-0.27,0.11
2020-08-10 16:4:50.8990,-0.7,-0.49,0.16
2020-08-10 16:4:50.9880,-1.32,-0.19,0.08
2020-08-10 16:4:51.0910,-0.83,-0.18,-0.02
2020-08-10 16:4:51.1870,-0.25,-0.11,0.15
2020-08-10 16:4:51.2870,0.24,0.05,-0.03
2020-08-10 16:4:51.3750,0.11,0.02,0.05
2020-08-10 16:4:51.4370,-0.09,0.01,0.01
2020-08-10 16:4:51.5190,-0.03,0.02,-0.02
2020-08-10 16:4:51.6220,-0.01,0.03,-0.0
2020-08-10 16:4:51.6980,-0.1,-0.01,0.02
2020-08-10 16:4:51.8020,0.02,-0.08,-0.03
2020-08-10 16:4:51.8930,0.17,-0.29,-0.01
2020-08-10 16:4:51.9710,0.47,-0.56,0.09
2020-08-10 16:4:52.0680,0.33,-0.19,0.11
2020-08-10 16:4:52.1770,0.92,0.23,-0.1
2020-08-10 16:4:52.2780,0.64,0.24,-0.04
2020-08-10 16:4:52.3650,0.28,-0.14,-0.07
2020-08-10 16:4:52.4210,-0.07,-0.29,0.08
2020-08-10 16:4:52.5090,-0.43,-0.37,0.08
2020-08-10 16:4:52.6000,-0.95,-0.21,0.18
2020-08-10 16:4:52.7030,-1.05,-0.08,0.06
2020-08-10 16:4:52.7930,-0.54,-0.56,0.22
2020-08-10 16:4:52.8830,-0.2,0.01,0.01
2020-08-10 16:4:52.9720,-0.12,-0.0,0.02
2020-08-10 16:4:53.0580,-0.04,0.03,-0.02
2020-08-10 16:4:53.1580,-0.05,0.02,-0.0
2020-08-10 16:4:53.2590,-0.01,-0.0,-0.02
2020-08-10 16:4:53.3580,0.02,0.02,-0.01
2020-08-10 16:4:53.4650,0.02,-0.05,-0.04
2020-08-10 16:4:53.5540,0.12,-0.24,-0.03
2020-08-10 16:4:53.6070,0.28,-0.47,-0.02
2020-08-10 16:4:53.6950,0.63,-0.41,0.14
2020-08-10 16:4:53.7890,0.13,0.17,0.17
2020-08-10 16:4:53.8750,0.63,0.28,-0.03
2020-08-10 16:4:53.9700,0.42,-0.06,-0.1
2020-08-10 16:4:54.0540,0.08,-0.29,0.05
2020-08-10 16:4:54.1520,-0.32,-0.37,0.07
2020-08-10 16:4:54.2480,-0.69,-0.33,-0.07
2020-08-10 16:4:54.3480,-1.28,-0.03,0.13
2020-08-10 16:4:54.4500,1.35,-0.2,-0.15
2020-08-10 16:4:54.5450,-0.12,-0.06,0.23
2020-08-10 16:4:54.5960,-0.17,-0.06,-0.17
2020-08-10 16:4:54.6910,0.01,0.04,0.01
2020-08-10 16:4:54.7760,-0.06,0.01,0.02
2020-08-10 16:4:54.8660,-0.02,0.05,0.02
2020-08-10 16:4:54.9600,0.01,0.03,0.0
2020-08-10 16:4:55.0460,0.01,-0.01,-0.04
2020-08-10 16:4:55.1400,0.02,-0.11,-0.07
2020-08-10 16:4:55.2380,0.19,-0.32,0.01
2020-08-10 16:4:55.3380,0.41,-0.43,0.16
2020-08-10 16:4:55.4440,0.4,-0.22,0.04
2020-08-10 16:4:55.5350,1.02,0.19,-0.08
2020-08-10 16:4:55.5890,0.66,0.28,-0.1
2020-08-10 16:4:55.6780,0.23,-0.15,-0.05
2020-08-10 16:4:55.7700,-0.26,-0.35,0.1
2020-08-10 16:4:55.8560,-0.61,-0.34,0.14
2020-08-10 16:4:55.9510,-1.03,-0.14,-0.01
2020-08-10 16:4:56.0360,-0.99,-0.07,-0.03
2020-08-10 16:4:56.1380,-0.22,-0.37,-0.05
2020-08-10 16:4:56.2280,-0.4,-0.06,0.03
2020-08-10 16:4:56.3280,-0.13,-0.0,0.06
2020-08-10 16:4:56.4280,-0.04,0.03,-0.02
2020-08-10 16:4:56.5260,-0.08,0.02,-0.03
2020-08-10 16:4:56.6290,0.04,0.04,-0.02
2020-08-10 16:4:56.6790,-0.05,-0.01,-0.03
2020-08-10 16:4:56.7670,-0.05,-0.06,-0.06
2020-08-10 16:4:56.8590,0.11,-0.15,0.02
2020-08-10 16:4:56.9480,0.27,-0.38,-0.02
2020-08-10 16:4:57.0380,0.53,-0.61,0.17
2020-08-10 16:4:57.1310,0.22,0.07,0.02
2020-08-10 16:4:57.2190,0.7,0.35,-0.17
2020-08-10 16:4:57.3180,0.48,0.1,-0.08
2020-08-10 16:4:57.4220,0.15,-0.17,-0.05
2020-08-10 16:4:57.5160,-0.37,-0.32,0.1
2020-08-10 16:4:57.6170,-0.71,-0.31,0.08
2020-08-10 16:4:57.6700,-1.09,-0.1,0.04
2020-08-10 16:4:57.7580,1.54,-0.1,-0.17
2020-08-10 16:4:57.8500,-0.26,-0.08,0.2
2020-08-10 16:4:57.9380,0.08,0.03,-0.03
2020-08-10 16:4:58.0300,0.06,0.04,-0.02
2020-08-10 16:4:58.1200,-0.03,0.03,0.0
2020-08-10 16:4:58.2110,-0.05,0.02,-0.02
2020-08-10 16:4:58.3100,0.0,-0.0,-0.01
2020-08-10 16:4:58.4160,-0.02,-0.01,0.01
2020-08-10 16:4:58.4790,0.04,-0.05,-0.05
2020-08-10 16:4:58.6060,0.15,-0.31,0.01
2020-08-10 16:4:58.6610,0.44,-0.53,0.03
2020-08-10 16:4:58.7490,0.22,-0.09,0.05
2020-08-10 16:4:58.8410,0.9,0.26,-0.15
2020-08-10 16:4:58.9280,0.67,0.26,-0.02
2020-08-10 16:4:59.0200,0.28,-0.15,-0.04
2020-08-10 16:4:59.1080,-0.12,-0.37,0.1
2020-08-10 16:4:59.2010,-0.4,-0.31,0.09
2020-08-10 16:4:59.2980,-0.81,-0.21,0.08
2020-08-10 16:4:59.3980,-1.21,-0.03,0.11
2020-08-10 16:4:59.4700,-0.33,-0.46,-0.38
2020-08-10 16:4:59.5590,-0.71,-0.29,0.22
2020-08-10 16:4:59.6520,-0.1,-0.01,-0.02
2020-08-10 16:4:59.7400,-0.03,0.03,-0.01
2020-08-10 16:4:59.8310,-0.09,0.04,0.02
2020-08-10 16:4:59.9180,-0.02,0.01,-0.02
2020-08-10 16:5:00.0250,0.02,0.01,0.0
2020-08-10 16:5:00.1000,0.01,0.0,0.0
2020-08-10 16:5:00.2050,-0.0,-0.08,-0.06
2020-08-10 16:5:00.2960,0.11,-0.31,0.03
2020-08-10 16:5:00.3950,0.32,-0.45,0.05
2020-08-10 16:5:00.4990,0.56,-0.36,0.14
2020-08-10 16:5:00.5880,0.75,-0.01,0.14
2020-08-10 16:5:00.6430,0.61,0.34,0.03
2020-08-10 16:5:00.7400,0.31,-0.05,-0.15
2020-08-10 16:5:00.8290,-0.02,-0.32,0.04
2020-08-10 16:5:00.9120,-0.45,-0.48,-0.0
2020-08-10 16:5:01.0150,-1.09,-0.21,0.07
2020-08-10 16:5:01.1120,-0.89,-0.09,0.05
2020-08-10 16:5:01.1960,-0.38,-0.44,0.02
2020-08-10 16:5:01.2950,-0.47,0.03,0.09
2020-08-10 16:5:01.3840,-0.15,0.01,0.01
2020-08-10 16:5:01.4810,-0.05,0.02,-0.02
2020-08-10 16:5:01.5810,-0.02,0.03,0.0
2020-08-10 16:5:01.6810,-0.02,0.0,-0.03
2020-08-10 16:5:01.7790,-0.02,0.0,-0.01
2020-08-10 16:5:01.8400,0.02,-0.02,-0.02
2020-08-10 16:5:01.9200,0.09,-0.15,-0.01
2020-08-10 16:5:02.0050,0.21,-0.35,-0.03
2020-08-10 16:5:02.1020,0.56,-0.39,0.21
2020-08-10 16:5:02.1910,0.44,0.02,0.03
2020-08-10 16:5:02.2870,0.75,0.4,-0.07
2020-08-10 16:5:02.3750,0.38,0.09,-0.12
2020-08-10 16:5:02.4710,-0.03,-0.25,0.04
2020-08-10 16:5:02.5700,-0.26,-0.18,0.04
2020-08-10 16:5:02.6700,-0.46,-0.18,0.01
2020-08-10 16:5:02.7410,-0.83,-0.11,0.06
2020-08-10 16:5:02.8150,-0.84,-0.13,0.02
2020-08-10 16:5:02.9210,-0.34,-0.55,0.45
2020-08-10 16:5:02.9960,0.1,0.01,-0.04
2020-08-10 16:5:03.0850,-0.09,-0.03,-0.03
2020-08-10 16:5:03.1820,-0.03,0.01,-0.02
2020-08-10 16:5:03.2670,0.01,0.06,0.01
2020-08-10 16:5:03.3740,-0.02,0.04,0.0
2020-08-10 16:5:03.4640,0.02,0.02,0.0
2020-08-10 16:5:03.5610,0.03,-0.03,-0.05
2020-08-10 16:5:03.6610,0.13,-0.17,-0.03
2020-08-10 16:5:03.7710,0.27,-0.42,0.06
2020-08-10 16:5:03.8630,0.61,-0.45,0.11
2020-08-10 16:5:03.9200,0.17,0.11,0.1
2020-08-10 16:5:04.0090,0.68,0.28,-0.02
2020-08-10 16:5:04.1030,0.42,-0.0,-0.06
2020-08-10 16:5:04.1880,0.07,-0.26,0.03
2020-08-10 16:5:04.2770,-0.2,-0.42,-0.03
2020-08-10 16:5:04.3760,-0.71,-0.23,0.12
2020-08-10 16:5:04.4660,-1.05,-0.05,0.05
2020-08-10 16:5:04.5550,1.46,-0.28,-0.28
2020-08-10 16:5:04.6520,0.04,0.03,-0.03
2020-08-10 16:5:04.7510,-0.17,-0.06,-0.17
2020-08-10 16:5:04.8130,-0.1,0.03,0.09
2020-08-10 16:5:04.9110,-0.02,0.03,0.03
2020-08-10 16:5:04.9970,-0.03,0.01,-0.01
2020-08-10 16:5:05.0960,-0.04,-0.01,0.01
2020-08-10 16:5:05.1780,0.04,0.02,-0.02
2020-08-10 16:5:05.2760,0.02,-0.02,-0.04
2020-08-10 16:5:05.3620,0.09,-0.18,-0.04
2020-08-10 16:5:05.4560,0.26,-0.37,-0.0
2020-08-10 16:5:05.5450,0.55,-0.46,0.08
2020-08-10 16:5:05.6430,0.27,0.14,0.08
2020-08-10 16:5:05.7410,0.57,0.24,0.03
2020-08-10 16:5:05.8400,0.45,0.07,-0.15
2020-08-10 16:5:05.9400,0.06,-0.29,0.02
2020-08-10 16:5:05.9970,-0.34,-0.24,0.03
2020-08-10 16:5:06.0850,-0.53,-0.31,-0.07
2020-08-10 16:5:06.1840,-1.02,-0.1,-0.02
2020-08-10 16:5:06.2780,0.15,-0.04,0.06
2020-08-10 16:5:06.3670,-0.23,-0.09,-0.26
2020-08-10 16:5:06.4540,-0.16,-0.01,-0.02
2020-08-10 16:5:06.5530,-0.08,0.03,0.13
2020-08-10 16:5:06.6350,-0.04,0.02,-0.04
2020-08-10 16:5:06.7320,-0.03,0.02,0.03
2020-08-10 16:5:06.8300,-0.01,0.02,-0.04
2020-08-10 16:5:06.9320,-0.01,0.05,-0.02
2020-08-10 16:5:07.0280,-0.01,-0.03,-0.04
2020-08-10 16:5:07.0770,0.1,-0.09,-0.01
2020-08-10 16:5:07.1800,0.2,-0.24,-0.04
2020-08-10 16:5:07.2700,0.38,-0.42,0.05
2020-08-10 16:5:07.3640,0.14,0.01,0.12
2020-08-10 16:5:07.4630,0.64,0.26,-0.23
2020-08-10 16:5:07.5570,0.6,0.24,-0.15
2020-08-10 16:5:07.6470,0.25,-0.15,-0.05
2020-08-10 16:5:07.7250,-0.23,-0.41,0.09
2020-08-10 16:5:07.8240,-0.67,-0.51,0.12
2020-08-10 16:5:07.9250,-1.08,-0.21,-0.03
2020-08-10 16:5:08.0210,-0.61,-0.13,0.11
2020-08-10 16:5:08.0810,-0.14,-0.36,-0.04
2020-08-10 16:5:08.1710,0.04,0.11,0.11
2020-08-10 16:5:08.2720,-0.03,0.06,0.07
2020-08-10 16:5:08.3670,-0.03,0.02,-0.01
2020-08-10 16:5:08.4530,-0.03,0.02,0.01
2020-08-10 16:5:08.5470,0.0,0.03,-0.02
2020-08-10 16:5:08.6320,-0.02,0.01,-0.02
2020-08-10 16:5:08.7270,-0.01,-0.03,-0.01
2020-08-10 16:5:08.8250,0.01,-0.11,-0.03
2020-08-10 16:5:08.9150,0.15,-0.26,0.01
2020-08-10 16:5:09.0120,0.33,-0.41,0.02
2020-08-10 16:5:09.1110,0.23,-0.07,0.15
2020-08-10 16:5:09.1660,0.91,0.24,-0.01
2020-08-10 16:5:09.2610,0.72,0.27,-0.04
2020-08-10 16:5:09.3500,0.24,-0.13,-0.11
2020-08-10 16:5:09.4470,-0.02,-0.33,-0.01
2020-08-10 16:5:09.5290,-0.52,-0.42,0.03
2020-08-10 16:5:09.6270,-1.06,-0.15,0.05
2020-08-10 16:5:09.7090,-1.11,-0.09,0.15
2020-08-10 16:5:09.8150,-0.25,-0.22,-0.12
2020-08-10 16:5:09.9080,-0.26,0.05,0.16
2020-08-10 16:5:10.0050,-0.04,0.01,0.02
2020-08-10 16:5:10.1040,-0.05,0.01,-0.02
2020-08-10 16:5:10.1640,-0.04,0.03,0.0
2020-08-10 16:5:10.2490,-0.04,0.03,-0.01
2020-08-10 16:5:10.3430,0.01,0.06,0.01
2020-08-10 16:5:10.4320,-0.03,-0.05,-0.06
2020-08-10 16:5:10.5270,0.06,-0.12,0.03
2020-08-10 16:5:10.6150,0.26,-0.39,-0.05
2020-08-10 16:5:10.7070,0.39,-0.43,0.08
2020-08-10 16:5:10.8070,0.36,0.08,0.1
2020-08-10 16:5:10.8980,0.64,0.34,-0.08
2020-08-10 16:5:10.9960,0.46,0.26,-0.05
2020-08-10 16:5:11.0930,-0.03,-0.35,0.03
2020-08-10 16:5:11.1920,-0.36,-0.27,0.16
2020-08-10 16:5:11.2470,-0.59,-0.23,-0.03
2020-08-10 16:5:11.3380,-0.96,-0.08,-0.03
2020-08-10 16:5:11.4420,0.4,-0.12,-0.33
2020-08-10 16:5:11.5190,-0.21,-0.3,0.03
2020-08-10 16:5:11.6130,-0.04,-0.0,-0.0
2020-08-10 16:5:11.7100,-0.04,0.02,0.03
2020-08-10 16:5:11.7920,-0.12,0.03,-0.05
2020-08-10 16:5:11.8880,-0.06,0.02,0.02
2020-08-10 16:5:11.9900,-0.06,0.02,0.02
2020-08-10 16:5:12.0840,-0.0,0.03,-0.03
2020-08-10 16:5:12.1840,-0.08,-0.03,-0.1
2020-08-10 16:5:12.2820,0.05,-0.16,0.06
2020-08-10 16:5:12.3420,0.28,-0.3,-0.04
2020-08-10 16:5:12.4190,0.44,-0.45,0.21
2020-08-10 16:5:12.5230,0.2,-0.07,0.05
2020-08-10 16:5:12.6130,0.71,0.32,-0.18
2020-08-10 16:5:12.7030,0.52,0.18,-0.1
2020-08-10 16:5:12.7920,0.06,-0.24,-0.05
2020-08-10 16:5:12.8800,-0.37,-0.25,0.05
2020-08-10 16:5:12.9780,-0.61,-0.33,0.07
2020-08-10 16:5:13.0880,-1.15,-0.18,0.08
2020-08-10 16:5:13.1780,0.41,-0.11,-0.04
2020-08-10 16:5:13.2370,-0.06,-0.09,-0.03
2020-08-10 16:5:13.3330,-0.14,-0.04,-0.16
2020-08-10 16:5:13.4230,-0.08,0.03,0.08
2020-08-10 16:5:13.5130,-0.07,-0.0,-0.0
2020-08-10 16:5:13.6030,-0.09,0.01,0.01
2020-08-10 16:5:13.6930,-0.03,0.01,0.03
2020-08-10 16:5:13.7820,-0.03,0.02,-0.02
2020-08-10 16:5:13.8690,-0.02,-0.0,-0.01
2020-08-10 16:5:13.9700,0.08,-0.1,-0.01
2020-08-10 16:5:14.0660,0.23,-0.29,-0.1
2020-08-10 16:5:14.1690,0.32,-0.37,0.08
2020-08-10 16:5:14.2270,0.13,-0.1,0.11
2020-08-10 16:5:14.3220,0.72,0.35,-0.17
2020-08-10 16:5:14.4060,0.63,0.2,-0.17
2020-08-10 16:5:14.5030,0.07,-0.25,0.04
2020-08-10 16:5:14.5930,-0.24,-0.32,0.16
2020-08-10 16:5:14.6830,-0.51,-0.27,0.09
2020-08-10 16:5:14.7740,-0.88,-0.12,-0.02
2020-08-10 16:5:14.8610,-1.05,0.0,0.02
2020-08-10 16:5:14.9590,-0.48,-0.57,-0.09
2020-08-10 16:5:15.0580,-0.27,0.05,0.26
2020-08-10 16:5:15.1590,0.01,-0.01,-0.08
2020-08-10 16:5:15.2180,-0.03,0.03,0.03
2020-08-10 16:5:15.3130,-0.05,0.01,-0.0
2020-08-10 16:5:15.3960,-0.04,0.03,-0.01
2020-08-10 16:5:15.4790,-0.01,0.02,-0.01
2020-08-10 16:5:15.5830,-0.05,0.02,0.0
2020-08-10 16:5:15.6750,-0.0,-0.05,-0.05
2020-08-10 16:5:15.7640,0.1,-0.21,-0.01
2020-08-10 16:5:15.8530,0.28,-0.33,-0.03
2020-08-10 16:5:15.9500,0.56,-0.33,0.12
2020-08-10 16:5:16.0500,0.19,-0.08,0.04
2020-08-10 16:5:16.1490,0.65,0.33,-0.06
2020-08-10 16:5:16.2090,0.51,0.13,-0.17
2020-08-10 16:5:16.2980,0.09,-0.29,-0.0
2020-08-10 16:5:16.3840,-0.43,-0.35,0.15
2020-08-10 16:5:16.4830,-0.76,-0.27,0.09
2020-08-10 16:5:16.5750,-1.21,-0.08,-0.02
2020-08-10 16:5:16.6630,0.15,-0.37,-0.28
2020-08-10 16:5:16.7550,-0.11,-0.25,0.12
2020-08-10 16:5:16.8440,-0.23,-0.06,-0.04
2020-08-10 16:5:16.9430,-0.06,0.02,0.09
2020-08-10 16:5:17.0400,0.01,0.01,-0.01
2020-08-10 16:5:17.1390,-0.07,0.01,-0.03
2020-08-10 16:5:17.1990,-0.01,0.03,0.02
2020-08-10 16:5:17.2860,0.02,0.02,0.01
2020-08-10 16:5:17.3770,0.02,0.02,0.02
2020-08-10 16:5:17.4730,0.06,-0.12,-0.02
2020-08-10 16:5:17.5560,0.2,-0.32,-0.09
2020-08-10 16:5:17.6540,0.37,-0.36,0.14
2020-08-10 16:5:17.7290,0.26,-0.0,-0.03
2020-08-10 16:5:17.8230,0.68,0.3,-0.04
2020-08-10 16:5:17.9240,0.58,0.09,-0.14
2020-08-10 16:5:18.0250,0.03,-0.23,0.04
2020-08-10 16:5:18.1220,-0.22,-0.28,0.04
2020-08-10 16:5:18.2210,-0.69,-0.31,0.07
2020-08-10 16:5:18.3210,-1.11,-0.08,-0.0
2020-08-10 16:5:18.4200,1.31,-0.13,-0.19
2020-08-10 16:5:18.4790,-0.22,0.0,-0.1
2020-08-10 16:5:18.5700,-0.18,-0.03,-0.05
2020-08-10 16:5:18.6430,-0.01,0.04,0.15
2020-08-10 16:5:18.7340,0.01,0.01,-0.0
2020-08-10 16:5:18.8320,-0.03,0.02,-0.0
2020-08-10 16:5:18.9240,-0.02,0.03,-0.01
2020-08-10 16:5:19.0140,0.0,0.03,0.0
2020-08-10 16:5:19.1120,-0.05,-0.02,-0.03
2020-08-10 16:5:19.2100,0.04,-0.1,0.01
2020-08-10 16:5:19.3120,0.19,-0.34,-0.02
2020-08-10 16:5:19.3630,0.33,-0.32,0.03
2020-08-10 16:5:19.4700,0.23,-0.1,0.05
2020-08-10 16:5:19.5440,0.9,0.3,-0.19
2020-08-10 16:5:19.6490,0.61,0.23,-0.01
2020-08-10 16:5:19.7240,0.2,-0.22,-0.03
2020-08-10 16:5:19.8140,-0.22,-0.35,0.14
2020-08-10 16:5:19.9050,-0.55,-0.33,0.05
2020-08-10 16:5:20.0050,-1.01,-0.11,-0.05
2020-08-10 16:5:20.1030,-0.89,-0.14,0.02
2020-08-10 16:5:20.2010,-0.42,-0.73,0.53
2020-08-10 16:5:20.3010,0.3,0.12,0.12
2020-08-10 16:5:20.3550,-0.02,-0.04,-0.08
2020-08-10 16:5:20.4520,-0.08,0.02,0.01
2020-08-10 16:5:20.5500,-0.03,0.03,-0.01
2020-08-10 16:5:20.6350,-0.01,0.02,0.02
2020-08-10 16:5:20.7280,0.0,0.05,-0.02
2020-08-10 16:5:20.8210,-0.03,-0.0,-0.01
2020-08-10 16:5:20.9000,0.04,-0.12,-0.02
2020-08-10 16:5:20.9970,0.2,-0.3,-0.03
2020-08-10 16:5:21.0960,0.43,-0.31,-0.02
2020-08-10 16:5:21.1940,0.24,-0.07,0.04
2020-08-10 16:5:21.2950,0.77,0.28,-0.18
2020-08-10 16:5:21.3470,0.53,0.24,-0.06
2020-08-10 16:5:21.4450,0.13,-0.27,-0.11
2020-08-10 16:5:21.5300,-0.27,-0.27,0.17
2020-08-10 16:5:21.6280,-0.54,-0.39,0.05
2020-08-10 16:5:21.7210,-1.13,-0.11,0.09
2020-08-10 16:5:21.8060,-0.28,-0.11,-0.16
2020-08-10 16:5:21.9010,-0.04,-0.14,-0.02
2020-08-10 16:5:22.0000,0.01,-0.03,-0.1
2020-08-10 16:5:22.0870,-0.13,0.01,0.01
2020-08-10 16:5:22.1870,-0.05,0.04,0.0
2020-08-10 16:5:22.2850,-0.04,0.05,0.03
2020-08-10 16:5:22.3390,-0.03,0.01,-0.04
2020-08-10 16:5:22.4280,-0.03,0.01,-0.02
2020-08-10 16:5:22.5210,-0.0,-0.01,-0.02
2020-08-10 16:5:22.6200,0.08,-0.12,-0.07
2020-08-10 16:5:22.6980,0.14,-0.29,-0.02
2020-08-10 16:5:22.7970,0.28,-0.27,0.09
2020-08-10 16:5:22.8910,0.47,-0.24,0.06
2020-08-10 16:5:22.9910,0.58,0.09,0.07
2020-08-10 16:5:23.0780,0.62,0.25,-0.03
2020-08-10 16:5:23.1870,0.26,-0.14,-0.07
2020-08-10 16:5:23.2760,-0.09,-0.38,0.07
2020-08-10 16:5:23.3750,-0.46,-0.33,0.18
2020-08-10 16:5:23.4290,-1.16,-0.12,0.01
2020-08-10 16:5:23.5190,-0.97,-0.08,-0.05
2020-08-10 16:5:23.6090,-0.58,-0.54,0.18
2020-08-10 16:5:23.6990,-0.06,0.05,0.28
2020-08-10 16:5:23.7910,0.01,-0.05,-0.15
2020-08-10 16:5:23.8800,-0.04,0.02,-0.01
2020-08-10 16:5:23.9710,-0.06,0.03,-0.0
2020-08-10 16:5:24.0730,-0.03,0.03,-0.02
2020-08-10 16:5:24.1680,0.03,0.04,0.01
2020-08-10 16:5:24.2680,-0.0,0.01,-0.03
2020-08-10 16:5:24.3670,-0.0,-0.05,0.01
2020-08-10 16:5:24.4260,0.13,-0.25,-0.07
2020-08-10 16:5:24.5170,0.32,-0.32,-0.0
2020-08-10 16:5:24.6150,0.46,-0.49,0.08
2020-08-10 16:5:24.7040,0.22,0.05,0.14
2020-08-10 16:5:24.7830,0.65,0.28,-0.07
2020-08-10 16:5:24.8820,0.28,0.05,-0.02
2020-08-10 16:5:24.9650,0.06,-0.19,0.02
2020-08-10 16:5:25.0620,-0.32,-0.23,0.14
2020-08-10 16:5:25.1590,-0.67,-0.34,0.04
2020-08-10 16:5:25.2580,-1.17,-0.06,0.06
2020-08-10 16:5:25.3580,1.52,-0.21,-0.28
2020-08-10 16:5:25.4580,-0.21,-0.16,0.16
2020-08-10 16:5:25.5010,0.01,-0.05,-0.13
2020-08-10 16:5:25.5960,0.01,-0.01,0.07
2020-08-10 16:5:25.6890,-0.05,0.02,0.0
2020-08-10 16:5:25.7840,-0.05,0.04,-0.01
2020-08-10 16:5:25.8680,0.01,0.02,-0.01
2020-08-10 16:5:25.9630,-0.01,-0.02,-0.04
2020-08-10 16:5:26.0510,-0.01,-0.03,-0.03
2020-08-10 16:5:26.1520,0.11,-0.09,0.02
2020-08-10 16:5:26.2470,0.24,-0.36,-0.04
2020-08-10 16:5:26.3460,0.54,-0.44,0.08
2020-08-10 16:5:26.4450,0.09,-0.05,0.01
2020-08-10 16:5:26.4970,0.82,0.28,-0.19
2020-08-10 16:5:26.5870,0.71,0.11,-0.06
2020-08-10 16:5:26.6850,0.16,-0.31,-0.03
2020-08-10 16:5:26.7750,-0.36,-0.49,0.09
2020-08-10 16:5:26.8630,-0.88,-0.31,0.22
2020-08-10 16:5:26.9530,-1.25,-0.07,0.09
2020-08-10 16:5:27.0440,-0.15,-0.44,-0.33
2020-08-10 16:5:27.1430,-0.19,-0.15,0.07
2020-08-10 16:5:27.2420,-0.18,-0.01,-0.03
2020-08-10 16:5:27.3400,-0.06,-0.0,0.03
2020-08-10 16:5:27.4020,-0.03,0.01,0.01
2020-08-10 16:5:27.4840,0.02,0.04,0.0
2020-08-10 16:5:27.5760,0.03,0.02,0.02
2020-08-10 16:5:27.6770,0.02,0.03,-0.0
2020-08-10 16:5:27.7670,0.09,-0.01,-0.03
2020-08-10 16:5:27.8520,0.1,-0.18,-0.01
2020-08-10 16:5:27.9390,0.3,-0.44,0.08
2020-08-10 16:5:28.0350,0.43,-0.15,0.06
2020-08-10 16:5:28.1420,0.17,0.1,0.19
2020-08-10 16:5:28.2320,0.5,0.26,-0.01
2020-08-10 16:5:28.3310,0.43,0.02,-0.06
2020-08-10 16:5:28.4320,0.03,-0.18,0.06
2020-08-10 16:5:28.4860,-0.24,-0.22,0.11
2020-08-10 16:5:28.5760,-0.55,-0.23,0.04
2020-08-10 16:5:28.6670,-1.04,-0.11,0.0
2020-08-10 16:5:28.7570,-0.89,-0.18,-0.14
2020-08-10 16:5:28.8470,-0.2,-0.06,-0.01
2020-08-10 16:5:28.9380,-0.19,-0.01,0.02
2020-08-10 16:5:29.0350,-0.02,0.04,0.02
2020-08-10 16:5:29.1270,-0.04,-0.03,-0.01
2020-08-10 16:5:29.2220,-0.03,0.01,-0.01
2020-08-10 16:5:29.3220,-0.01,0.01,-0.0
2020-08-10 16:5:29.4240,-0.02,0.04,-0.0
2020-08-10 16:5:29.4780,0.01,-0.02,-0.04
2020-08-10 16:5:29.5660,0.03,-0.08,0.01
2020-08-10 16:5:29.6560,0.13,-0.25,-0.02
2020-08-10 16:5:29.7470,0.3,-0.41,0.07
2020-08-10 16:5:29.8380,0.66,-0.45,0.04
2020-08-10 16:5:29.9280,0.17,0.22,0.04
2020-08-10 16:5:30.0260,0.62,0.26,-0.08
2020-08-10 16:5:30.1170,0.26,0.04,-0.0
2020-08-10 16:5:30.2150,-0.02,-0.26,0.01
2020-08-10 16:5:30.2870,-0.32,-0.41,0.02
2020-08-10 16:5:30.3760,-0.87,-0.21,0.1
2020-08-10 16:5:30.4670,-0.99,-0.04,-0.04
2020-08-10 16:5:30.5570,0.2,-0.31,-0.17
2020-08-10 16:5:30.6490,-0.13,-0.21,0.11
2020-08-10 16:5:30.7360,-0.1,-0.04,-0.12
2020-08-10 16:5:30.8320,-0.07,0.03,0.06
2020-08-10 16:5:30.9160,-0.0,0.02,-0.01
2020-08-10 16:5:31.0100,-0.03,0.01,-0.02
2020-08-10 16:5:31.1070,-0.02,0.02,-0.01
2020-08-10 16:5:31.2120,0.08,0.12,0.02
2020-08-10 16:5:31.3050,0.05,0.02,0.01
2020-08-10 16:5:31.3670,0.05,-0.09,0.01
2020-08-10 16:5:31.4590,0.15,-0.3,-0.08
2020-08-10 16:5:31.5470,0.4,-0.38,0.11
2020-08-10 16:5:31.6380,0.36,-0.08,0.03
2020-08-10 16:5:31.7270,0.88,0.1,0.19
2020-08-10 16:5:31.8180,0.6,0.19,-0.07
2020-08-10 16:5:31.9230,0.21,-0.14,-0.06
2020-08-10 16:5:32.0000,-0.1,-0.27,0.05
2020-08-10 16:5:32.1000,-0.46,-0.4,0.08
2020-08-10 16:5:32.1970,-0.97,-0.23,0.1
2020-08-10 16:5:32.2960,-1.13,-0.02,0.1
2020-08-10 16:5:32.3970,-0.4,-0.49,0.12
2020-08-10 16:5:32.4510,-0.28,0.03,0.22
2020-08-10 16:5:32.5520,-0.08,-0.07,-0.08
2020-08-10 16:5:32.6430,-0.07,0.03,0.02
2020-08-10 16:5:32.7180,-0.06,0.02,0.03
2020-08-10 16:5:32.8120,-0.08,0.01,-0.02
2020-08-10 16:5:32.9130,0.08,0.08,0.01
2020-08-10 16:5:33.0010,0.07,0.02,0.02
2020-08-10 16:5:33.0890,0.02,-0.05,-0.05
2020-08-10 16:5:33.1910,0.03,-0.18,-0.07
2020-08-10 16:5:33.2870,0.25,-0.3,0.02
2020-08-10 16:5:33.3870,0.47,-0.37,0.1
2020-08-10 16:5:33.4380,0.19,0.12,-0.01
2020-08-10 16:5:33.5390,0.59,0.38,-0.16
2020-08-10 16:5:33.6250,0.46,0.18,-0.08
2020-08-10 16:5:33.7230,0.26,-0.34,-0.1
2020-08-10 16:5:33.7980,-0.29,-0.4,0.05
2020-08-10 16:5:33.9030,-0.77,-0.42,0.12
2020-08-10 16:5:33.9930,-1.13,-0.11,0.12
2020-08-10 16:5:34.0840,1.66,-0.13,-0.14
2020-08-10 16:5:34.1730,-0.25,-0.09,0.23
2020-08-10 16:5:34.2810,-0.05,-0.04,-0.21
2020-08-10 16:5:34.3690,-0.14,0.03,0.09
2020-08-10 16:5:34.4680,-0.03,0.02,0.02
2020-08-10 16:5:34.5290,-0.03,0.03,0.01
2020-08-10 16:5:34.6150,-0.02,0.03,0.01
2020-08-10 16:5:34.7130,-0.12,-0.04,-0.03
2020-08-10 16:5:34.7950,-0.07,-0.02,-0.04
2020-08-10 16:5:34.8880,0.05,-0.11,0.01
2020-08-10 16:5:34.9840,0.19,-0.3,-0.08
2020-08-10 16:5:35.0650,0.44,-0.7,0.03
2020-08-10 16:5:35.1630,0.06,-0.04,0.01
2020-08-10 16:5:35.2630,0.65,0.42,-0.07
2020-08-10 16:5:35.3630,0.56,0.25,-0.06
2020-08-10 16:5:35.4600,0.21,-0.14,-0.02
2020-08-10 16:5:35.5100,-0.1,-0.2,-0.01
2020-08-10 16:5:35.6050,-0.33,-0.34,0.08
2020-08-10 16:5:35.7000,-0.94,-0.2,0.14
2020-08-10 16:5:35.7910,-1.2,-0.07,0.08
2020-08-10 16:5:35.8800,-0.85,-0.64,-0.19
2020-08-10 16:5:35.9700,-0.21,0.06,0.22
2020-08-10 16:5:36.0580,-0.13,-0.07,-0.08
2020-08-10 16:5:36.1680,-0.0,0.05,0.02
2020-08-10 16:5:36.2550,-0.05,0.05,0.0
2020-08-10 16:5:36.3540,-0.04,0.02,-0.01
2020-08-10 16:5:36.4530,-0.04,0.02,-0.02
2020-08-10 16:5:36.5540,-0.05,0.02,0.02
2020-08-10 16:5:36.6060,-0.01,-0.07,-0.01
2020-08-10 16:5:36.7040,0.15,-0.33,0.01
2020-08-10 16:5:36.7990,0.33,-0.34,-0.04
2020-08-10 16:5:36.8850,0.34,-0.25,0.14
2020-08-10 16:5:36.9800,0.39,0.01,0.16
2020-08-10 16:5:37.0640,0.63,0.32,-0.04
2020-08-10 16:5:37.1590,0.3,0.04,-0.09
2020-08-10 16:5:37.2580,0.0,-0.31,0.07
2020-08-10 16:5:37.3450,-0.3,-0.29,0.06
2020-08-10 16:5:37.4440,-0.76,-0.29,-0.09
2020-08-10 16:5:37.5430,-1.15,-0.08,0.05
2020-08-10 16:5:37.5980,0.82,-0.41,-0.29
2020-08-10 16:5:37.6870,0.1,0.24,0.22
2020-08-10 16:5:37.7890,-0.01,-0.07,-0.23
2020-08-10 16:5:37.8680,-0.01,0.03,0.07
2020-08-10 16:5:37.9620,-0.1,0.02,-0.02
2020-08-10 16:5:38.0490,0.03,0.04,0.08
2020-08-10 16:5:38.1480,0.02,0.02,0.02
2020-08-10 16:5:38.2400,0.02,0.03,-0.02
2020-08-10 16:5:38.3390,-0.0,-0.02,-0.05
2020-08-10 16:5:38.4360,0.06,-0.18,0.01
2020-08-10 16:5:38.5350,0.27,-0.29,-0.06
2020-08-10 16:5:38.5880,0.37,-0.29,0.07
2020-08-10 16:5:38.6770,0.09,-0.15,-0.02
2020-08-10 16:5:38.7700,0.88,0.23,-0.2
2020-08-10 16:5:38.8570,0.59,0.25,-0.18
2020-08-10 16:5:38.9520,0.13,-0.17,-0.07
2020-08-10 16:5:39.0500,-0.33,-0.37,0.21
2020-08-10 16:5:39.1330,-0.62,-0.35,0.11
2020-08-10 16:5:39.2300,-1.08,-0.14,0.07
2020-08-10 16:5:39.3310,-0.86,-0.24,-0.18
2020-08-10 16:5:39.4370,-0.21,-0.34,0.11
2020-08-10 16:5:39.4980,-0.26,0.04,0.14
2020-08-10 16:5:39.5790,-0.07,0.0,0.07
2020-08-10 16:5:39.6670,-0.03,0.03,0.01
2020-08-10 16:5:39.7620,-0.12,-0.0,0.01
2020-08-10 16:5:39.8470,-0.06,0.02,0.02
2020-08-10 16:5:39.9410,-0.04,0.06,0.01
2020-08-10 16:5:40.0280,-0.04,0.01,-0.02
2020-08-10 16:5:40.1250,0.03,-0.08,-0.0
2020-08-10 16:5:40.2220,0.16,-0.27,-0.0
2020-08-10 16:5:40.3220,0.39,-0.41,0.06
2020-08-10 16:5:40.4200,0.03,-0.09,0.08
2020-08-10 16:5:40.4900,0.78,0.27,-0.12
2020-08-10 16:5:40.5710,0.63,0.24,-0.08
2020-08-10 16:5:40.6580,0.17,-0.11,0.07
2020-08-10 16:5:40.7530,-0.12,-0.23,0.18
2020-08-10 16:5:40.8420,-0.35,-0.3,0.13
2020-08-10 16:5:40.9310,-0.79,-0.23,0.01
2020-08-10 16:5:41.0180,-1.11,-0.11,-0.02
2020-08-10 16:5:41.1150,0.91,-0.12,-0.14
2020-08-10 16:5:41.2110,-0.11,-0.07,-0.06
2020-08-10 16:5:41.3110,-0.2,-0.0,0.03
2020-08-10 16:5:41.4100,-0.12,0.0,0.07
2020-08-10 16:5:41.4800,-0.08,0.0,0.0
2020-08-10 16:5:41.5620,-0.08,0.04,0.02
2020-08-10 16:5:41.6610,-0.03,0.05,0.03
2020-08-10 16:5:41.7430,-0.04,0.04,-0.0
2020-08-10 16:5:41.8270,-0.03,-0.01,-0.0
2020-08-10 16:5:41.9230,-0.05,-0.09,0.0
2020-08-10 16:5:42.0080,0.11,-0.32,0.03
2020-08-10 16:5:42.1040,0.27,-0.39,-0.02
2020-08-10 16:5:42.2020,0.47,-0.29,0.19
2020-08-10 16:5:42.3010,0.71,0.05,0.11
2020-08-10 16:5:42.4040,0.63,0.34,-0.07
2020-08-10 16:5:42.5000,0.25,-0.1,-0.12
2020-08-10 16:5:42.5590,-0.13,-0.23,0.08
2020-08-10 16:5:42.6510,-0.51,-0.34,0.12
2020-08-10 16:5:42.7410,-0.91,-0.25,0.17
2020-08-10 16:5:42.8340,-1.08,-0.1,0.09
2020-08-10 16:5:42.9280,-0.61,-0.68,0.06
2020-08-10 16:5:43.0250,0.02,-0.06,0.14
2020-08-10 16:5:43.1060,-0.14,-0.03,-0.06
2020-08-10 16:5:43.2050,-0.04,0.07,0.07
2020-08-10 16:5:43.2950,-0.07,0.01,0.0
2020-08-10 16:5:43.3930,-0.05,0.01,0.02
2020-08-10 16:5:43.4900,-0.05,0.01,0.01
2020-08-10 16:5:43.5890,-0.05,0.04,-0.02
2020-08-10 16:5:43.6820,-0.05,-0.05,-0.04
2020-08-10 16:5:43.7430,0.12,-0.26,0.01
2020-08-10 16:5:43.8280,0.28,-0.41,0.06
2020-08-10 16:5:43.9210,0.56,-0.27,0.11
2020-08-10 16:5:44.0070,0.67,0.05,0.23
2020-08-10 16:5:44.1000,0.69,0.35,0.09
2020-08-10 16:5:44.1960,0.23,-0.04,-0.14
2020-08-10 16:5:44.2860,-0.04,-0.25,0.1
2020-08-10 16:5:44.3760,-0.35,-0.39,0.03
2020-08-10 16:5:44.4750,-0.74,-0.2,0.04
2020-08-10 16:5:44.5720,-0.9,-0.07,-0.03
2020-08-10 16:5:44.6740,0.35,-0.19,-0.39
2020-08-10 16:5:44.7240,0.03,0.01,0.04
2020-08-10 16:5:44.8220,0.15,-0.05,-0.17
2020-08-10 16:5:44.9160,-0.08,0.09,0.0
2020-08-10 16:5:45.0210,-0.08,0.04,0.01
2020-08-10 16:5:45.0930,0.06,0.04,0.01
2020-08-10 16:5:45.1850,0.01,0.0,0.05
2020-08-10 16:5:45.2750,-0.04,-0.01,-0.03
2020-08-10 16:5:45.3780,0.03,-0.1,-0.01
2020-08-10 16:5:45.4640,0.14,-0.32,-0.05
2020-08-10 16:5:45.5630,0.55,-0.32,0.02
2020-08-10 16:5:45.6620,0.01,0.01,0.08
2020-08-10 16:5:45.7650,0.67,0.26,-0.01
2020-08-10 16:5:45.8620,0.54,0.21,-0.02
2020-08-10 16:5:45.9210,0.29,-0.17,-0.08
2020-08-10 16:5:45.9970,-0.22,-0.29,0.07
2020-08-10 16:5:46.0910,-0.49,-0.37,0.21
2020-08-10 16:5:46.1770,-0.99,-0.18,0.08
2020-08-10 16:5:46.2670,-0.63,0.05,-0.15
2020-08-10 16:5:46.3600,-0.54,-0.38,0.17
2020-08-10 16:5:46.4550,-0.43,-0.16,0.35
2020-08-10 16:5:46.5550,-0.1,0.0,0.08
2020-08-10 16:5:46.6660,0.02,0.01,-0.02
2020-08-10 16:5:46.7550,-0.03,0.05,0.04
2020-08-10 16:5:46.8070,-0.04,0.03,-0.02
2020-08-10 16:5:46.8960,-0.02,0.08,0.06
2020-08-10 16:5:46.9870,-0.12,-0.02,-0.06
2020-08-10 16:5:47.0770,-0.02,-0.09,-0.03
2020-08-10 16:5:47.1710,0.11,-0.25,0.02
2020-08-10 16:5:47.2570,0.34,-0.37,-0.03
2020-08-10 16:5:47.3470,0.26,-0.23,0.09
2020-08-10 16:5:47.4450,0.85,0.17,-0.06
2020-08-10 16:5:47.5450,0.59,0.26,-0.01
2020-08-10 16:5:47.6430,0.26,0.02,-0.09
2020-08-10 16:5:47.7450,0.04,-0.19,0.03
2020-08-10 16:5:47.7980,-0.36,-0.28,0.11
2020-08-10 16:5:47.8870,-0.7,-0.28,0.0
2020-08-10 16:5:47.9920,-0.95,-0.13,-0.06
2020-08-10 16:5:48.0680,-1.37,-0.16,0.08
2020-08-10 16:5:48.1720,-0.15,-0.11,-0.18
2020-08-10 16:5:48.2600,-0.06,0.05,-0.1
2020-08-10 16:5:48.3520,-0.18,-0.02,0.03
2020-08-10 16:5:48.4420,-0.03,0.03,0.06
2020-08-10 16:5:48.5370,-0.07,0.03,-0.02
2020-08-10 16:5:48.6380,-0.06,0.03,-0.01
2020-08-10 16:5:48.7380,-0.05,0.02,-0.03
2020-08-10 16:5:48.7980,-0.02,-0.03,-0.02
2020-08-10 16:5:48.8840,0.01,-0.14,0.05
2020-08-10 16:5:48.9820,0.18,-0.29,-0.05
2020-08-10 16:5:49.0590,0.3,-0.34,-0.02
2020-08-10 16:5:49.1510,0.2,-0.12,0.13
2020-08-10 16:5:49.2370,0.8,0.15,0.11
2020-08-10 16:5:49.3420,0.61,0.2,-0.05
2020-08-10 16:5:49.4320,0.34,-0.1,-0.06
2020-08-10 16:5:49.5280,-0.21,-0.41,0.19
2020-08-10 16:5:49.6280,-0.56,-0.37,0.22
2020-08-10 16:5:49.6900,-0.98,-0.21,0.02
2020-08-10 16:5:49.7800,-1.16,-0.06,-0.06
2020-08-10 16:5:49.8750,-0.54,-0.69,0.21
2020-08-10 16:5:49.9860,-0.42,-0.09,0.08
2020-08-10 16:5:50.0620,-0.05,0.01,-0.03
2020-08-10 16:5:50.1510,-0.09,-0.01,-0.04
2020-08-10 16:5:50.2410,-0.09,0.03,-0.02
2020-08-10 16:5:50.3330,-0.05,0.03,-0.0
2020-08-10 16:5:50.4330,-0.02,0.02,-0.02
2020-08-10 16:5:50.5280,-0.05,-0.03,-0.03
2020-08-10 16:5:50.6260,0.03,-0.1,0.05
2020-08-10 16:5:50.7170,0.11,-0.21,0.02
2020-08-10 16:5:50.8180,0.4,-0.49,-0.09
2020-08-10 16:5:50.8780,0.37,-0.3,0.17
2020-08-10 16:5:50.9770,0.89,0.12,-0.0
2020-08-10 16:5:51.0560,0.79,0.38,-0.04
2020-08-10 16:5:51.1550,0.24,-0.21,-0.05
2020-08-10 16:5:51.2370,-0.09,-0.31,0.21
2020-08-10 16:5:51.3340,-0.39,-0.45,-0.01
2020-08-10 16:5:51.4160,-1.05,-0.2,0.1
2020-08-10 16:5:51.5120,-1.18,-0.07,0.08
2020-08-10 16:5:51.6160,-0.48,-0.56,-0.08
2020-08-10 16:5:51.7080,-0.26,0.03,0.16
2020-08-10 16:5:51.8080,-0.15,-0.03,-0.07
2020-08-10 16:5:51.8780,-0.03,0.03,0.1
2020-08-10 16:5:51.9580,-0.08,-0.01,-0.01
2020-08-10 16:5:52.0480,-0.05,0.04,0.01
2020-08-10 16:5:52.1400,-0.02,0.03,0.0
2020-08-10 16:5:52.2350,-0.0,0.0,-0.03
2020-08-10 16:5:52.3250,0.0,0.01,-0.02
2020-08-10 16:5:52.4090,-0.01,-0.13,-0.02
2020-08-10 16:5:52.5020,0.15,-0.23,-0.01
2020-08-10 16:5:52.6060,0.31,-0.38,0.09
2020-08-10 16:5:52.6970,0.11,-0.14,0.11
2020-08-10 16:5:52.7980,0.88,0.3,-0.18
2020-08-10 16:5:52.8960,0.53,0.22,-0.07
2020-08-10 16:5:52.9580,0.2,-0.14,0.02
2020-08-10 16:5:53.0570,-0.04,-0.21,0.11
2020-08-10 16:5:53.1460,-0.31,-0.28,0.12
2020-08-10 16:5:53.2310,-0.75,-0.2,0.14
2020-08-10 16:5:53.3180,-0.98,-0.06,-0.07
2020-08-10 16:5:53.4130,0.86,-0.08,-0.03
2020-08-10 16:5:53.5140,-0.1,-0.05,-0.06
2020-08-10 16:5:53.6020,-0.06,-0.01,-0.02
2020-08-10 16:5:53.6880,-0.01,0.01,0.04
2020-08-10 16:5:53.7980,-0.09,0.02,0.03
2020-08-10 16:5:53.8970,-0.05,0.02,0.0
2020-08-10 16:5:53.9870,-0.01,0.03,-0.02
2020-08-10 16:5:54.0410,-0.02,0.02,-0.01
2020-08-10 16:5:54.1430,-0.03,-0.03,-0.02
2020-08-10 16:5:54.2330,0.08,-0.09,-0.03
2020-08-10 16:5:54.3080,0.16,-0.25,-0.02
2020-08-10 16:5:54.4130,0.29,-0.38,0.08
2020-08-10 16:5:54.5030,0.28,-0.03,0.01
2020-08-10 16:5:54.5940,0.9,0.08,-0.08
2020-08-10 16:5:54.6800,0.66,0.25,-0.1
2020-08-10 16:5:54.7880,0.28,-0.14,-0.03
2020-08-10 16:5:54.8890,-0.02,-0.24,0.13
2020-08-10 16:5:54.9410,-0.41,-0.33,0.08
2020-08-10 16:5:55.0310,-0.89,-0.19,0.06
2020-08-10 16:5:55.1250,-1.23,-0.03,0.03
2020-08-10 16:5:55.2190,-0.61,-0.65,-0.09
2020-08-10 16:5:55.3060,-0.18,-0.12,0.26
2020-08-10 16:5:55.4030,-0.16,-0.04,-0.07
2020-08-10 16:5:55.4940,-0.02,0.03,0.0
2020-08-10 16:5:55.5840,-0.03,0.04,-0.0
2020-08-10 16:5:55.6740,-0.02,0.03,-0.0
2020-08-10 16:5:55.7730,0.0,0.04,0.01
2020-08-10 16:5:55.8700,-0.02,0.01,-0.0
2020-08-10 16:5:55.9290,0.05,-0.08,-0.01
2020-08-10 16:5:56.0310,0.14,-0.3,-0.07
2020-08-10 16:5:56.1160,0.28,-0.42,0.03
2020-08-10 16:5:56.2090,0.49,-0.4,0.13
2020-08-10 16:5:56.2960,0.54,0.05,0.08
2020-08-10 16:5:56.3940,0.64,0.25,-0.01
2020-08-10 16:5:56.4830,0.21,-0.07,-0.07
2020-08-10 16:5:56.5630,-0.02,-0.23,0.08
2020-08-10 16:5:56.6640,-0.31,-0.32,0.06
2020-08-10 16:5:56.7620,-0.8,-0.25,-0.04
2020-08-10 16:5:56.8590,-1.04,-0.1,-0.02
2020-08-10 16:5:56.9590,1.81,-0.16,0.06
2020-08-10 16:5:57.0580,-0.13,-0.29,-0.06
2020-08-10 16:5:57.1290,-0.08,0.0,0.01
2020-08-10 16:5:57.2190,-0.03,0.04,0.03
2020-08-10 16:5:57.2930,-0.05,0.03,0.03
2020-08-10 16:5:57.3980,-0.01,0.02,-0.0
2020-08-10 16:5:57.4740,0.04,0.06,0.01
2020-08-10 16:5:57.5710,0.08,0.08,0.08
2020-08-10 16:5:57.6540,0.07,-0.01,-0.08
2020-08-10 16:5:57.7540,0.09,-0.15,-0.0
2020-08-10 16:5:57.8510,0.22,-0.29,-0.09
2020-08-10 16:5:57.9500,0.36,-0.4,0.15
2020-08-10 16:5:58.0590,0.37,0.11,-0.03
2020-08-10 16:5:58.1030,0.58,0.38,-0.07
2020-08-10 16:5:58.2100,0.47,0.09,-0.06
2020-08-10 16:5:58.2900,0.2,-0.24,-0.05
2020-08-10 16:5:58.3890,-0.15,-0.29,0.04
2020-08-10 16:5:58.4730,-0.56,-0.37,0.13
2020-08-10 16:5:58.5630,-1.11,-0.11,0.14
2020-08-10 16:5:58.6530,-0.74,-0.13,-0.07
2020-08-10 16:5:58.7420,-0.46,-0.48,0.0
2020-08-10 16:5:58.8410,-0.06,0.1,0.13
2020-08-10 16:5:58.9400,-0.02,-0.0,-0.06
2020-08-10 16:5:59.0410,-0.02,0.02,-0.03
2020-08-10 16:5:59.1380,-0.05,0.0,-0.01
2020-08-10 16:5:59.2000,-0.02,0.03,0.01
2020-08-10 16:5:59.2800,-0.02,0.03,-0.0
2020-08-10 16:5:59.3800,-0.02,0.01,-0.02
2020-08-10 16:5:59.4580,-0.02,-0.07,-0.02
2020-08-10 16:5:59.5520,0.16,-0.24,-0.06
2020-08-10 16:5:59.6430,0.3,-0.37,0.08
2020-08-10 16:5:59.7340,0.47,-0.22,-0.02
2020-08-10 16:5:59.8310,0.12,0.01,0.06
2020-08-10 16:5:59.9310,0.62,0.25,-0.09
2020-08-10 16:6:00.0350,0.51,0.11,-0.05
2020-08-10 16:6:00.1290,0.12,-0.25,0.07
2020-08-10 16:6:00.1900,-0.23,-0.33,0.08
2020-08-10 16:6:00.2710,-0.57,-0.29,0.05
2020-08-10 16:6:00.3700,-0.93,-0.13,-0.04
2020-08-10 16:6:00.4500,0.4,-0.23,-0.13
2020-08-10 16:6:00.5430,-0.02,0.09,-0.06
2020-08-10 16:6:00.6350,0.17,0.02,-0.1
2020-08-10 16:6:00.7230,-0.05,-0.01,0.0
2020-08-10 16:6:00.8220,-0.04,0.02,-0.0
2020-08-10 16:6:00.9210,0.01,0.05,0.03
2020-08-10 16:6:01.0210,0.01,0.02,-0.01
2020-08-10 16:6:01.1200,0.04,0.03,-0.02
2020-08-10 16:6:01.1800,0.02,-0.02,-0.03
2020-08-10 16:6:01.2620,0.02,-0.03,-0.03
2020-08-10 16:6:01.3610,0.12,-0.15,-0.02
2020-08-10 16:6:01.4400,0.22,-0.43,0.03
2020-08-10 16:6:01.5300,0.55,-0.36,0.1
2020-08-10 16:6:01.6180,-0.0,0.14,0.12
2020-08-10 16:6:01.7130,0.63,0.27,-0.05
2020-08-10 16:6:01.8130,0.39,0.04,-0.17
2020-08-10 16:6:01.9110,-0.01,-0.19,0.05
2020-08-10 16:6:02.0130,-0.21,-0.27,0.08
2020-08-10 16:6:02.0800,-0.41,-0.17,0.08
2020-08-10 16:6:02.1690,-0.68,-0.05,0.03
2020-08-10 16:6:02.2600,-0.68,0.03,0.01
2020-08-10 16:6:02.3490,1.29,-0.11,-0.09
2020-08-10 16:6:02.4400,-0.38,-0.18,-0.23
2020-08-10 16:6:02.5320,-0.05,0.03,-0.07
2020-08-10 16:6:02.6360,-0.06,0.01,0.03
2020-08-10 16:6:02.7180,-0.05,0.02,-0.03
2020-08-10 16:6:02.8160,-0.02,0.02,-0.02
2020-08-10 16:6:02.9060,-0.03,0.03,0.02
2020-08-10 16:6:03.0040,0.01,0.03,0.02
2020-08-10 16:6:03.1000,-0.01,0.02,-0.01
2020-08-10 16:6:03.1990,0.01,0.03,-0.02
2020-08-10 16:6:03.2550,-0.01,0.01,0.01
2020-08-10 16:6:03.3510,0.01,-0.01,-0.06
2020-08-10 16:6:03.4370,0.03,0.03,-0.2
2020-08-10 16:6:03.5240,-0.0,0.12,-0.17
2020-08-10 16:6:03.6260,-0.17,0.1,-0.09
2020-08-10 16:6:03.7080,-0.23,0.06,0.1
2020-08-10 16:6:03.8070,0.03,-0.08,0.05
2020-08-10 16:6:03.8970,-0.07,0.09,-0.0
2020-08-10 16:6:03.9960,-0.05,0.05,-0.02
2020-08-10 16:6:04.0910,-0.02,0.01,-0.01
2020-08-10 16:6:04.1900,-0.01,0.04,0.01
2020-08-10 16:6:04.2430,0.01,0.02,-0.01
2020-08-10 16:6:04.3420,-0.04,0.06,-0.01
2020-08-10 16:6:04.4280,0.01,0.03,-0.01
2020-08-10 16:6:04.5200,-0.0,0.03,-0.02
2020-08-10 16:6:04.6150,0.02,0.05,-0.01
2020-08-10 16:6:04.6990,0.01,0.03,-0.0
2020-08-10 16:6:04.7970,0.01,0.02,0.01
2020-08-10 16:6:04.8860,-0.03,0.05,0.01
2020-08-10 16:6:04.9850,0.01,0.02,-0.0
2020-08-10 16:6:05.0850,-0.0,0.03,0.03
2020-08-10 16:6:05.1880,-0.01,0.03,0.0
2020-08-10 16:6:05.2360,0.0,0.01,0.02
2020-08-10 16:6:05.3350,0.01,0.04,0.02
2020-08-10 16:6:05.4230,0.27,-0.1,0.02
2020-08-10 16:6:05.5120,-0.01,0.07,0.01
2020-08-10 16:6:05.6020,0.13,-0.04,0.01
2020-08-10 16:6:05.6860,0.18,0.18,-0.04
2020-08-10 16:6:05.8010,-0.15,0.04,-0.02
2020-08-10 16:6:05.8820,0.04,0.03,-0.01
2020-08-10 16:6:05.9740,0.01,0.05,-0.0
2020-08-10 16:6:06.0740,0.01,0.04,-0.01
2020-08-10 16:6:06.1750,-0.01,0.03,0.01
2020-08-10 16:6:06.2360,-0.05,0.06,0.0
2020-08-10 16:6:06.3300,0.02,0.01,-0.01
2020-08-10 16:6:06.4160,0.05,0.06,-0.04
