time,ax,ay,az
2020-08-10 15:52:48.5820,0.03,0.01,0.03
2020-08-10 15:52:48.6500,0.02,0.01,0.0
2020-08-10 15:52:48.7470,0.03,0.02,0.0
2020-08-10 15:52:48.8340,0.01,0.03,0.01
2020-08-10 15:52:48.9270,0.03,0.02,0.01
2020-08-10 15:52:49.0150,-0.05,0.02,0.01
2020-08-10 15:52:49.1070,-0.01,0.05,-0.01
2020-08-10 15:52:49.2000,0.09,-0.0,0.02
2020-08-10 15:52:49.3050,0.01,0.05,-0.02
2020-08-10 15:52:49.3650,0.1,0.01,-0.0
2020-08-10 15:52:49.4550,-0.05,0.04,-0.02
2020-08-10 15:52:49.5560,-0.04,0.01,0.05
2020-08-10 15:52:49.6460,-0.07,0.02,0.05
2020-08-10 15:52:49.7360,-0.05,0.04,0.0
2020-08-10 15:52:49.8260,0.04,0.04,-0.01
2020-08-10 15:52:49.9170,0.08,0.03,0.03
2020-08-10 15:52:50.0060,0.04,0.03,0.03
2020-08-10 15:52:50.0960,-0.01,0.01,0.01
2020-08-10 15:52:50.1930,0.03,0.02,0.01
2020-08-10 15:52:50.2940,-0.02,0.04,-0.01
2020-08-10 15:52:50.3920,-0.01,0.07,-0.01
2020-08-10 15:52:50.4930,0.04,0.02,-0.01
2020-08-10 15:52:50.5610,0.01,0.03,-0.0
2020-08-10 15:52:50.6520,-0.03,0.04,0.01
2020-08-10 15:52:50.7420,-0.01,0.02,0.01
2020-08-10 15:52:50.8300,0.01,0.03,-0.01
2020-08-10 15:52:50.9080,-0.01,0.03,-0.01
2020-08-10 15:52:51.0090,-0.02,0.05,-0.01
2020-08-10 15:52:51.0900,-0.0,0.07,-0.02
2020-08-10 15:52:51.2070,0.02,0.07,-0.0
2020-08-10 15:52:51.2970,0.03,-0.01,0.07
2020-08-10 15:52:51.3810,-0.02,-0.03,0.03
2020-08-10 15:52:51.4800,0.05,-0.0,0.05
2020-08-10 15:52:51.5520,-0.01,0.08,0.01
2020-08-10 15:52:51.6420,0.05,0.08,-0.02
2020-08-10 15:52:51.7320,-0.18,-0.01,-0.05
2020-08-10 15:52:51.8380,0.08,-0.03,0.02
2020-08-10 15:52:51.9210,0.08,-0.29,-0.03
2020-08-10 15:52:52.0090,0.37,-0.42,0.08
2020-08-10 15:52:52.1080,0.8,-0.44,0.38
2020-08-10 15:52:52.1900,0.44,-0.15,0.06
2020-08-10 15:52:52.2880,0.64,0.21,0.08
2020-08-10 15:52:52.3810,0.66,0.15,-0.19
2020-08-10 15:52:52.4740,0.2,-0.34,-0.1
2020-08-10 15:52:52.5730,-0.38,-0.64,0.06
2020-08-10 15:52:52.6440,-1.14,-0.29,0.13
2020-08-10 15:52:52.7250,-1.21,-0.04,0.22
2020-08-10 15:52:52.8160,-0.98,-0.55,0.06
2020-08-10 15:52:52.9170,-0.09,0.02,0.03
2020-08-10 15:52:53.0080,-0.03,0.01,0.05
2020-08-10 15:52:53.0960,0.0,0.02,0.04
2020-08-10 15:52:53.1940,0.08,0.13,0.13
2020-08-10 15:52:53.2870,0.05,-0.03,-0.04
2020-08-10 15:52:53.3820,0.07,0.03,0.04
2020-08-10 15:52:53.4630,0.05,-0.05,-0.03
2020-08-10 15:52:53.5640,0.2,-0.29,0.0
2020-08-10 15:52:53.6590,0.47,-0.32,0.04
2020-08-10 15:52:53.7640,0.52,-0.39,0.26
2020-08-10 15:52:53.8330,0.08,-0.0,0.25
2020-08-10 15:52:53.9210,0.67,0.24,-0.03
2020-08-10 15:52:54.0110,0.55,0.09,-0.11
2020-08-10 15:52:54.1000,0.13,-0.31,0.01
2020-08-10 15:52:54.1890,-0.67,-0.66,0.1
2020-08-10 15:52:54.2720,-1.3,-0.26,0.17
2020-08-10 15:52:54.3670,-1.26,-0.07,0.19
2020-08-10 15:52:54.4620,-0.61,-0.46,-0.23
2020-08-10 15:52:54.5540,0.01,0.12,0.13
2020-08-10 15:52:54.6490,0.09,0.06,0.07
2020-08-10 15:52:54.7520,0.05,0.03,0.03
2020-08-10 15:52:54.8490,-0.11,0.02,-0.04
2020-08-10 15:52:54.9170,-0.02,-0.01,-0.0
2020-08-10 15:52:55.0040,0.07,0.01,-0.01
2020-08-10 15:52:55.1080,0.06,-0.11,-0.05
2020-08-10 15:52:55.1920,0.22,-0.39,0.05
2020-08-10 15:52:55.2880,0.49,-0.49,0.19
2020-08-10 15:52:55.3740,0.3,-0.09,0.14
2020-08-10 15:52:55.4590,0.89,0.35,-0.14
2020-08-10 15:52:55.5480,0.7,0.29,-0.04
2020-08-10 15:52:55.6440,0.29,-0.19,-0.14
2020-08-10 15:52:55.7400,-0.4,-0.54,0.02
2020-08-10 15:52:55.8420,-0.8,-0.4,0.28
2020-08-10 15:52:55.9060,-1.3,-0.11,0.11
2020-08-10 15:52:55.9950,0.96,-0.66,-0.34
2020-08-10 15:52:56.0980,-0.28,-0.01,0.24
2020-08-10 15:52:56.1730,-0.05,0.02,0.03
2020-08-10 15:52:56.2720,-0.01,0.05,0.02
2020-08-10 15:52:56.3690,-0.02,0.04,-0.0
2020-08-10 15:52:56.4490,0.02,0.06,0.09
2020-08-10 15:52:56.5480,0.03,0.07,0.0
2020-08-10 15:52:56.6330,0.01,-0.04,-0.04
2020-08-10 15:52:56.7300,0.12,-0.18,-0.02
2020-08-10 15:52:56.8320,0.39,-0.51,0.05
2020-08-10 15:52:56.8970,0.42,-0.42,0.2
2020-08-10 15:52:56.9860,0.22,0.05,0.03
2020-08-10 15:52:57.0760,0.73,0.36,-0.07
2020-08-10 15:52:57.1780,0.48,0.11,-0.12
2020-08-10 15:52:57.2690,0.13,-0.24,0.01
2020-08-10 15:52:57.3540,-0.43,-0.61,0.23
2020-08-10 15:52:57.4490,-1.32,-0.3,0.2
2020-08-10 15:52:57.5390,-1.13,-0.11,0.11
2020-08-10 15:52:57.6270,-0.3,-0.25,0.4
2020-08-10 15:52:57.7270,0.28,-0.02,-0.03
2020-08-10 15:52:57.8260,0.17,0.06,0.07
2020-08-10 15:52:57.8890,-0.04,0.02,0.02
2020-08-10 15:52:57.9760,0.01,0.03,0.01
2020-08-10 15:52:58.0660,0.05,0.07,0.05
2020-08-10 15:52:58.1560,-0.02,-0.03,-0.03
2020-08-10 15:52:58.2500,0.06,-0.12,0.02
2020-08-10 15:52:58.3470,0.21,-0.41,0.07
2020-08-10 15:52:58.4340,0.42,-0.41,0.23
2020-08-10 15:52:58.5290,0.04,-0.17,0.17
2020-08-10 15:52:58.6220,0.8,0.44,-0.11
2020-08-10 15:52:58.7180,0.62,0.32,-0.1
2020-08-10 15:52:58.8110,0.21,-0.26,0.05
2020-08-10 15:52:58.9140,-0.29,-0.49,0.19
2020-08-10 15:52:58.9780,-0.89,-0.32,0.21
2020-08-10 15:52:59.0680,-1.52,-0.07,0.2
2020-08-10 15:52:59.1570,-1.16,-0.91,-0.27
2020-08-10 15:52:59.2640,-0.13,0.05,0.1
2020-08-10 15:52:59.3540,0.07,0.05,0.11
2020-08-10 15:52:59.4440,-0.0,-0.04,-0.06
2020-08-10 15:52:59.5340,-0.01,0.05,0.04
2020-08-10 15:52:59.6230,-0.02,0.02,-0.0
2020-08-10 15:52:59.7000,0.07,0.04,0.02
2020-08-10 15:52:59.8060,0.0,-0.07,-0.0
2020-08-10 15:52:59.9000,0.19,-0.33,0.01
2020-08-10 15:52:59.9980,0.43,-0.56,0.08
2020-08-10 15:53:00.0690,0.36,-0.2,0.27
2020-08-10 15:53:00.1520,1.0,0.33,0.0
2020-08-10 15:53:00.2540,0.67,0.27,-0.08
2020-08-10 15:53:00.3360,0.22,-0.11,-0.08
2020-08-10 15:53:00.4340,-0.19,-0.34,0.1
2020-08-10 15:53:00.5240,-0.45,-0.61,0.01
2020-08-10 15:53:00.6140,-1.19,-0.19,0.08
2020-08-10 15:53:00.7030,-1.05,0.01,0.09
2020-08-10 15:53:00.7950,-0.15,-0.48,0.29
2020-08-10 15:53:00.9010,0.04,0.01,0.09
2020-08-10 15:53:00.9880,-0.07,-0.03,0.01
2020-08-10 15:53:01.0540,-0.06,-0.03,-0.01
2020-08-10 15:53:01.1410,-0.03,0.04,0.04
2020-08-10 15:53:01.2300,0.03,0.04,0.03
2020-08-10 15:53:01.3340,0.01,-0.0,0.0
2020-08-10 15:53:01.4240,0.03,-0.1,0.01
2020-08-10 15:53:01.4990,0.15,-0.39,-0.01
2020-08-10 15:53:01.6040,0.48,-0.55,0.24
2020-08-10 15:53:01.6940,0.21,-0.15,0.13
2020-08-10 15:53:01.7860,0.88,0.35,-0.07
2020-08-10 15:53:01.8800,0.66,0.27,-0.07
2020-08-10 15:53:01.9810,0.28,-0.22,-0.01
2020-08-10 15:53:02.0440,-0.14,-0.38,0.1
2020-08-10 15:53:02.1390,-0.68,-0.48,0.12
2020-08-10 15:53:02.2210,-1.29,-0.22,0.04
2020-08-10 15:53:02.3100,-0.08,-0.16,-0.13
2020-08-10 15:53:02.4070,-0.41,-0.19,-0.06
2020-08-10 15:53:02.5050,0.0,0.04,-0.02
2020-08-10 15:53:02.5800,0.06,0.06,0.07
2020-08-10 15:53:02.6850,-0.03,0.03,0.07
2020-08-10 15:53:02.7760,-0.04,0.05,0.03
2020-08-10 15:53:02.8700,0.01,0.01,0.02
2020-08-10 15:53:02.9680,-0.01,-0.0,0.02
2020-08-10 15:53:03.0410,-0.01,-0.19,-0.04
2020-08-10 15:53:03.1230,0.35,-0.37,0.1
2020-08-10 15:53:03.2390,0.33,-0.44,0.28
2020-08-10 15:53:03.3140,0.2,0.15,0.11
2020-08-10 15:53:03.4040,0.64,0.31,-0.05
2020-08-10 15:53:03.4950,0.46,0.15,-0.07
2020-08-10 15:53:03.5850,0.16,-0.22,-0.03
2020-08-10 15:53:03.6760,-0.39,-0.44,0.12
2020-08-10 15:53:03.7650,-1.1,-0.33,0.19
2020-08-10 15:53:03.8620,-1.36,-0.15,0.08
2020-08-10 15:53:03.9580,-0.93,-0.69,-0.1
2020-08-10 15:53:04.0690,-0.37,0.2,0.28
2020-08-10 15:53:04.1590,-0.13,-0.05,0.05
2020-08-10 15:53:04.2160,-0.13,0.02,-0.02
2020-08-10 15:53:04.3050,-0.08,0.06,0.04
2020-08-10 15:53:04.3950,-0.04,0.05,0.01
2020-08-10 15:53:04.4870,-0.03,0.04,0.04
2020-08-10 15:53:04.5800,-0.04,-0.03,-0.01
2020-08-10 15:53:04.6670,0.08,-0.13,0.09
2020-08-10 15:53:04.7700,0.34,-0.4,-0.01
2020-08-10 15:53:04.8520,0.29,-0.47,0.19
2020-08-10 15:53:04.9480,0.15,0.0,0.06
2020-08-10 15:53:05.0540,0.78,0.43,-0.14
2020-08-10 15:53:05.1160,0.57,0.24,-0.06
2020-08-10 15:53:05.2060,0.09,-0.14,0.02
2020-08-10 15:53:05.2960,-0.28,-0.42,0.09
2020-08-10 15:53:05.3860,-0.95,-0.33,0.3
2020-08-10 15:53:05.4750,-1.38,-0.13,0.0
2020-08-10 15:53:05.5660,-0.41,-0.61,-0.34
2020-08-10 15:53:05.6660,-0.74,-0.06,0.31
2020-08-10 15:53:05.7490,-0.13,-0.01,0.04
2020-08-10 15:53:05.8500,-0.1,0.02,0.0
2020-08-10 15:53:05.9440,-0.09,0.02,0.04
2020-08-10 15:53:06.0440,-0.02,0.03,0.0
2020-08-10 15:53:06.1060,-0.0,0.02,0.05
2020-08-10 15:53:06.2100,-0.08,-0.06,-0.02
2020-08-10 15:53:06.2990,0.07,-0.19,0.03
2020-08-10 15:53:06.3920,0.44,-0.49,0.05
2020-08-10 15:53:06.4800,0.56,-0.33,0.23
2020-08-10 15:53:06.5710,0.31,0.1,0.15
2020-08-10 15:53:06.6600,0.7,0.43,0.04
2020-08-10 15:53:06.7500,0.34,-0.07,-0.13
2020-08-10 15:53:06.8400,-0.14,-0.49,0.08
2020-08-10 15:53:06.9370,-0.68,-0.46,0.14
2020-08-10 15:53:07.0370,-1.26,-0.22,0.07
2020-08-10 15:53:07.1320,-0.59,-0.22,-0.04
2020-08-10 15:53:07.2010,-0.15,-0.22,0.05
2020-08-10 15:53:07.2910,-0.12,0.02,-0.01
2020-08-10 15:53:07.3960,-0.12,0.02,0.1
2020-08-10 15:53:07.4700,-0.15,0.01,0.03
2020-08-10 15:53:07.5750,-0.08,0.03,0.06
2020-08-10 15:53:07.6540,-0.19,-0.03,0.01
2020-08-10 15:53:07.7560,-0.07,0.03,0.02
2020-08-10 15:53:07.8300,-0.04,-0.06,0.01
2020-08-10 15:53:07.9380,0.04,-0.2,-0.0
2020-08-10 15:53:08.0260,0.3,-0.36,0.04
2020-08-10 15:53:08.1250,0.75,-0.42,0.21
2020-08-10 15:53:08.1900,0.13,0.16,0.02
2020-08-10 15:53:08.2800,0.71,0.27,-0.0
2020-08-10 15:53:08.3700,0.45,0.15,-0.05
2020-08-10 15:53:08.4610,0.03,-0.28,-0.07
2020-08-10 15:53:08.5510,-0.53,-0.29,0.15
2020-08-10 15:53:08.6440,-0.97,-0.3,0.15
2020-08-10 15:53:08.7300,-1.4,-0.1,0.05
2020-08-10 15:53:08.8360,-0.96,-0.68,-0.24
2020-08-10 15:53:08.9270,-0.7,-0.07,0.19
2020-08-10 15:53:09.0180,-0.17,-0.0,0.1
2020-08-10 15:53:09.1170,-0.11,-0.02,0.02
2020-08-10 15:53:09.2140,-0.08,0.04,0.07
2020-08-10 15:53:09.2840,-0.1,0.01,0.01
2020-08-10 15:53:09.3730,-0.06,0.04,0.03
2020-08-10 15:53:09.4610,-0.09,0.02,0.01
2020-08-10 15:53:09.5480,-0.02,-0.11,0.02
2020-08-10 15:53:09.6450,0.21,-0.33,0.05
2020-08-10 15:53:09.7350,0.3,-0.39,0.1
2020-08-10 15:53:09.8260,0.15,-0.18,0.05
2020-08-10 15:53:09.9290,0.75,0.38,-0.05
2020-08-10 15:53:10.0100,0.61,0.25,-0.06
2020-08-10 15:53:10.1080,0.14,-0.24,-0.01
2020-08-10 15:53:10.1750,-0.42,-0.43,0.12
2020-08-10 15:53:10.2650,-0.82,-0.39,0.12
2020-08-10 15:53:10.3630,-1.26,-0.15,0.01
2020-08-10 15:53:10.4530,1.49,-0.05,0.06
2020-08-10 15:53:10.5350,-0.42,-0.23,0.13
2020-08-10 15:53:10.6310,-0.13,0.04,0.02
2020-08-10 15:53:10.7270,-0.06,0.03,0.06
2020-08-10 15:53:10.8160,-0.1,0.02,0.06
2020-08-10 15:53:10.9000,-0.0,-0.01,0.03
2020-08-10 15:53:11.0030,-0.03,0.02,0.03
2020-08-10 15:53:11.1110,-0.13,-0.01,0.0
2020-08-10 15:53:11.1770,-0.06,-0.04,0.05
2020-08-10 15:53:11.2560,0.07,-0.28,-0.02
2020-08-10 15:53:11.3580,0.34,-0.47,0.11
2020-08-10 15:53:11.4470,0.42,-0.09,0.17
2020-08-10 15:53:11.5350,0.73,0.21,0.07
2020-08-10 15:53:11.6270,0.58,0.31,0.01
2020-08-10 15:53:11.7200,0.31,0.02,-0.1
2020-08-10 15:53:11.8070,-0.05,-0.39,0.1
2020-08-10 15:53:11.8960,-0.73,-0.55,0.08
2020-08-10 15:53:11.9930,-1.32,-0.24,0.06
2020-08-10 15:53:12.0880,-0.9,-0.13,0.09
2020-08-10 15:53:12.1910,0.08,-0.22,0.05
2020-08-10 15:53:12.2580,-0.57,0.19,0.08
2020-08-10 15:53:12.3460,-0.2,-0.03,0.09
2020-08-10 15:53:12.4390,-0.1,0.03,0.08
2020-08-10 15:53:12.5280,0.0,0.11,0.09
2020-08-10 15:53:12.6320,0.07,0.13,0.11
2020-08-10 15:53:12.7090,0.01,-0.01,-0.05
2020-08-10 15:53:12.8130,-0.0,-0.05,-0.02
2020-08-10 15:53:12.9020,0.11,-0.22,0.02
2020-08-10 15:53:12.9910,0.4,-0.46,0.04
2020-08-10 15:53:13.0810,0.4,-0.31,0.22
2020-08-10 15:53:13.1910,0.87,0.37,-0.07
2020-08-10 15:53:13.2500,0.68,0.32,-0.02
2020-08-10 15:53:13.3480,0.16,-0.04,-0.09
2020-08-10 15:53:13.4310,-0.16,-0.42,0.11
2020-08-10 15:53:13.5310,-0.7,-0.49,0.19
2020-08-10 15:53:13.6150,-1.34,-0.21,0.11
2020-08-10 15:53:13.7000,-1.01,-0.03,0.08
2020-08-10 15:53:13.8020,-0.25,-0.4,0.26
2020-08-10 15:53:13.8930,-0.18,0.01,0.04
2020-08-10 15:53:13.9830,-0.09,-0.02,0.07
2020-08-10 15:53:14.0720,-0.12,0.02,0.05
2020-08-10 15:53:14.1790,-0.21,-0.05,-0.01
2020-08-10 15:53:14.2700,-0.14,0.01,0.05
2020-08-10 15:53:14.3310,-0.07,0.01,0.02
2020-08-10 15:53:14.4470,-0.09,-0.06,0.06
2020-08-10 15:53:14.5370,0.09,-0.2,0.0
2020-08-10 15:53:14.6180,0.32,-0.39,0.09
2020-08-10 15:53:14.7050,0.6,-0.19,0.25
2020-08-10 15:53:14.7950,0.65,0.13,0.08
2020-08-10 15:53:14.8880,0.68,0.55,-0.06
2020-08-10 15:53:14.9750,0.39,-0.04,-0.09
2020-08-10 15:53:15.0780,-0.18,-0.56,0.1
2020-08-10 15:53:15.1620,-0.64,-0.48,0.13
2020-08-10 15:53:15.2580,-1.18,-0.22,0.02
2020-08-10 15:53:15.3600,-1.03,-0.1,0.02
2020-08-10 15:53:15.4560,-0.03,-0.28,0.14
2020-08-10 15:53:15.5280,-0.12,0.15,0.18
2020-08-10 15:53:15.6080,-0.18,-0.0,0.04
2020-08-10 15:53:15.6960,-0.11,0.01,0.01
2020-08-10 15:53:15.7890,-0.11,0.04,0.06
2020-08-10 15:53:15.8760,-0.07,0.02,0.01
2020-08-10 15:53:15.9670,-0.04,0.01,0.04
2020-08-10 15:53:16.0590,0.0,-0.02,-0.02
2020-08-10 15:53:16.1630,0.08,-0.16,0.09
2020-08-10 15:53:16.2530,0.39,-0.4,-0.01
2020-08-10 15:53:16.3620,0.66,-0.53,0.31
2020-08-10 15:53:16.4290,0.07,0.11,0.09
2020-08-10 15:53:16.5170,0.58,0.29,-0.02
2020-08-10 15:53:16.6170,0.35,0.05,-0.12
2020-08-10 15:53:16.6990,0.03,-0.34,0.05
2020-08-10 15:53:16.8030,-0.5,-0.39,0.2
2020-08-10 15:53:16.8930,-0.95,-0.21,0.14
2020-08-10 15:53:16.9830,-1.16,-0.09,0.01
2020-08-10 15:53:17.0730,-0.51,-0.46,0.13
2020-08-10 15:53:17.1620,-0.49,-0.03,0.19
2020-08-10 15:53:17.2510,-0.05,0.04,0.08
2020-08-10 15:53:17.3420,-0.01,0.0,0.01
2020-08-10 15:53:17.4380,-0.06,0.06,0.03
2020-08-10 15:53:17.5430,-0.04,0.03,0.02
2020-08-10 15:53:17.6080,-0.11,-0.02,0.01
2020-08-10 15:53:17.6910,-0.09,-0.02,-0.01
2020-08-10 15:53:17.7920,0.01,-0.14,0.01
2020-08-10 15:53:17.8830,0.2,-0.37,-0.04
2020-08-10 15:53:17.9730,0.34,-0.35,0.12
2020-08-10 15:53:18.0630,0.24,0.04,0.12
2020-08-10 15:53:18.1530,0.81,0.37,-0.12
2020-08-10 15:53:18.2320,0.6,0.26,-0.08
2020-08-10 15:53:18.3380,0.05,-0.2,-0.02
2020-08-10 15:53:18.4430,-0.54,-0.44,0.17
2020-08-10 15:53:18.5290,-0.8,-0.33,0.15
2020-08-10 15:53:18.5990,-1.24,-0.11,0.07
2020-08-10 15:53:18.6830,1.38,-0.01,-0.33
2020-08-10 15:53:18.7840,-0.62,-0.14,-0.0
2020-08-10 15:53:18.8770,-0.16,0.01,0.06
2020-08-10 15:53:18.9660,0.0,0.04,0.04
2020-08-10 15:53:19.0540,-0.06,0.04,0.04
2020-08-10 15:53:19.1440,-0.15,-0.03,0.01
2020-08-10 15:53:19.2460,-0.06,0.05,0.08
2020-08-10 15:53:19.3300,-0.02,0.01,-0.01
2020-08-10 15:53:19.4290,0.02,-0.09,0.02
2020-08-10 15:53:19.5220,0.18,-0.34,0.02
2020-08-10 15:53:19.6190,0.34,-0.41,0.14
2020-08-10 15:53:19.7150,0.19,-0.14,0.11
2020-08-10 15:53:19.7770,0.96,0.25,0.05
2020-08-10 15:53:19.8680,0.56,0.35,-0.02
2020-08-10 15:53:19.9570,0.12,-0.15,-0.08
2020-08-10 15:53:20.0470,-0.24,-0.28,0.1
2020-08-10 15:53:20.1400,-0.58,-0.43,-0.03
2020-08-10 15:53:20.2270,-1.23,-0.17,0.04
2020-08-10 15:53:20.3170,0.08,-0.15,-0.12
2020-08-10 15:53:20.4120,-0.29,-0.24,0.11
2020-08-10 15:53:20.5110,0.08,0.07,-0.04
2020-08-10 15:53:20.6180,-0.08,-0.02,0.07
2020-08-10 15:53:20.7090,-0.12,0.0,0.05
2020-08-10 15:53:20.7710,-0.1,0.03,0.03
2020-08-10 15:53:20.8580,-0.05,0.03,0.02
2020-08-10 15:53:20.9480,-0.03,-0.01,0.02
2020-08-10 15:53:21.0370,0.08,-0.07,0.01
2020-08-10 15:53:21.1310,0.21,-0.29,0.01
2020-08-10 15:53:21.2170,0.33,-0.53,0.14
2020-08-10 15:53:21.3210,0.29,-0.23,0.23
2020-08-10 15:53:21.4170,0.81,0.42,-0.1
2020-08-10 15:53:21.5080,0.5,0.25,-0.13
2020-08-10 15:53:21.6050,0.06,-0.12,-0.07
2020-08-10 15:53:21.6990,-0.26,-0.27,0.08
2020-08-10 15:53:21.7700,-0.57,-0.39,0.04
2020-08-10 15:53:21.8590,-1.21,-0.19,0.05
2020-08-10 15:53:21.9480,-0.28,-0.17,-0.08
2020-08-10 15:53:22.0480,-0.36,-0.18,0.05
2020-08-10 15:53:22.1440,-0.2,-0.03,-0.07
2020-08-10 15:53:22.2260,-0.06,0.04,0.07
2020-08-10 15:53:22.3240,-0.09,0.02,0.03
2020-08-10 15:53:22.3990,-0.05,0.03,0.02
2020-08-10 15:53:22.4930,-0.05,-0.01,-0.01
2020-08-10 15:53:22.5960,-0.03,0.02,-0.02
2020-08-10 15:53:22.6920,-0.06,-0.08,-0.04
2020-08-10 15:53:22.7890,0.08,-0.2,0.0
2020-08-10 15:53:22.8600,0.41,-0.47,0.07
2020-08-10 15:53:22.9490,0.49,-0.33,0.28
2020-08-10 15:53:23.0330,0.8,0.13,0.03
2020-08-10 15:53:23.1350,0.61,0.34,-0.08
2020-08-10 15:53:23.2250,0.22,-0.05,-0.19
2020-08-10 15:53:23.3000,-0.06,-0.34,0.07
2020-08-10 15:53:23.4060,-0.58,-0.47,0.14
2020-08-10 15:53:23.4950,-1.15,-0.19,0.14
2020-08-10 15:53:23.5890,-1.14,-0.08,-0.0
2020-08-10 15:53:23.6840,-0.29,-0.77,0.09
2020-08-10 15:53:23.7810,-0.45,-0.05,0.11
2020-08-10 15:53:23.8540,-0.03,0.02,-0.05
2020-08-10 15:53:23.9420,-0.04,0.0,0.03
2020-08-10 15:53:24.0230,-0.06,0.03,0.01
2020-08-10 15:53:24.1200,-0.05,0.02,0.01
2020-08-10 15:53:24.2100,-0.01,0.03,0.03
2020-08-10 15:53:24.3040,-0.03,-0.05,0.02
2020-08-10 15:53:24.3940,0.08,-0.17,0.04
2020-08-10 15:53:24.4880,0.31,-0.46,0.04
2020-08-10 15:53:24.5780,0.5,-0.47,0.18
2020-08-10 15:53:24.6800,0.28,0.09,0.17
2020-08-10 15:53:24.7750,0.54,0.35,0.01
2020-08-10 15:53:24.8760,0.42,0.11,-0.13
2020-08-10 15:53:24.9370,-0.04,-0.32,0.04
2020-08-10 15:53:25.0330,-0.45,-0.31,0.17
2020-08-10 15:53:25.1300,-0.78,-0.32,0.04
2020-08-10 15:53:25.2060,-1.18,-0.11,-0.0
2020-08-10 15:53:25.3100,0.4,-0.4,-0.32
2020-08-10 15:53:25.3930,-0.65,-0.09,0.13
2020-08-10 15:53:25.4770,-0.14,0.02,0.08
2020-08-10 15:53:25.5690,0.02,0.03,0.08
2020-08-10 15:53:25.6670,-0.05,0.04,0.04
2020-08-10 15:53:25.7670,0.03,0.05,-0.05
2020-08-10 15:53:25.8400,-0.05,0.04,0.02
2020-08-10 15:53:25.9270,0.0,-0.05,-0.0
2020-08-10 15:53:26.0170,0.1,-0.17,0.08
2020-08-10 15:53:26.1210,0.3,-0.4,0.08
2020-08-10 15:53:26.1950,0.72,-0.58,0.2
2020-08-10 15:53:26.2940,0.1,0.07,0.22
2020-08-10 15:53:26.3900,0.68,0.38,-0.06
2020-08-10 15:53:26.4650,0.42,0.2,-0.11
2020-08-10 15:53:26.5580,-0.05,-0.3,0.02
2020-08-10 15:53:26.6570,-0.65,-0.52,0.29
2020-08-10 15:53:26.7570,-1.27,-0.29,0.2
2020-08-10 15:53:26.8600,-1.05,-0.1,0.07
2020-08-10 15:53:26.9580,-0.46,-0.4,0.09
2020-08-10 15:53:27.0200,-0.23,-0.02,0.15
2020-08-10 15:53:27.1100,-0.16,-0.01,0.07
2020-08-10 15:53:27.2000,-0.08,0.02,0.04
2020-08-10 15:53:27.2900,-0.02,0.04,0.06
2020-08-10 15:53:27.3810,-0.01,0.07,0.0
2020-08-10 15:53:27.4850,-0.05,0.03,0.0
2020-08-10 15:53:27.5680,-0.03,-0.05,-0.05
2020-08-10 15:53:27.6650,0.15,-0.31,0.05
2020-08-10 15:53:27.7470,0.44,-0.51,0.04
2020-08-10 15:53:27.8510,0.59,-0.52,0.2
2020-08-10 15:53:27.9470,0.63,0.16,0.15
2020-08-10 15:53:28.0370,0.6,0.28,0.03
2020-08-10 15:53:28.1160,0.21,-0.12,-0.13
2020-08-10 15:53:28.1950,-0.35,-0.49,0.03
2020-08-10 15:53:28.2940,-0.8,-0.38,0.18
2020-08-10 15:53:28.3830,-1.28,-0.17,0.07
2020-08-10 15:53:28.4720,1.21,-0.35,-0.38
2020-08-10 15:53:28.5590,-0.57,-0.07,0.18
2020-08-10 15:53:28.6580,-0.2,-0.07,0.05
2020-08-10 15:53:28.7410,-0.16,-0.03,0.06
2020-08-10 15:53:28.8370,-0.09,0.02,0.05
2020-08-10 15:53:28.9320,-0.07,0.03,0.03
2020-08-10 15:53:29.0250,-0.12,-0.01,-0.02
2020-08-10 15:53:29.1070,-0.05,-0.03,0.0
2020-08-10 15:53:29.1860,0.1,-0.18,0.01
2020-08-10 15:53:29.2850,0.45,-0.47,0.03
2020-08-10 15:53:29.3730,0.58,-0.42,0.29
2020-08-10 15:53:29.4620,0.3,0.04,0.12
2020-08-10 15:53:29.5520,0.61,0.31,-0.01
2020-08-10 15:53:29.6420,0.38,0.08,-0.17
2020-08-10 15:53:29.7320,-0.18,-0.49,0.09
2020-08-10 15:53:29.8180,-0.69,-0.53,0.12
2020-08-10 15:53:29.9180,-1.24,-0.27,0.06
2020-08-10 15:53:30.0200,-0.75,-0.16,0.05
2020-08-10 15:53:30.0870,-0.38,-0.68,0.39
2020-08-10 15:53:30.1860,0.11,-0.08,-0.03
2020-08-10 15:53:30.2670,-0.03,0.03,0.06
2020-08-10 15:53:30.3650,-0.16,0.02,-0.0
2020-08-10 15:53:30.4520,-0.03,0.08,0.07
2020-08-10 15:53:30.5430,0.05,0.06,0.09
2020-08-10 15:53:30.6270,0.04,0.01,-0.01
2020-08-10 15:53:30.7220,0.01,0.02,0.03
2020-08-10 15:53:30.8080,0.06,-0.12,0.01
2020-08-10 15:53:30.9070,0.31,-0.54,0.15
2020-08-10 15:53:31.0060,0.74,-0.41,0.24
2020-08-10 15:53:31.0870,0.51,0.14,0.13
2020-08-10 15:53:31.1680,0.68,0.4,-0.07
2020-08-10 15:53:31.2670,0.36,-0.03,-0.17
2020-08-10 15:53:31.3460,-0.16,-0.46,0.12
2020-08-10 15:53:31.4450,-0.6,-0.39,0.11
2020-08-10 15:53:31.5340,-1.16,-0.26,0.16
2020-08-10 15:53:31.6160,-1.2,-0.11,0.08
2020-08-10 15:53:31.7120,-0.0,-0.51,0.08
2020-08-10 15:53:31.8080,-0.34,-0.09,0.21
2020-08-10 15:53:31.9050,-0.24,-0.0,0.1
2020-08-10 15:53:32.0110,-0.24,-0.03,0.01
2020-08-10 15:53:32.0780,-0.11,0.06,0.02
2020-08-10 15:53:32.1590,-0.09,0.03,0.02
2020-08-10 15:53:32.2570,-0.07,0.01,0.04
2020-08-10 15:53:32.3370,-0.02,-0.04,0.01
2020-08-10 15:53:32.4260,-0.02,-0.16,0.01
2020-08-10 15:53:32.5240,0.37,-0.39,0.1
2020-08-10 15:53:32.6070,0.7,-0.52,0.27
2020-08-10 15:53:32.7000,0.21,0.25,0.23
2020-08-10 15:53:32.7930,0.7,0.32,-0.1
2020-08-10 15:53:32.8910,0.34,0.05,-0.1
2020-08-10 15:53:32.9920,-0.01,-0.45,-0.04
2020-08-10 15:53:33.0600,-0.71,-0.52,0.21
2020-08-10 15:53:33.1500,-1.2,-0.24,-0.01
2020-08-10 15:53:33.2480,-1.09,-0.1,0.19
2020-08-10 15:53:33.3280,-0.29,-0.13,-0.13
2020-08-10 15:53:33.4160,-0.12,-0.07,0.04
2020-08-10 15:53:33.5090,-0.13,0.03,0.12
2020-08-10 15:53:33.6050,-0.06,0.05,0.05
2020-08-10 15:53:33.6910,-0.12,0.0,0.01
2020-08-10 15:53:33.7860,-0.11,0.02,0.02
2020-08-10 15:53:33.8840,-0.05,-0.02,0.04
2020-08-10 15:53:33.9850,0.03,-0.1,0.01
2020-08-10 15:53:34.0790,0.24,-0.36,0.07
2020-08-10 15:53:34.1480,0.3,-0.51,0.39
2020-08-10 15:53:34.2370,0.11,0.09,0.15
2020-08-10 15:53:34.3280,0.7,0.45,-0.1
2020-08-10 15:53:34.4180,0.43,0.13,-0.22
2020-08-10 15:53:34.5060,0.09,-0.29,0.03
2020-08-10 15:53:34.5990,-0.32,-0.33,0.28
2020-08-10 15:53:34.6860,-0.61,-0.27,0.17
2020-08-10 15:53:34.7760,-1.14,-0.15,0.05
2020-08-10 15:53:34.8730,-0.7,-0.28,-0.25
2020-08-10 15:53:34.9700,-0.17,-0.13,0.26
2020-08-10 15:53:35.0700,-0.1,-0.12,-0.14
2020-08-10 15:53:35.1380,-0.15,0.06,0.11
2020-08-10 15:53:35.2270,-0.14,0.04,0.0
2020-08-10 15:53:35.3170,-0.1,-0.01,0.01
2020-08-10 15:53:35.4100,-0.11,0.04,0.05
2020-08-10 15:53:35.4990,-0.2,0.03,0.01
2020-08-10 15:53:35.5900,-0.06,-0.04,0.03
2020-08-10 15:53:35.6780,0.03,-0.17,0.03
2020-08-10 15:53:35.7670,0.25,-0.38,0.09
2020-08-10 15:53:35.8630,0.57,-0.54,0.2
2020-08-10 15:53:35.9600,0.23,0.2,0.12
2020-08-10 15:53:36.0590,0.58,0.32,-0.08
2020-08-10 15:53:36.1280,0.36,0.21,-0.14
2020-08-10 15:53:36.2180,0.07,-0.27,-0.0
2020-08-10 15:53:36.3090,-0.46,-0.35,0.25
2020-08-10 15:53:36.3980,-0.92,-0.29,0.13
2020-08-10 15:53:36.4880,-1.21,-0.14,-0.02
2020-08-10 15:53:36.5810,-0.7,-0.73,-0.24
2020-08-10 15:53:36.6680,-0.46,0.01,0.42
2020-08-10 15:53:36.7590,-0.06,-0.06,-0.07
2020-08-10 15:53:36.8590,-0.09,0.03,0.08
2020-08-10 15:53:36.9580,-0.15,-0.01,0.06
2020-08-10 15:53:37.0590,-0.1,0.04,0.04
2020-08-10 15:53:37.1180,-0.1,0.01,0.03
2020-08-10 15:53:37.2070,-0.24,-0.04,0.05
2020-08-10 15:53:37.2980,-0.11,-0.1,0.04
2020-08-10 15:53:37.3880,0.14,-0.26,0.05
2020-08-10 15:53:37.4790,0.32,-0.45,0.15
2020-08-10 15:53:37.5680,0.16,-0.11,0.1
2020-08-10 15:53:37.6590,0.64,0.48,-0.15
2020-08-10 15:53:37.7490,0.57,0.28,-0.19
2020-08-10 15:53:37.8460,0.18,-0.16,-0.05
2020-08-10 15:53:37.9470,-0.28,-0.3,0.25
2020-08-10 15:53:38.0450,-0.54,-0.43,0.13
2020-08-10 15:53:38.1080,-1.13,-0.23,0.15
2020-08-10 15:53:38.1980,-1.02,-0.14,0.08
2020-08-10 15:53:38.2890,-0.12,-0.34,0.18
2020-08-10 15:53:38.3790,-0.69,-0.1,0.2
2020-08-10 15:53:38.4680,-0.24,-0.0,0.12
2020-08-10 15:53:38.5590,-0.14,0.03,0.07
2020-08-10 15:53:38.6520,-0.1,0.02,0.08
2020-08-10 15:53:38.7390,-0.1,0.02,0.04
2020-08-10 15:53:38.8350,-0.08,0.03,0.04
2020-08-10 15:53:38.9360,-0.03,-0.04,0.03
2020-08-10 15:53:39.0360,0.0,-0.14,0.03
2020-08-10 15:53:39.0990,0.24,-0.34,0.05
2020-08-10 15:53:39.1890,0.45,-0.42,0.18
2020-08-10 15:53:39.2800,0.07,0.11,0.13
2020-08-10 15:53:39.3680,0.56,0.34,0.04
2020-08-10 15:53:39.4600,0.46,0.23,-0.12
2020-08-10 15:53:39.5490,-0.09,-0.15,0.04
2020-08-10 15:53:39.6430,-0.54,-0.44,0.15
2020-08-10 15:53:39.7440,-1.03,-0.3,0.14
2020-08-10 15:53:39.8290,-1.43,-0.16,-0.02
2020-08-10 15:53:39.9280,-0.77,-0.52,0.07
2020-08-10 15:53:40.0280,-0.74,-0.14,0.2
2020-08-10 15:53:40.0910,-0.18,-0.01,0.12
2020-08-10 15:53:40.1940,-0.21,-0.01,0.03
2020-08-10 15:53:40.2760,-0.13,0.03,0.08
2020-08-10 15:53:40.3750,-0.13,0.02,0.03
2020-08-10 15:53:40.4640,-0.07,0.08,0.09
2020-08-10 15:53:40.5540,-0.09,-0.0,-0.02
2020-08-10 15:53:40.6320,-0.07,-0.14,0.03
2020-08-10 15:53:40.7320,0.16,-0.29,-0.01
2020-08-10 15:53:40.8290,0.33,-0.38,0.3
2020-08-10 15:53:40.9220,0.04,0.16,0.12
2020-08-10 15:53:41.0180,0.56,0.39,-0.08
2020-08-10 15:53:41.0830,0.39,0.25,-0.1
2020-08-10 15:53:41.1840,0.01,-0.21,0.17
2020-08-10 15:53:41.2770,-0.4,-0.38,0.2
2020-08-10 15:53:41.3640,-0.9,-0.41,0.24
2020-08-10 15:53:41.4550,-1.49,-0.19,0.19
2020-08-10 15:53:41.5440,0.75,-0.45,-0.33
2020-08-10 15:53:41.6470,-0.87,-0.24,0.29
2020-08-10 15:53:41.7400,-0.23,-0.01,0.12
2020-08-10 15:53:41.8150,-0.13,0.01,0.07
2020-08-10 15:53:41.9200,-0.15,0.05,0.08
2020-08-10 15:53:42.0120,-0.12,0.05,0.09
2020-08-10 15:53:42.1060,-0.15,0.02,0.03
2020-08-10 15:53:42.1750,-0.1,0.01,0.06
2020-08-10 15:53:42.2680,-0.08,-0.07,0.05
2020-08-10 15:53:42.3550,0.02,-0.24,0.13
2020-08-10 15:53:42.4450,0.23,-0.4,0.16
2020-08-10 15:53:42.5350,0.24,-0.05,0.17
2020-08-10 15:53:42.6370,0.62,0.42,-0.11
2020-08-10 15:53:42.7300,0.47,0.34,-0.03
2020-08-10 15:53:42.8140,0.12,-0.12,0.01
2020-08-10 15:53:42.9010,-0.24,-0.35,0.07
2020-08-10 15:53:43.0010,-0.66,-0.36,0.16
2020-08-10 15:53:43.0950,-1.29,-0.26,0.12
2020-08-10 15:53:43.1920,-0.89,-0.33,-0.06
2020-08-10 15:53:43.2910,-0.33,-0.15,0.24
2020-08-10 15:53:43.3600,-0.43,-0.02,0.1
2020-08-10 15:53:43.4410,-0.3,-0.02,0.15
2020-08-10 15:53:43.5300,-0.27,-0.02,0.06
2020-08-10 15:53:43.6200,-0.15,-0.02,0.05
2020-08-10 15:53:43.7080,-0.1,0.04,0.09
2020-08-10 15:53:43.7990,-0.11,0.02,0.08
2020-08-10 15:53:43.8890,-0.22,-0.01,0.03
2020-08-10 15:53:43.9850,-0.13,-0.13,0.05
2020-08-10 15:53:44.0850,0.14,-0.35,0.06
2020-08-10 15:53:44.1810,0.62,-0.37,0.21
2020-08-10 15:53:44.2610,0.11,0.22,0.08
2020-08-10 15:53:44.3420,0.59,0.35,-0.04
2020-08-10 15:53:44.4400,0.32,0.24,-0.07
2020-08-10 15:53:44.5300,-0.08,-0.21,0.05
2020-08-10 15:53:44.6110,-0.52,-0.38,0.16
2020-08-10 15:53:44.6970,-0.96,-0.32,0.19
2020-08-10 15:53:44.7890,-1.44,-0.16,0.09
2020-08-10 15:53:44.8780,-0.22,-0.68,-0.31
2020-08-10 15:53:44.9730,-0.57,-0.19,0.39
2020-08-10 15:53:45.0730,-0.02,-0.08,0.02
2020-08-10 15:53:45.1850,-0.09,-0.03,0.06
2020-08-10 15:53:45.2710,-0.19,0.01,0.06
2020-08-10 15:53:45.3410,-0.04,0.1,0.15
2020-08-10 15:53:45.4300,-0.02,0.04,0.03
2020-08-10 15:53:45.5210,-0.1,-0.03,0.03
2020-08-10 15:53:45.6120,-0.1,-0.08,0.03
2020-08-10 15:53:45.7090,0.2,-0.41,0.05
2020-08-10 15:53:45.8050,0.42,-0.42,0.16
2020-08-10 15:53:45.8870,0.08,0.26,0.01
2020-08-10 15:53:45.9770,0.58,0.34,0.01
2020-08-10 15:53:46.0750,0.3,0.15,-0.08
2020-08-10 15:53:46.1670,-0.07,-0.3,0.08
2020-08-10 15:53:46.2740,-0.53,-0.4,0.19
2020-08-10 15:53:46.3590,-0.97,-0.3,0.17
2020-08-10 15:53:46.4250,-1.29,-0.16,0.11
2020-08-10 15:53:46.5410,0.24,-0.63,-0.28
2020-08-10 15:53:46.6150,-0.85,-0.21,0.29
2020-08-10 15:53:46.7110,-0.23,0.02,0.09
2020-08-10 15:53:46.7960,-0.16,0.02,0.11
2020-08-10 15:53:46.8850,-0.18,0.0,0.07
2020-08-10 15:53:46.9780,-0.12,0.04,0.09
2020-08-10 15:53:47.0680,-0.21,-0.01,0.03
2020-08-10 15:53:47.1600,-0.17,0.01,0.1
2020-08-10 15:53:47.2680,-0.16,-0.08,0.03
2020-08-10 15:53:47.3580,0.02,-0.28,0.13
2020-08-10 15:53:47.4260,0.31,-0.36,0.16
2020-08-10 15:53:47.5180,0.01,0.03,0.1
2020-08-10 15:53:47.6080,0.7,0.4,-0.07
2020-08-10 15:53:47.7050,0.43,0.31,-0.04
2020-08-10 15:53:47.8010,0.16,-0.03,-0.1
2020-08-10 15:53:47.8760,-0.27,-0.31,0.15
2020-08-10 15:53:47.9820,-0.73,-0.48,0.2
2020-08-10 15:53:48.0570,-1.22,-0.34,0.08
2020-08-10 15:53:48.1520,-0.48,-0.23,-0.06
2020-08-10 15:53:48.2590,-0.48,-0.39,0.24
2020-08-10 15:53:48.3270,-0.14,-0.03,0.07
2020-08-10 15:53:48.4160,-0.08,-0.0,0.12
2020-08-10 15:53:48.5060,-0.23,-0.04,0.07
2020-08-10 15:53:48.5980,-0.14,0.01,0.08
2020-08-10 15:53:48.6870,-0.17,0.02,0.06
2020-08-10 15:53:48.7770,-0.15,0.07,0.07
2020-08-10 15:53:48.8710,-0.12,-0.04,-0.0
2020-08-10 15:53:48.9710,0.02,-0.3,0.1
2020-08-10 15:53:49.0490,0.37,-0.56,0.16
2020-08-10 15:53:49.1500,0.02,0.01,0.12
2020-08-10 15:53:49.2400,0.73,0.54,-0.11
2020-08-10 15:53:49.3390,0.51,0.31,-0.05
2020-08-10 15:53:49.4080,0.03,-0.04,-0.0
2020-08-10 15:53:49.5000,-0.47,-0.37,0.22
2020-08-10 15:53:49.6010,-0.88,-0.45,0.22
2020-08-10 15:53:49.6790,-1.3,-0.27,0.1
2020-08-10 15:53:49.7740,1.02,-0.16,-0.32
2020-08-10 15:53:49.8600,-0.48,-0.24,0.28
2020-08-10 15:53:49.9620,-0.06,0.02,0.13
2020-08-10 15:53:50.0520,-0.23,-0.03,0.05
2020-08-10 15:53:50.1320,-0.27,-0.0,0.1
2020-08-10 15:53:50.2370,-0.21,0.0,0.08
2020-08-10 15:53:50.3360,-0.2,-0.0,0.09
2020-08-10 15:53:50.4270,-0.19,0.01,0.06
2020-08-10 15:53:50.4910,-0.22,-0.05,0.02
2020-08-10 15:53:50.5910,-0.02,-0.28,0.15
2020-08-10 15:53:50.6810,0.28,-0.5,0.18
2020-08-10 15:53:50.7570,0.17,-0.11,0.21
2020-08-10 15:53:50.8510,0.76,0.43,-0.01
2020-08-10 15:53:50.9520,0.41,0.43,-0.08
2020-08-10 15:53:51.0420,0.04,-0.07,-0.02
2020-08-10 15:53:51.1310,-0.39,-0.34,0.21
2020-08-10 15:53:51.2180,-0.62,-0.4,0.14
2020-08-10 15:53:51.3190,-1.26,-0.24,0.02
2020-08-10 15:53:51.4180,-0.75,-0.24,-0.01
2020-08-10 15:53:51.5260,0.08,-0.35,0.1
2020-08-10 15:53:51.5810,-0.35,0.06,0.11
2020-08-10 15:53:51.6790,-0.36,-0.03,0.18
2020-08-10 15:53:51.7770,-0.26,-0.03,0.11
2020-08-10 15:53:51.8510,-0.21,0.03,0.11
2020-08-10 15:53:51.9410,-0.18,0.0,0.07
2020-08-10 15:53:52.0320,-0.26,-0.02,0.04
2020-08-10 15:53:52.1220,-0.18,0.04,0.05
2020-08-10 15:53:52.2150,-0.04,-0.14,0.04
2020-08-10 15:53:52.3120,0.15,-0.41,0.02
2020-08-10 15:53:52.4080,0.59,-0.39,0.28
2020-08-10 15:53:52.5120,0.14,0.17,0.14
2020-08-10 15:53:52.5880,0.63,0.45,-0.01
2020-08-10 15:53:52.6620,0.36,0.15,-0.05
2020-08-10 15:53:52.7680,-0.12,-0.31,0.16
2020-08-10 15:53:52.8410,-0.76,-0.49,0.22
2020-08-10 15:53:52.9320,-1.22,-0.32,0.23
2020-08-10 15:53:53.0220,-1.43,-0.19,0.12
2020-08-10 15:53:53.1120,-0.84,-0.43,0.36
2020-08-10 15:53:53.2050,-0.83,-0.16,0.2
2020-08-10 15:53:53.3010,-0.39,-0.08,0.09
2020-08-10 15:53:53.4020,-0.23,-0.02,0.1
2020-08-10 15:53:53.5000,-0.17,0.01,0.08
2020-08-10 15:53:53.5620,-0.17,-0.01,0.1
2020-08-10 15:53:53.6520,-0.14,0.03,0.07
2020-08-10 15:53:53.7510,-0.12,-0.04,0.12
2020-08-10 15:53:53.8480,-0.05,-0.2,-0.01
2020-08-10 15:53:53.9380,0.22,-0.52,0.24
2020-08-10 15:53:54.0120,0.43,-0.2,0.2
2020-08-10 15:53:54.1030,0.86,0.43,0.16
2020-08-10 15:53:54.1960,0.45,0.43,0.05
2020-08-10 15:53:54.2980,0.12,-0.01,-0.11
2020-08-10 15:53:54.3940,-0.33,-0.35,0.11
2020-08-10 15:53:54.4930,-0.69,-0.48,0.13
2020-08-10 15:53:54.5910,-1.22,-0.31,0.15
2020-08-10 15:53:54.6580,-1.22,-0.18,0.08
2020-08-10 15:53:54.7420,-0.18,-0.48,0.16
2020-08-10 15:53:54.8380,-0.8,-0.13,0.27
2020-08-10 15:53:54.9190,-0.25,-0.03,0.18
2020-08-10 15:53:55.0180,-0.17,-0.01,0.06
2020-08-10 15:53:55.1000,-0.2,-0.01,0.1
2020-08-10 15:53:55.1870,-0.2,-0.01,0.07
2020-08-10 15:53:55.2840,-0.2,0.0,0.11
2020-08-10 15:53:55.3850,-0.23,-0.02,0.06
2020-08-10 15:53:55.4870,-0.06,-0.08,0.12
2020-08-10 15:53:55.5460,0.11,-0.34,0.08
2020-08-10 15:53:55.6490,0.22,-0.51,0.14
2020-08-10 15:53:55.7380,0.03,0.27,0.17
2020-08-10 15:53:55.8200,0.5,0.39,-0.04
2020-08-10 15:53:55.9130,0.34,0.2,-0.06
2020-08-10 15:53:56.0020,-0.06,-0.18,0.14
2020-08-10 15:53:56.0970,-0.61,-0.31,0.3
2020-08-10 15:53:56.1780,-0.95,-0.54,0.14
2020-08-10 15:53:56.2750,-1.55,-0.22,0.06
2020-08-10 15:53:56.3740,0.98,-0.54,-0.11
2020-08-10 15:53:56.4770,-0.2,-0.01,0.43
2020-08-10 15:53:56.5360,-0.1,-0.1,-0.11
2020-08-10 15:53:56.6390,-0.14,0.0,0.06
2020-08-10 15:53:56.7230,-0.23,0.04,0.1
2020-08-10 15:53:56.8100,-0.25,-0.01,0.08
2020-08-10 15:53:56.9020,-0.23,0.03,0.07
2020-08-10 15:53:56.9990,-0.19,0.01,0.13
2020-08-10 15:53:57.0770,-0.17,-0.02,-0.0
2020-08-10 15:53:57.1690,-0.06,-0.25,0.05
2020-08-10 15:53:57.2870,0.21,-0.52,0.15
2020-08-10 15:53:57.3680,0.41,-0.07,0.22
2020-08-10 15:53:57.4740,0.7,0.37,0.14
2020-08-10 15:53:57.5270,0.51,0.41,-0.02
2020-08-10 15:53:57.6170,0.1,0.04,-0.06
2020-08-10 15:53:57.7190,-0.3,-0.34,0.23
2020-08-10 15:53:57.8080,-0.7,-0.48,0.17
2020-08-10 15:53:57.8930,-1.46,-0.3,0.07
2020-08-10 15:53:57.9830,-0.03,-0.27,-0.05
2020-08-10 15:53:58.0790,-0.39,-0.31,0.03
2020-08-10 15:53:58.1720,0.11,-0.06,-0.03
2020-08-10 15:53:58.2540,-0.22,-0.04,0.12
2020-08-10 15:53:58.3570,-0.32,-0.03,0.12
2020-08-10 15:53:58.4540,-0.27,0.01,0.12
2020-08-10 15:53:58.5230,-0.31,-0.04,0.04
2020-08-10 15:53:58.6070,-0.19,-0.0,0.12
2020-08-10 15:53:58.7040,-0.21,-0.08,0.0
2020-08-10 15:53:58.7990,-0.09,-0.16,0.05
2020-08-10 15:53:58.8810,0.17,-0.39,0.13
2020-08-10 15:53:58.9790,0.4,-0.24,0.25
2020-08-10 15:53:59.0600,0.77,0.29,0.1
2020-08-10 15:53:59.1640,0.46,0.4,-0.01
2020-08-10 15:53:59.2470,0.17,0.11,-0.06
2020-08-10 15:53:59.3470,-0.24,-0.26,0.15
2020-08-10 15:53:59.4170,-0.58,-0.39,0.18
2020-08-10 15:53:59.5070,-1.21,-0.45,0.04
2020-08-10 15:53:59.5980,-1.39,-0.23,0.01
2020-08-10 15:53:59.6860,-1.01,-1.04,-0.12
2020-08-10 15:53:59.7880,-0.35,-0.07,0.33
2020-08-10 15:53:59.8780,-0.2,-0.08,0.04
2020-08-10 15:53:59.9690,-0.21,-0.02,0.07
2020-08-10 15:54:00.0580,-0.24,0.01,0.09
2020-08-10 15:54:00.1520,-0.23,-0.01,0.09
2020-08-10 15:54:00.2470,-0.14,0.02,0.04
2020-08-10 15:54:00.3450,-0.22,-0.05,0.02
2020-08-10 15:54:00.4350,-0.09,-0.16,0.06
2020-08-10 15:54:00.5360,0.2,-0.45,0.05
2020-08-10 15:54:00.6330,0.61,-0.45,0.22
2020-08-10 15:54:00.7030,-0.07,0.18,0.25
2020-08-10 15:54:00.7820,0.45,0.46,0.11
2020-08-10 15:54:00.8790,0.2,0.16,-0.01
2020-08-10 15:54:00.9630,-0.19,-0.39,0.04
2020-08-10 15:54:01.0620,-0.55,-0.4,0.12
2020-08-10 15:54:01.1510,-1.15,-0.34,0.11
2020-08-10 15:54:01.2330,-1.38,-0.14,0.17
2020-08-10 15:54:01.3290,-0.69,-0.96,-0.11
2020-08-10 15:54:01.4210,-0.38,-0.12,0.22
2020-08-10 15:54:01.5180,-0.38,-0.12,-0.03
2020-08-10 15:54:01.6190,-0.25,-0.01,0.1
2020-08-10 15:54:01.7170,-0.26,-0.02,0.05
2020-08-10 15:54:01.7850,-0.23,-0.02,0.03
2020-08-10 15:54:01.8740,-0.23,0.0,0.03
2020-08-10 15:54:01.9500,-0.14,0.08,0.06
2020-08-10 15:54:02.0430,-0.09,-0.02,0.07
2020-08-10 15:54:02.1420,-0.02,-0.2,-0.02
2020-08-10 15:54:02.2230,0.34,-0.56,0.18
2020-08-10 15:54:02.3200,-0.03,-0.05,0.13
2020-08-10 15:54:02.4150,0.63,0.5,-0.11
2020-08-10 15:54:02.5090,0.45,0.39,-0.05
2020-08-10 15:54:02.6070,0.12,-0.11,0.03
2020-08-10 15:54:02.6760,-0.26,-0.29,0.16
2020-08-10 15:54:02.7750,-0.63,-0.39,0.18
2020-08-10 15:54:02.8640,-1.14,-0.25,-0.01
2020-08-10 15:54:02.9400,-1.43,-0.17,0.17
2020-08-10 15:54:03.0430,-0.33,-0.31,0.16
2020-08-10 15:54:03.1320,-0.42,0.13,0.18
2020-08-10 15:54:03.2140,-0.31,-0.05,0.14
2020-08-10 15:54:03.3100,-0.27,-0.02,0.08
2020-08-10 15:54:03.4010,-0.27,0.0,0.04
2020-08-10 15:54:03.5050,-0.21,0.02,0.09
2020-08-10 15:54:03.5990,-0.14,-0.01,0.02
2020-08-10 15:54:03.6990,-0.13,-0.02,0.04
2020-08-10 15:54:03.7660,-0.06,-0.13,0.03
2020-08-10 15:54:03.8550,0.25,-0.35,0.14
2020-08-10 15:54:03.9320,0.6,-0.61,0.24
2020-08-10 15:54:04.0340,0.58,0.27,0.08
2020-08-10 15:54:04.1250,0.47,0.44,0.08
2020-08-10 15:54:04.2310,0.3,0.12,-0.08
2020-08-10 15:54:04.3210,-0.16,-0.26,0.08
2020-08-10 15:54:04.3950,-0.64,-0.38,0.23
2020-08-10 15:54:04.4890,-1.0,-0.3,0.26
2020-08-10 15:54:04.5890,-1.31,-0.15,0.05
2020-08-10 15:54:04.6860,-0.06,-0.56,-0.5
2020-08-10 15:54:04.7870,-0.91,-0.21,0.34
2020-08-10 15:54:04.8450,-0.28,-0.08,0.09
2020-08-10 15:54:04.9510,-0.24,-0.02,0.04
2020-08-10 15:54:05.0340,-0.19,0.0,0.04
2020-08-10 15:54:05.1140,-0.1,0.01,0.15
2020-08-10 15:54:05.2210,-0.16,0.04,0.07
2020-08-10 15:54:05.2950,-0.16,0.01,-0.02
2020-08-10 15:54:05.3860,-0.07,-0.11,0.03
2020-08-10 15:54:05.4800,0.13,-0.26,0.05
2020-08-10 15:54:05.5780,0.21,-0.28,0.21
2020-08-10 15:54:05.6900,-0.05,0.08,-0.01
2020-08-10 15:54:05.7460,0.66,0.36,-0.02
2020-08-10 15:54:05.8360,0.42,0.39,-0.03
2020-08-10 15:54:05.9250,0.02,-0.16,-0.03
2020-08-10 15:54:06.0170,-0.39,-0.28,0.07
2020-08-10 15:54:06.1080,-0.73,-0.59,0.03
2020-08-10 15:54:06.1980,-1.32,-0.3,0.15
2020-08-10 15:54:06.3010,-0.19,-0.28,-0.21
2020-08-10 15:54:06.3800,-0.69,-0.28,0.14
2020-08-10 15:54:06.4730,-0.08,-0.01,0.08
2020-08-10 15:54:06.5710,-0.11,-0.01,0.1
2020-08-10 15:54:06.6690,-0.25,-0.0,0.07
2020-08-10 15:54:06.7390,-0.15,0.01,0.07
2020-08-10 15:54:06.8290,-0.12,0.06,0.1
2020-08-10 15:54:06.9190,-0.11,0.03,0.0
2020-08-10 15:54:07.0090,-0.11,-0.08,0.02
2020-08-10 15:54:07.0980,0.03,-0.26,0.07
2020-08-10 15:54:07.1900,0.25,-0.5,0.17
2020-08-10 15:54:07.2920,-0.15,-0.09,0.19
2020-08-10 15:54:07.3810,0.71,0.43,-0.12
2020-08-10 15:54:07.4720,0.51,0.37,-0.05
2020-08-10 15:54:07.5770,0.04,-0.21,0.04
2020-08-10 15:54:07.6600,-0.35,-0.34,0.22
2020-08-10 15:54:07.7610,-0.71,-0.43,0.23
2020-08-10 15:54:07.8580,-1.33,-0.25,-0.02
2020-08-10 15:54:07.9370,-0.96,-0.32,0.05
2020-08-10 15:54:08.0170,-0.32,-0.2,0.01
2020-08-10 15:54:08.1150,-0.3,-0.08,-0.02
2020-08-10 15:54:08.2040,-0.2,-0.02,0.14
2020-08-10 15:54:08.2930,-0.28,0.01,0.09
2020-08-10 15:54:08.3820,-0.23,-0.02,0.05
2020-08-10 15:54:08.4700,-0.25,-0.01,0.04
2020-08-10 15:54:08.5610,-0.17,0.07,0.05
2020-08-10 15:54:08.6520,-0.12,-0.01,0.01
2020-08-10 15:54:08.7470,-0.13,-0.14,0.03
2020-08-10 15:54:08.8520,0.2,-0.34,-0.0
2020-08-10 15:54:08.9440,0.35,-0.56,0.41
2020-08-10 15:54:09.0060,0.34,0.1,0.02
2020-08-10 15:54:09.0960,0.77,0.48,-0.1
2020-08-10 15:54:09.1870,0.44,0.18,-0.12
2020-08-10 15:54:09.2840,-0.11,-0.31,0.03
2020-08-10 15:54:09.3730,-0.64,-0.56,0.17
2020-08-10 15:54:09.4620,-1.23,-0.36,0.21
2020-08-10 15:54:09.5490,-1.35,-0.19,0.13
2020-08-10 15:54:09.6450,-0.56,-0.68,0.14
2020-08-10 15:54:09.7390,-0.56,-0.12,0.27
2020-08-10 15:54:09.8410,-0.28,-0.04,0.07
2020-08-10 15:54:09.9360,-0.23,-0.01,0.08
2020-08-10 15:54:10.0070,-0.23,-0.0,0.05
2020-08-10 15:54:10.0870,-0.2,-0.01,0.05
2020-08-10 15:54:10.1850,-0.21,0.0,0.03
2020-08-10 15:54:10.2740,-0.22,-0.04,0.03
2020-08-10 15:54:10.3630,-0.15,-0.09,0.01
2020-08-10 15:54:10.4530,0.03,-0.27,0.08
2020-08-10 15:54:10.5440,0.26,-0.44,0.18
2020-08-10 15:54:10.6510,0.27,0.27,0.1
2020-08-10 15:54:10.7410,0.49,0.26,0.13
2020-08-10 15:54:10.8360,0.45,0.4,-0.06
2020-08-10 15:54:10.9500,0.18,-0.0,-0.02
2020-08-10 15:54:10.9970,-0.2,-0.15,0.19
2020-08-10 15:54:11.1410,-0.65,-0.52,0.12
2020-08-10 15:54:11.1790,-1.3,-0.29,0.05
2020-08-10 15:54:11.2680,-0.79,-0.34,-0.11
2020-08-10 15:54:11.3590,-0.13,-0.27,0.06
2020-08-10 15:54:11.4620,-0.16,-0.13,-0.05
2020-08-10 15:54:11.5520,-0.21,-0.0,0.1
2020-08-10 15:54:11.6300,-0.26,-0.02,0.07
2020-08-10 15:54:11.7220,-0.2,0.01,0.08
2020-08-10 15:54:11.8190,-0.17,0.0,0.03
2020-08-10 15:54:11.9310,-0.2,-0.01,0.02
2020-08-10 15:54:12.0160,-0.09,-0.01,-0.01
2020-08-10 15:54:12.0810,-0.04,-0.14,0.09
2020-08-10 15:54:12.1830,0.26,-0.47,0.03
2020-08-10 15:54:12.2580,0.58,-0.66,0.29
2020-08-10 15:54:12.3480,0.06,0.21,0.14
2020-08-10 15:54:12.4530,0.59,0.39,-0.04
2020-08-10 15:54:12.5420,0.4,0.07,-0.14
2020-08-10 15:54:12.6180,-0.08,-0.29,0.13
2020-08-10 15:54:12.7110,-0.54,-0.41,0.22
2020-08-10 15:54:12.8100,-0.97,-0.43,0.06
2020-08-10 15:54:12.9090,-1.53,-0.18,0.15
2020-08-10 15:54:13.0100,0.44,-0.4,-0.29
2020-08-10 15:54:13.0710,-0.48,-0.24,0.31
2020-08-10 15:54:13.1720,-0.14,-0.06,0.03
2020-08-10 15:54:13.2490,-0.09,0.03,0.08
2020-08-10 15:54:13.3380,-0.21,0.01,0.04
2020-08-10 15:54:13.4310,-0.14,-0.01,0.01
2020-08-10 15:54:13.5320,-0.13,0.04,0.07
2020-08-10 15:54:13.6090,-0.01,0.0,-0.01
2020-08-10 15:54:13.7120,0.01,-0.13,-0.08
2020-08-10 15:54:13.8040,0.23,-0.4,0.11
2020-08-10 15:54:13.8990,0.23,-0.58,0.2
2020-08-10 15:54:14.0020,0.09,0.1,0.01
2020-08-10 15:54:14.0670,0.53,0.43,-0.05
2020-08-10 15:54:14.1630,0.44,0.15,-0.09
2020-08-10 15:54:14.2530,0.01,-0.17,0.08
2020-08-10 15:54:14.3280,-0.44,-0.34,0.22
2020-08-10 15:54:14.4330,-0.84,-0.41,0.16
2020-08-10 15:54:14.5230,-1.34,-0.24,0.03
2020-08-10 15:54:14.6130,1.17,-0.24,-0.11
2020-08-10 15:54:14.6920,-0.36,-0.15,0.02
2020-08-10 15:54:14.7900,-0.36,-0.07,-0.09
2020-08-10 15:54:14.8890,-0.25,-0.03,0.15
2020-08-10 15:54:14.9900,-0.21,0.02,0.08
2020-08-10 15:54:15.0600,-0.15,0.03,0.04
2020-08-10 15:54:15.1430,-0.11,0.08,0.07
2020-08-10 15:54:15.2320,-0.01,0.0,-0.01
2020-08-10 15:54:15.3330,-0.13,-0.03,-0.05
2020-08-10 15:54:15.4280,-0.05,-0.14,-0.02
2020-08-10 15:54:15.5120,0.2,-0.23,0.02
2020-08-10 15:54:15.6030,0.35,-0.38,0.23
2020-08-10 15:54:15.6940,-0.04,-0.0,0.04
2020-08-10 15:54:15.7890,0.74,0.37,-0.14
2020-08-10 15:54:15.8820,0.4,0.29,-0.05
2020-08-10 15:54:15.9790,0.12,-0.17,-0.01
2020-08-10 15:54:16.0780,-0.33,-0.34,0.17
2020-08-10 15:54:16.1430,-0.8,-0.57,0.19
2020-08-10 15:54:16.2400,-1.53,-0.22,0.13
2020-08-10 15:54:16.3230,1.74,-0.22,-0.33
2020-08-10 15:54:16.4170,-0.54,-0.56,0.22
2020-08-10 15:54:16.5030,-0.07,0.04,0.01
2020-08-10 15:54:16.5930,-0.05,0.03,0.06
2020-08-10 15:54:16.6840,-0.18,0.02,0.05
2020-08-10 15:54:16.7780,-0.15,0.02,0.02
2020-08-10 15:54:16.8790,-0.11,0.01,0.01
2020-08-10 15:54:16.9740,-0.03,-0.01,0.1
2020-08-10 15:54:17.0780,-0.04,-0.13,-0.02
2020-08-10 15:54:17.1490,0.09,-0.25,0.06
2020-08-10 15:54:17.2320,0.4,-0.27,0.12
2020-08-10 15:54:17.3290,0.16,-0.06,0.1
2020-08-10 15:54:17.4100,0.7,0.34,-0.04
2020-08-10 15:54:17.5090,0.55,0.36,-0.07
2020-08-10 15:54:17.5920,0.2,-0.18,-0.09
2020-08-10 15:54:17.6770,-0.25,-0.38,0.14
2020-08-10 15:54:17.7740,-0.84,-0.54,0.25
2020-08-10 15:54:17.8640,-1.81,-0.24,0.19
2020-08-10 15:54:17.9630,1.85,-0.43,-0.36
2020-08-10 15:54:18.0640,-0.75,-0.46,0.23
2020-08-10 15:54:18.1610,-0.38,-0.06,0.06
2020-08-10 15:54:18.2220,-0.12,0.01,0.02
2020-08-10 15:54:18.3190,-0.21,-0.02,0.04
2020-08-10 15:54:18.4000,-0.15,0.02,0.02
2020-08-10 15:54:18.4990,-0.05,0.0,0.01
2020-08-10 15:54:18.5810,-0.02,-0.1,0.03
2020-08-10 15:54:18.6670,0.0,-0.21,0.02
2020-08-10 15:54:18.7570,0.34,-0.4,0.01
2020-08-10 15:54:18.8560,0.68,-0.54,0.25
2020-08-10 15:54:18.9540,0.35,0.07,0.21
2020-08-10 15:54:19.0580,0.63,0.4,-0.01
2020-08-10 15:54:19.1520,0.23,0.0,-0.08
2020-08-10 15:54:19.2190,-0.11,-0.2,0.19
2020-08-10 15:54:19.3020,-0.52,-0.44,0.12
2020-08-10 15:54:19.3910,-1.23,-0.33,0.07
2020-08-10 15:54:19.4900,-1.59,-0.21,0.08
2020-08-10 15:54:19.5720,-0.28,-0.12,0.1
2020-08-10 15:54:19.6600,0.11,-0.03,-0.1
2020-08-10 15:54:19.7490,-0.08,0.0,0.07
2020-08-10 15:54:19.8490,-0.16,0.04,0.05
2020-08-10 15:54:19.9440,-0.17,0.0,0.01
2020-08-10 15:54:20.0460,-0.11,0.04,0.03
2020-08-10 15:54:20.1420,-0.09,0.01,0.0
2020-08-10 15:54:20.2100,-0.04,-0.1,-0.02
2020-08-10 15:54:20.2990,0.13,-0.31,0.07
2020-08-10 15:54:20.3900,0.38,-0.65,0.18
2020-08-10 15:54:20.4790,0.14,-0.09,0.09
2020-08-10 15:54:20.5700,0.8,0.4,-0.12
2020-08-10 15:54:20.6610,0.49,0.31,-0.04
2020-08-10 15:54:20.7490,0.15,-0.19,-0.05
2020-08-10 15:54:20.8380,-0.34,-0.36,0.22
2020-08-10 15:54:20.9350,-0.67,-0.39,0.1
2020-08-10 15:54:21.0380,-1.29,-0.2,0.11
2020-08-10 15:54:21.1100,-1.32,-0.3,-0.07
2020-08-10 15:54:21.1990,-0.48,-0.34,0.15
2020-08-10 15:54:21.2890,0.16,0.03,-0.05
2020-08-10 15:54:21.3850,-0.05,0.01,0.02
2020-08-10 15:54:21.4790,-0.36,-0.05,0.01
2020-08-10 15:54:21.5650,-0.13,0.03,0.05
2020-08-10 15:54:21.6650,-0.1,0.05,0.02
2020-08-10 15:54:21.7470,-0.08,0.02,0.01
2020-08-10 15:54:21.8450,-0.08,-0.12,-0.01
2020-08-10 15:54:21.9350,0.08,-0.29,0.09
2020-08-10 15:54:22.0280,0.34,-0.46,0.15
2020-08-10 15:54:22.1340,0.41,-0.18,0.15
2020-08-10 15:54:22.1910,0.79,0.24,0.12
2020-08-10 15:54:22.2910,0.57,0.32,-0.06
2020-08-10 15:54:22.3730,0.19,-0.07,-0.07
2020-08-10 15:54:22.4700,-0.14,-0.26,0.09
2020-08-10 15:54:22.5560,-0.6,-0.54,0.09
2020-08-10 15:54:22.6550,-1.53,-0.29,0.02
2020-08-10 15:54:22.7450,0.56,-0.16,-0.19
2020-08-10 15:54:22.8350,-0.67,-0.18,0.37
2020-08-10 15:54:22.9250,0.11,-0.0,-0.02
2020-08-10 15:54:23.0180,-0.05,0.04,0.05
2020-08-10 15:54:23.1230,-0.19,0.0,0.05
2020-08-10 15:54:23.1840,-0.18,0.02,0.03
2020-08-10 15:54:23.2820,-0.2,-0.02,0.0
2020-08-10 15:54:23.3640,-0.2,-0.02,0.06
2020-08-10 15:54:23.4600,-0.05,-0.11,-0.01
2020-08-10 15:54:23.5470,0.14,-0.35,0.06
2020-08-10 15:54:23.6450,0.26,-0.46,0.12
2020-08-10 15:54:23.7280,0.22,-0.06,0.07
2020-08-10 15:54:23.8250,0.71,0.43,-0.12
2020-08-10 15:54:23.9160,0.5,0.28,-0.06
2020-08-10 15:54:24.0110,0.04,-0.15,0.03
2020-08-10 15:54:24.1050,-0.38,-0.31,0.17
2020-08-10 15:54:24.2040,-0.89,-0.6,0.23
2020-08-10 15:54:24.2730,-1.79,-0.19,0.12
2020-08-10 15:54:24.3540,-1.4,-0.98,-0.4
2020-08-10 15:54:24.4510,-0.76,-0.14,0.34
2020-08-10 15:54:24.5360,-0.26,-0.04,0.03
2020-08-10 15:54:24.6350,-0.18,-0.02,0.02
2020-08-10 15:54:24.7250,-0.1,0.03,0.05
2020-08-10 15:54:24.8010,-0.09,0.03,0.05
2020-08-10 15:54:24.8980,-0.11,0.05,-0.01
2020-08-10 15:54:24.9980,-0.07,-0.07,-0.04
2020-08-10 15:54:25.0950,0.06,-0.25,0.03
2020-08-10 15:54:25.1940,0.44,-0.55,0.08
2020-08-10 15:54:25.2920,0.17,-0.19,0.17
2020-08-10 15:54:25.3550,0.88,0.41,-0.01
2020-08-10 15:54:25.4610,0.61,0.44,-0.05
2020-08-10 15:54:25.5350,0.17,-0.09,-0.05
2020-08-10 15:54:25.6250,-0.28,-0.35,0.14
2020-08-10 15:54:25.7220,-0.66,-0.51,0.09
2020-08-10 15:54:25.8080,-1.29,-0.3,-0.05
2020-08-10 15:54:25.8990,-0.02,-0.23,0.03
2020-08-10 15:54:25.9870,-0.49,-0.31,-0.01
2020-08-10 15:54:26.0860,-0.29,-0.04,-0.04
2020-08-10 15:54:26.1840,-0.11,-0.03,0.08
2020-08-10 15:54:26.2860,-0.16,0.02,0.07
2020-08-10 15:54:26.3450,-0.17,0.04,0.04
2020-08-10 15:54:26.4520,-0.12,0.01,-0.0
2020-08-10 15:54:26.5250,-0.15,-0.02,0.04
2020-08-10 15:54:26.6160,-0.07,-0.08,-0.03
2020-08-10 15:54:26.7150,0.06,-0.3,-0.03
2020-08-10 15:54:26.7960,0.33,-0.53,0.09
2020-08-10 15:54:26.8870,0.17,-0.12,0.19
2020-08-10 15:54:26.9790,0.87,0.35,-0.11
2020-08-10 15:54:27.0750,0.6,0.43,-0.03
2020-08-10 15:54:27.1870,0.08,-0.13,0.0
2020-08-10 15:54:27.2460,-0.29,-0.38,0.12
2020-08-10 15:54:27.3380,-0.72,-0.49,0.13
2020-08-10 15:54:27.4350,-1.57,-0.19,0.11
2020-08-10 15:54:27.5250,1.62,-0.28,-0.16
2020-08-10 15:54:27.6060,-0.34,-0.11,0.09
2020-08-10 15:54:27.7060,-0.23,-0.01,0.08
2020-08-10 15:54:27.8020,-0.05,0.02,0.01
2020-08-10 15:54:27.8760,-0.18,0.01,0.04
2020-08-10 15:54:27.9820,-0.13,0.01,0.02
2020-08-10 15:54:28.0590,-0.08,0.07,0.04
2020-08-10 15:54:28.1600,-0.12,-0.02,-0.03
2020-08-10 15:54:28.2590,-0.01,-0.2,0.04
2020-08-10 15:54:28.3270,0.27,-0.41,0.03
2020-08-10 15:54:28.4200,0.57,-0.3,0.2
2020-08-10 15:54:28.5060,0.06,0.17,0.09
2020-08-10 15:54:28.5960,0.57,0.38,-0.03
2020-08-10 15:54:28.6870,0.39,0.21,-0.02
2020-08-10 15:54:28.7820,-0.05,-0.29,0.11
2020-08-10 15:54:28.8680,-0.55,-0.38,0.14
2020-08-10 15:54:28.9620,-0.99,-0.33,0.04
2020-08-10 15:54:29.0500,-1.52,-0.17,0.12
2020-08-10 15:54:29.1550,-0.67,-0.57,-0.09
2020-08-10 15:54:29.2590,-0.73,-0.02,0.14
2020-08-10 15:54:29.3160,-0.35,-0.05,0.11
2020-08-10 15:54:29.4080,-0.18,-0.0,-0.02
2020-08-10 15:54:29.4990,-0.19,0.05,0.04
2020-08-10 15:54:29.5890,-0.14,0.02,-0.0
2020-08-10 15:54:29.6790,-0.13,0.01,-0.0
2020-08-10 15:54:29.7820,-0.05,-0.15,-0.04
2020-08-10 15:54:29.8580,0.14,-0.44,0.06
2020-08-10 15:54:29.9490,0.48,-0.45,0.18
2020-08-10 15:54:30.0530,0.22,0.1,0.01
2020-08-10 15:54:30.1440,0.56,0.38,0.0
2020-08-10 15:54:30.2430,0.4,0.26,-0.06
2020-08-10 15:54:30.3100,0.07,-0.18,-0.04
2020-08-10 15:54:30.4020,-0.48,-0.41,0.15
2020-08-10 15:54:30.4990,-1.1,-0.42,0.18
2020-08-10 15:54:30.5880,-1.54,-0.21,0.05
2020-08-10 15:54:30.6740,-0.89,-0.73,-0.2
2020-08-10 15:54:30.7870,-0.27,-0.09,0.19
2020-08-10 15:54:30.8620,-0.16,-0.02,0.06
2020-08-10 15:54:30.9510,-0.19,0.03,-0.03
2020-08-10 15:54:31.0410,-0.12,0.01,0.04
2020-08-10 15:54:31.1340,-0.12,-0.01,0.02
2020-08-10 15:54:31.2340,-0.11,0.04,0.01
2020-08-10 15:54:31.3420,-0.1,-0.07,-0.06
2020-08-10 15:54:31.4310,0.07,-0.26,0.0
2020-08-10 15:54:31.4910,0.28,-0.55,0.13
2020-08-10 15:54:31.5820,0.45,-0.28,0.14
2020-08-10 15:54:31.6720,1.09,0.33,0.12
2020-08-10 15:54:31.7780,0.6,0.36,-0.11
2020-08-10 15:54:31.8520,0.09,-0.09,0.01
2020-08-10 15:54:31.9430,-0.4,-0.38,0.19
2020-08-10 15:54:32.0320,-0.81,-0.56,0.2
2020-08-10 15:54:32.1240,-1.66,-0.24,0.06
2020-08-10 15:54:32.2250,1.26,-0.23,-0.28
2020-08-10 15:54:32.3220,-0.43,-0.22,0.04
2020-08-10 15:54:32.4200,-0.27,-0.03,0.08
2020-08-10 15:54:32.4980,-0.11,-0.0,0.02
2020-08-10 15:54:32.5880,-0.17,0.01,0.06
2020-08-10 15:54:32.6620,-0.13,0.0,0.03
2020-08-10 15:54:32.7680,-0.05,0.06,0.08
2020-08-10 15:54:32.8420,-0.03,-0.01,-0.05
2020-08-10 15:54:32.9330,0.03,-0.18,0.04
2020-08-10 15:54:33.0220,0.4,-0.56,0.08
2020-08-10 15:54:33.1170,0.6,-0.57,0.15
2020-08-10 15:54:33.2180,0.38,0.19,0.12
2020-08-10 15:54:33.3130,0.64,0.45,-0.1
2020-08-10 15:54:33.4120,0.25,-0.04,-0.09
2020-08-10 15:54:33.4720,-0.3,-0.48,0.13
2020-08-10 15:54:33.5710,-1.02,-0.57,0.33
2020-08-10 15:54:33.6680,-1.53,-0.26,0.0
2020-08-10 15:54:33.7420,1.46,-0.31,-0.42
2020-08-10 15:54:33.8310,-0.3,-0.13,0.23
2020-08-10 15:54:33.9230,-0.04,-0.01,0.03
2020-08-10 15:54:34.0120,-0.06,0.04,0.02
2020-08-10 15:54:34.1070,-0.19,0.01,0.04
2020-08-10 15:54:34.2100,-0.13,0.04,0.01
2020-08-10 15:54:34.3050,-0.16,0.03,-0.01
2020-08-10 15:54:34.4130,-0.15,-0.04,-0.0
2020-08-10 15:54:34.4630,0.01,-0.19,-0.01
2020-08-10 15:54:34.5680,0.18,-0.39,-0.0
2020-08-10 15:54:34.6420,0.66,-0.48,0.25
2020-08-10 15:54:34.7490,0.08,0.23,0.1
2020-08-10 15:54:34.8220,0.63,0.4,-0.04
2020-08-10 15:54:34.9130,0.35,0.23,-0.0
2020-08-10 15:54:35.0030,-0.06,-0.26,-0.0
2020-08-10 15:54:35.0940,-0.63,-0.52,0.19
2020-08-10 15:54:35.1970,-1.08,-0.31,0.2
2020-08-10 15:54:35.2950,-1.29,-0.17,0.03
2020-08-10 15:54:35.4040,-0.27,-0.42,0.25
2020-08-10 15:54:35.4620,-0.37,0.1,0.14
2020-08-10 15:54:35.5580,-0.29,-0.06,0.07
2020-08-10 15:54:35.6480,-0.24,-0.04,-0.0
2020-08-10 15:54:35.7290,-0.16,0.02,0.04
2020-08-10 15:54:35.8240,-0.13,0.0,0.01
2020-08-10 15:54:35.9110,-0.05,0.04,0.04
2020-08-10 15:54:35.9970,-0.12,-0.04,-0.01
2020-08-10 15:54:36.0930,0.06,-0.22,0.03
2020-08-10 15:54:36.1880,0.38,-0.62,0.1
2020-08-10 15:54:36.2880,0.4,-0.15,0.21
2020-08-10 15:54:36.3990,0.84,0.38,-0.05
2020-08-10 15:54:36.4490,0.59,0.37,-0.03
2020-08-10 15:54:36.5410,0.27,-0.06,-0.06
2020-08-10 15:54:36.6300,-0.16,-0.31,0.13
2020-08-10 15:54:36.7140,-0.59,-0.38,0.14
2020-08-10 15:54:36.8180,-1.12,-0.33,0.12
2020-08-10 15:54:36.9090,-1.41,-0.17,0.08
2020-08-10 15:54:36.9980,-0.31,-0.54,0.2
2020-08-10 15:54:37.0930,-0.31,-0.09,-0.01
2020-08-10 15:54:37.1950,-0.12,-0.0,0.06
2020-08-10 15:54:37.2780,-0.17,0.01,0.05
2020-08-10 15:54:37.3780,-0.17,0.03,0.04
2020-08-10 15:54:37.4740,-0.16,0.03,0.07
2020-08-10 15:54:37.5740,-0.05,0.0,0.01
2020-08-10 15:54:37.6310,-0.09,-0.12,-0.02
2020-08-10 15:54:37.7190,0.09,-0.33,0.07
2020-08-10 15:54:37.8120,0.36,-0.53,0.1
2020-08-10 15:54:37.9100,0.17,0.06,0.02
2020-08-10 15:54:37.9980,0.72,0.47,-0.15
2020-08-10 15:54:38.0820,0.48,0.31,-0.06
2020-08-10 15:54:38.1840,0.06,-0.23,-0.01
2020-08-10 15:54:38.2670,-0.49,-0.37,0.15
2020-08-10 15:54:38.3640,-0.85,-0.42,0.12
2020-08-10 15:54:38.4680,-1.33,-0.24,-0.0
2020-08-10 15:54:38.5650,1.78,-0.39,-0.26
2020-08-10 15:54:38.6210,-0.3,-0.11,0.24
2020-08-10 15:54:38.7220,0.09,-0.01,-0.11
2020-08-10 15:54:38.8110,0.03,0.05,0.07
2020-08-10 15:54:38.8960,-0.37,-0.09,-0.06
2020-08-10 15:54:38.9900,-0.2,-0.0,0.04
2020-08-10 15:54:39.0730,-0.11,0.06,0.02
2020-08-10 15:54:39.1750,-0.1,-0.01,0.03
2020-08-10 15:54:39.2590,-0.06,-0.17,-0.04
2020-08-10 15:54:39.3540,0.24,-0.29,0.05
2020-08-10 15:54:39.4560,0.61,-0.44,0.19
2020-08-10 15:54:39.5560,0.09,0.07,-0.03
2020-08-10 15:54:39.6240,0.66,0.41,-0.04
2020-08-10 15:54:39.7020,0.54,0.32,-0.09
2020-08-10 15:54:39.7900,0.01,-0.19,-0.04
2020-08-10 15:54:39.8860,-0.69,-0.37,0.16
2020-08-10 15:54:39.9800,-0.98,-0.41,0.07
2020-08-10 15:54:40.0630,-1.5,-0.18,0.07
2020-08-10 15:54:40.1650,-0.71,-0.45,0.09
2020-08-10 15:54:40.2550,-0.26,0.0,0.19
2020-08-10 15:54:40.3500,-0.16,-0.07,-0.03
2020-08-10 15:54:40.4470,-0.15,0.02,0.03
2020-08-10 15:54:40.5460,-0.14,0.05,0.06
2020-08-10 15:54:40.6550,-0.1,0.09,0.02
2020-08-10 15:54:40.7050,-0.08,0.07,0.02
2020-08-10 15:54:40.7930,-0.03,-0.09,-0.02
2020-08-10 15:54:40.8840,0.07,-0.31,0.03
2020-08-10 15:54:40.9900,0.47,-0.58,0.1
2020-08-10 15:54:41.0640,0.1,-0.13,0.15
2020-08-10 15:54:41.1550,0.77,0.46,-0.11
2020-08-10 15:54:41.2490,0.51,0.26,-0.1
2020-08-10 15:54:41.3400,-0.01,-0.17,0.02
2020-08-10 15:54:41.4420,-0.52,-0.22,0.24
2020-08-10 15:54:41.5410,-0.79,-0.47,0.04
2020-08-10 15:54:41.6380,-1.47,-0.21,0.01
2020-08-10 15:54:41.7000,1.95,-0.3,-0.24
2020-08-10 15:54:41.7880,-0.4,-0.25,0.37
2020-08-10 15:54:41.8780,0.0,0.02,-0.07
2020-08-10 15:54:41.9800,-0.09,0.01,-0.02
2020-08-10 15:54:42.0700,-0.2,0.02,0.04
2020-08-10 15:54:42.1550,-0.13,0.02,0.04
2020-08-10 15:54:42.2510,-0.14,0.03,0.01
2020-08-10 15:54:42.3310,-0.07,0.04,0.0
2020-08-10 15:54:42.4260,0.0,-0.15,0.02
2020-08-10 15:54:42.5250,0.25,-0.46,0.08
2020-08-10 15:54:42.6240,0.76,-0.57,0.17
2020-08-10 15:54:42.7240,0.66,0.34,0.32
2020-08-10 15:54:42.7900,0.55,0.41,-0.05
2020-08-10 15:54:42.8800,0.2,0.02,0.01
2020-08-10 15:54:42.9690,-0.25,-0.41,0.17
2020-08-10 15:54:43.0610,-0.67,-0.47,0.08
2020-08-10 15:54:43.1500,-1.28,-0.31,-0.09
2020-08-10 15:54:43.2410,-1.28,-0.24,0.02
2020-08-10 15:54:43.3340,-0.37,-0.24,-0.12
2020-08-10 15:54:43.4290,-0.29,-0.05,0.01
2020-08-10 15:54:43.5300,-0.04,0.03,0.06
2020-08-10 15:54:43.6210,-0.2,0.02,0.06
2020-08-10 15:54:43.7170,-0.09,0.03,0.02
2020-08-10 15:54:43.8130,-0.13,0.02,-0.01
2020-08-10 15:54:43.8850,-0.11,-0.0,0.02
2020-08-10 15:54:43.9620,-0.02,-0.14,0.01
2020-08-10 15:54:44.0510,0.11,-0.33,0.0
2020-08-10 15:54:44.1470,0.42,-0.34,0.13
2020-08-10 15:54:44.2610,0.11,0.16,0.08
2020-08-10 15:54:44.3510,0.62,0.46,-0.06
2020-08-10 15:54:44.4330,0.47,0.11,-0.02
2020-08-10 15:54:44.5210,0.03,-0.33,0.01
2020-08-10 15:54:44.6090,-0.67,-0.57,0.23
2020-08-10 15:54:44.7040,-1.36,-0.33,0.12
2020-08-10 15:54:44.8030,-1.06,-0.35,-0.21
2020-08-10 15:54:44.9070,-0.46,-0.29,0.07
2020-08-10 15:54:44.9680,-0.41,-0.13,0.05
2020-08-10 15:54:45.0710,-0.18,0.03,0.12
2020-08-10 15:54:45.1530,-0.25,-0.05,-0.02
2020-08-10 15:54:45.2380,-0.11,0.01,0.04
2020-08-10 15:54:45.3270,-0.05,0.08,0.07
2020-08-10 15:54:45.4170,-0.03,0.03,-0.01
2020-08-10 15:54:45.5210,-0.06,-0.13,-0.0
2020-08-10 15:54:45.6150,0.16,-0.36,0.09
2020-08-10 15:54:45.6980,0.31,-0.48,0.09
2020-08-10 15:54:45.8080,0.31,0.17,-0.02
2020-08-10 15:54:45.8960,0.61,0.45,-0.1
2020-08-10 15:54:45.9670,0.32,0.23,-0.03
2020-08-10 15:54:46.0500,0.09,-0.23,-0.03
2020-08-10 15:54:46.1380,-0.48,-0.41,0.21
2020-08-10 15:54:46.2410,-0.97,-0.4,0.17
2020-08-10 15:54:46.3240,-1.49,-0.2,0.06
2020-08-10 15:54:46.4080,1.51,-0.21,-0.69
2020-08-10 15:54:46.5100,-0.71,-0.57,0.29
2020-08-10 15:54:46.5920,-0.29,-0.06,0.07
2020-08-10 15:54:46.6890,-0.11,0.03,0.06
2020-08-10 15:54:46.8000,-0.23,-0.01,0.02
2020-08-10 15:54:46.8880,-0.16,0.0,0.02
2020-08-10 15:54:46.9870,-0.16,0.02,-0.0
2020-08-10 15:54:47.0510,-0.17,-0.01,0.02
2020-08-10 15:54:47.1390,-0.03,-0.14,0.03
2020-08-10 15:54:47.2310,0.25,-0.4,0.02
2020-08-10 15:54:47.3210,0.64,-0.44,0.26
2020-08-10 15:54:47.4110,0.16,0.18,0.18
2020-08-10 15:54:47.5020,0.64,0.48,-0.11
2020-08-10 15:54:47.5960,0.42,0.12,-0.05
2020-08-10 15:54:47.6820,-0.22,-0.48,0.09
2020-08-10 15:54:47.7880,-0.66,-0.37,0.28
2020-08-10 15:54:47.8770,-1.32,-0.28,0.05
2020-08-10 15:54:47.9770,-1.32,-0.22,0.02
2020-08-10 15:54:48.0730,-0.46,-0.63,0.31
2020-08-10 15:54:48.1450,-0.14,-0.07,0.12
2020-08-10 15:54:48.2350,-0.08,-0.03,0.1
2020-08-10 15:54:48.3240,-0.21,0.01,0.04
2020-08-10 15:54:48.4090,-0.15,0.04,0.06
2020-08-10 15:54:48.5010,-0.12,0.0,0.01
2020-08-10 15:54:48.5850,-0.08,-0.0,-0.03
2020-08-10 15:54:48.6830,-0.01,-0.14,-0.01
2020-08-10 15:54:48.7780,0.27,-0.43,0.05
2020-08-10 15:54:48.8660,0.42,-0.34,0.4
2020-08-10 15:54:48.9650,-0.12,0.19,0.17
2020-08-10 15:54:49.0650,0.63,0.3,-0.04
2020-08-10 15:54:49.1360,0.35,0.27,-0.05
2020-08-10 15:54:49.2170,0.05,-0.18,-0.01
2020-08-10 15:54:49.3140,-0.55,-0.36,0.14
2020-08-10 15:54:49.3980,-1.06,-0.59,0.18
2020-08-10 15:54:49.4960,-1.59,-0.22,0.12
2020-08-10 15:54:49.5790,-0.71,-0.66,-0.24
2020-08-10 15:54:49.6730,-0.95,-0.21,0.17
2020-08-10 15:54:49.7630,-0.29,-0.05,0.09
2020-08-10 15:54:49.8520,-0.1,-0.01,0.05
2020-08-10 15:54:49.9480,-0.19,0.03,0.08
2020-08-10 15:54:50.0520,-0.13,0.04,0.06
2020-08-10 15:54:50.1480,-0.12,0.04,0.07
2020-08-10 15:54:50.2180,-0.1,-0.01,0.02
2020-08-10 15:54:50.3070,-0.04,-0.21,0.01
2020-08-10 15:54:50.3980,0.3,-0.49,0.0
2020-08-10 15:54:50.4880,0.41,-0.39,0.33
2020-08-10 15:54:50.5780,0.7,0.29,0.18
2020-08-10 15:54:50.6830,0.62,0.39,0.01
2020-08-10 15:54:50.7730,0.19,-0.08,0.0
2020-08-10 15:54:50.8490,-0.19,-0.34,0.19
2020-08-10 15:54:50.9420,-0.68,-0.5,0.1
2020-08-10 15:54:51.0430,-1.18,-0.29,0.14
2020-08-10 15:54:51.1500,-1.19,-0.36,-0.25
2020-08-10 15:54:51.2370,-0.3,-0.4,0.04
2020-08-10 15:54:51.3000,-0.22,0.0,0.08
2020-08-10 15:54:51.3920,-0.13,-0.01,0.14
2020-08-10 15:54:51.4880,-0.23,-0.04,0.03
2020-08-10 15:54:51.5740,-0.17,-0.0,0.04
2020-08-10 15:54:51.6720,-0.13,-0.0,0.04
2020-08-10 15:54:51.7620,-0.09,0.01,0.03
2020-08-10 15:54:51.8520,-0.11,-0.05,0.05
2020-08-10 15:54:51.9420,0.01,-0.17,0.05
2020-08-10 15:54:52.0340,0.43,-0.44,-0.03
2020-08-10 15:54:52.1410,0.32,-0.16,0.24
2020-08-10 15:54:52.2360,0.83,0.24,0.1
2020-08-10 15:54:52.3320,0.63,0.35,0.01
2020-08-10 15:54:52.4080,0.22,0.05,-0.02
2020-08-10 15:54:52.4890,-0.23,-0.3,0.17
2020-08-10 15:54:52.5870,-0.6,-0.45,0.06
2020-08-10 15:54:52.6760,-1.12,-0.27,-0.02
2020-08-10 15:54:52.7650,-1.19,-0.14,0.06
2020-08-10 15:54:52.8550,-0.3,-0.41,-0.0
2020-08-10 15:54:52.9440,-0.49,-0.05,0.12
2020-08-10 15:54:53.0330,-0.2,-0.01,0.15
2020-08-10 15:54:53.1290,-0.14,-0.01,0.01
2020-08-10 15:54:53.2230,-0.16,0.03,0.01
2020-08-10 15:54:53.3300,-0.09,0.01,0.02
2020-08-10 15:54:53.3980,-0.07,0.01,0.04
2020-08-10 15:54:53.4800,-0.06,-0.02,0.02
2020-08-10 15:54:53.5780,-0.05,-0.2,0.01
2020-08-10 15:54:53.6580,0.31,-0.42,0.03
2020-08-10 15:54:53.7560,0.51,-0.42,0.26
2020-08-10 15:54:53.8450,0.05,0.12,0.14
2020-08-10 15:54:53.9340,0.55,0.31,-0.01
2020-08-10 15:54:54.0230,0.48,0.17,-0.07
2020-08-10 15:54:54.1160,0.06,-0.26,0.09
2020-08-10 15:54:54.2130,-0.46,-0.43,0.21
2020-08-10 15:54:54.3120,-0.99,-0.4,0.13
2020-08-10 15:54:54.3750,-1.56,-0.17,0.07
2020-08-10 15:54:54.4720,-0.84,-0.62,0.11
2020-08-10 15:54:54.5690,-0.49,-0.27,0.19
2020-08-10 15:54:54.6500,-0.26,-0.04,0.1
2020-08-10 15:54:54.7490,-0.08,0.0,0.02
2020-08-10 15:54:54.8310,-0.13,0.02,0.07
2020-08-10 15:54:54.9180,-0.15,-0.02,-0.01
2020-08-10 15:54:55.0160,-0.13,0.0,0.03
2020-08-10 15:54:55.1080,-0.13,-0.07,-0.01
2020-08-10 15:54:55.2050,0.12,-0.24,0.02
2020-08-10 15:54:55.3060,0.39,-0.55,0.1
2020-08-10 15:54:55.4020,0.3,-0.15,0.21
2020-08-10 15:54:55.4680,0.9,0.42,-0.04
2020-08-10 15:54:55.5580,0.65,0.38,-0.04
2020-08-10 15:54:55.6480,0.13,-0.01,-0.05
2020-08-10 15:54:55.7400,-0.24,-0.54,0.2
2020-08-10 15:54:55.8290,-0.78,-0.48,0.15
2020-08-10 15:54:55.9210,-1.44,-0.23,0.01
2020-08-10 15:54:56.0080,0.99,-0.24,-0.33
2020-08-10 15:54:56.0980,-0.41,-0.44,0.18
2020-08-10 15:54:56.1970,0.07,0.0,-0.02
2020-08-10 15:54:56.2970,-0.02,0.0,0.13
2020-08-10 15:54:56.3940,-0.22,0.0,0.07
2020-08-10 15:54:56.4590,-0.17,0.04,0.04
2020-08-10 15:54:56.5480,-0.19,0.03,0.02
2020-08-10 15:54:56.6390,-0.13,0.0,0.0
2020-08-10 15:54:56.7280,-0.13,-0.09,-0.04
2020-08-10 15:54:56.8250,-0.03,-0.23,0.05
2020-08-10 15:54:56.9110,0.29,-0.28,0.15
2020-08-10 15:54:57.0140,-0.13,0.14,0.01
2020-08-10 15:54:57.1040,0.48,0.43,-0.11
2020-08-10 15:54:57.1940,0.39,0.28,-0.06
2020-08-10 15:54:57.2860,-0.36,-0.23,-0.04
2020-08-10 15:54:57.3920,-0.55,-0.17,0.01
2020-08-10 15:54:57.4810,-0.76,-0.23,0.1
2020-08-10 15:54:57.5420,-0.86,0.17,0.19
2020-08-10 15:54:57.6320,-0.3,-0.48,-0.15
2020-08-10 15:54:57.7300,-0.22,-0.04,0.17
2020-08-10 15:54:57.8160,-0.03,0.04,-0.01
2020-08-10 15:54:57.9140,-0.08,-0.01,0.02
2020-08-10 15:54:57.9970,-0.2,0.02,-0.01
2020-08-10 15:54:58.0940,-0.13,0.05,0.06
2020-08-10 15:54:58.1850,-0.13,0.02,0.05
2020-08-10 15:54:58.2770,-0.13,0.05,0.05
2020-08-10 15:54:58.3820,-0.08,0.05,0.03
2020-08-10 15:54:58.4720,-0.01,0.03,-0.01
2020-08-10 15:54:58.5410,-0.01,0.03,0.0
2020-08-10 15:54:58.6310,-0.01,0.03,0.01
2020-08-10 15:54:58.7130,0.02,0.02,0.01
2020-08-10 15:54:58.8140,-0.02,0.0,-0.03
2020-08-10 15:54:58.9040,-0.02,0.05,0.02
2020-08-10 15:54:58.9800,-0.0,0.04,0.02
2020-08-10 15:54:59.0850,-0.02,0.07,0.01
2020-08-10 15:54:59.1660,0.02,0.03,0.02
2020-08-10 15:54:59.2670,0.01,0.02,0.01
2020-08-10 15:54:59.3630,-0.01,0.04,-0.03
2020-08-10 15:54:59.4630,0.01,0.03,0.0
2020-08-10 15:54:59.5310,-0.03,0.03,0.0
2020-08-10 15:54:59.6210,-0.05,0.05,-0.05
2020-08-10 15:54:59.7040,-0.04,0.05,-0.0
2020-08-10 15:54:59.7990,0.01,0.01,0.01
2020-08-10 15:54:59.8880,0.01,0.05,-0.02
2020-08-10 15:54:59.9850,-0.01,0.02,0.04
2020-08-10 15:55:00.0750,-0.0,0.04,-0.0
2020-08-10 15:55:00.1650,0.03,0.02,-0.02
2020-08-10 15:55:00.2600,-0.02,0.04,0.05
2020-08-10 15:55:00.3580,-0.0,0.01,-0.01
2020-08-10 15:55:00.4550,0.01,0.03,-0.03
2020-08-10 15:55:00.5250,-0.02,0.01,-0.02
