time,ax,ay,az
2020-08-12 19:56:11.0930,0.02,0.01,-0.02
2020-08-12 19:56:11.1920,-0.01,-0.01,-0.0
2020-08-12 19:56:11.2910,0.01,-0.0,0.01
2020-08-12 19:56:11.3910,-0.0,-0.01,-0.01
2020-08-12 19:56:11.4900,0.0,0.0,0.01
2020-08-12 19:56:11.5890,-0.0,0.0,-0.01
2020-08-12 19:56:11.6880,-0.0,-0.0,0.0
2020-08-12 19:56:11.7880,-0.0,-0.0,-0.0
2020-08-12 19:56:11.8880,0.0,-0.01,-0.0
2020-08-12 19:56:11.9870,-0.01,-0.0,-0.0
2020-08-12 19:56:12.0860,-0.0,-0.0,-0.0
2020-08-12 19:56:12.1850,0.01,-0.0,0.0
2020-08-12 19:56:12.2850,0.0,-0.01,0.0
2020-08-12 19:56:12.3840,0.01,-0.01,0.0
2020-08-12 19:56:12.4820,0.0,0.01,-0.0
2020-08-12 19:56:12.5820,-0.0,-0.01,-0.01
2020-08-12 19:56:12.6820,0.01,0.01,0.0
2020-08-12 19:56:12.7810,-0.01,-0.01,-0.0
2020-08-12 19:56:12.8800,-0.02,-0.03,-0.0
2020-08-12 19:56:12.9790,-0.01,-0.02,-0.0
2020-08-12 19:56:13.0790,-0.01,0.01,-0.02
2020-08-12 19:56:13.1780,0.0,-0.01,-0.01
2020-08-12 19:56:13.2770,0.02,-0.0,0.0
2020-08-12 19:56:13.3760,0.09,-0.03,-0.04
2020-08-12 19:56:13.4750,-0.02,-0.0,-0.05
2020-08-12 19:56:13.5750,-0.01,0.01,-0.03
2020-08-12 19:56:13.6740,0.05,0.01,-0.06
2020-08-12 19:56:13.7730,-0.02,0.02,-0.02
2020-08-12 19:56:13.8720,-0.0,-0.02,-0.05
2020-08-12 19:56:13.9720,0.01,-0.01,0.01
2020-08-12 19:56:14.0730,-0.02,-0.03,0.04
2020-08-12 19:56:14.1700,0.02,-0.01,0.01
2020-08-12 19:56:14.2700,0.01,0.01,-0.01
2020-08-12 19:56:14.3690,0.04,-0.03,0.01
2020-08-12 19:56:14.4680,0.02,-0.02,0.03
2020-08-12 19:56:14.5680,0.04,-0.05,0.02
2020-08-12 19:56:14.6670,0.06,-0.19,0.02
2020-08-12 19:56:14.7660,0.11,-0.45,0.12
2020-08-12 19:56:14.8650,0.24,0.1,0.13
2020-08-12 19:56:14.9650,0.76,0.14,0.01
2020-08-12 19:56:15.0640,0.29,0.17,-0.15
2020-08-12 19:56:15.1630,-0.04,-0.03,-0.04
2020-08-12 19:56:15.2620,0.11,0.01,-0.0
2020-08-12 19:56:15.3620,0.04,-0.07,-0.07
2020-08-12 19:56:15.4610,-0.08,-0.09,-0.06
2020-08-12 19:56:15.5600,-0.24,-0.06,0.1
2020-08-12 19:56:15.6600,-0.32,0.03,0.04
2020-08-12 19:56:15.7590,-0.32,0.11,-0.13
2020-08-12 19:56:15.8580,0.06,-1.99,0.08
2020-08-12 19:56:15.9570,-0.15,0.13,0.37
2020-08-12 19:56:16.0560,0.01,0.02,-0.02
2020-08-12 19:56:16.1560,-0.03,0.01,0.0
2020-08-12 19:56:16.2550,0.01,-0.02,-0.0
2020-08-12 19:56:16.3540,0.05,-0.05,0.0
2020-08-12 19:56:16.4540,0.04,-0.02,-0.01
2020-08-12 19:56:16.5530,0.06,-0.09,0.02
2020-08-12 19:56:16.6520,0.09,-0.43,0.01
2020-08-12 19:56:16.7520,0.08,0.12,0.03
2020-08-12 19:56:16.8500,0.42,0.17,0.09
2020-08-12 19:56:16.9500,0.25,0.14,-0.17
2020-08-12 19:56:17.0490,-0.02,-0.02,-0.04
2020-08-12 19:56:17.1490,0.12,0.01,-0.03
2020-08-12 19:56:17.2480,0.16,-0.02,-0.02
2020-08-12 19:56:17.3470,0.07,-0.05,0.06
2020-08-12 19:56:17.4460,-0.11,-0.07,0.04
2020-08-12 19:56:17.5450,-0.16,-0.03,0.06
2020-08-12 19:56:17.6450,-0.25,0.01,-0.0
2020-08-12 19:56:17.7440,-0.28,0.1,-0.08
2020-08-12 19:56:17.8430,0.73,-0.65,-0.11
2020-08-12 19:56:17.9420,-0.35,-0.08,0.2
2020-08-12 19:56:18.0420,-0.07,-0.0,0.03
2020-08-12 19:56:18.1410,0.06,-0.03,-0.02
2020-08-12 19:56:18.2400,0.11,-0.05,-0.03
2020-08-12 19:56:18.3400,0.0,-0.07,-0.04
2020-08-12 19:56:18.4390,-0.01,-0.18,0.03
2020-08-12 19:56:18.5380,0.34,-0.48,0.1
2020-08-12 19:56:18.6380,0.03,0.25,0.26
2020-08-12 19:56:18.7360,0.45,0.22,-0.22
2020-08-12 19:56:18.8360,0.04,-0.0,-0.11
2020-08-12 19:56:18.9350,-0.11,-0.01,-0.07
2020-08-12 19:56:19.0340,-0.01,-0.02,-0.1
2020-08-12 19:56:19.1340,0.1,0.01,-0.09
2020-08-12 19:56:19.2330,0.03,0.02,0.02
2020-08-12 19:56:19.3320,0.0,-0.01,0.02
2020-08-12 19:56:19.4320,-0.12,-0.06,0.04
2020-08-12 19:56:19.5310,-0.29,0.01,0.04
2020-08-12 19:56:19.6300,-0.21,0.07,-0.1
2020-08-12 19:56:19.7290,-0.69,0.05,-0.15
2020-08-12 19:56:19.8280,0.51,-0.13,-0.12
2020-08-12 19:56:19.9280,0.24,-0.03,-0.06
2020-08-12 19:56:20.0270,0.06,0.0,-0.0
2020-08-12 19:56:20.1260,0.06,-0.01,-0.01
2020-08-12 19:56:20.2260,0.05,-0.04,-0.02
2020-08-12 19:56:20.3250,-0.03,-0.08,0.01
2020-08-12 19:56:20.4240,0.05,-0.39,0.09
2020-08-12 19:56:20.5240,0.15,-0.24,0.04
2020-08-12 19:56:20.6230,0.11,0.17,0.08
2020-08-12 19:56:20.7220,0.31,0.15,-0.13
2020-08-12 19:56:20.8210,-0.1,0.02,-0.06
2020-08-12 19:56:20.9210,-0.05,0.04,-0.07
2020-08-12 19:56:21.0200,0.08,0.04,-0.04
2020-08-12 19:56:21.1190,0.2,-0.03,-0.06
2020-08-12 19:56:21.2190,0.06,-0.06,-0.01
2020-08-12 19:56:21.3180,-0.03,-0.05,0.08
2020-08-12 19:56:21.4170,-0.15,-0.0,0.05
2020-08-12 19:56:21.5160,-0.24,0.04,-0.05
2020-08-12 19:56:21.6150,-0.32,0.09,-0.14
2020-08-12 19:56:21.7140,0.13,-0.19,-0.48
2020-08-12 19:56:21.8140,-0.5,-0.06,0.2
2020-08-12 19:56:21.9130,-0.06,-0.03,-0.0
2020-08-12 19:56:22.0130,0.05,-0.01,-0.06
2020-08-12 19:56:22.1120,0.04,-0.02,-0.01
2020-08-12 19:56:22.2110,-0.01,-0.02,-0.05
2020-08-12 19:56:22.3100,0.01,-0.06,0.01
2020-08-12 19:56:22.4090,0.15,-0.41,0.05
2020-08-12 19:56:22.5090,0.01,-0.02,0.01
2020-08-12 19:56:22.6080,0.09,0.15,-0.01
2020-08-12 19:56:22.7080,0.26,0.06,-0.16
2020-08-12 19:56:22.8070,0.02,0.04,-0.02
2020-08-12 19:56:22.9060,0.14,0.03,-0.07
2020-08-12 19:56:23.0050,0.05,-0.04,-0.01
2020-08-12 19:56:23.1040,0.09,0.01,0.02
2020-08-12 19:56:23.2040,0.09,-0.01,0.0
2020-08-12 19:56:23.3030,-0.05,-0.07,-0.0
2020-08-12 19:56:23.4020,-0.27,-0.04,0.01
2020-08-12 19:56:23.5020,-0.24,0.04,-0.1
2020-08-12 19:56:23.6010,-0.38,0.15,-0.19
2020-08-12 19:56:23.7000,0.32,-0.03,-0.13
2020-08-12 19:56:23.7990,0.12,-0.03,-0.09
2020-08-12 19:56:23.8980,0.08,-0.04,-0.01
2020-08-12 19:56:23.9980,0.04,-0.01,-0.06
2020-08-12 19:56:24.0970,0.02,-0.02,-0.05
2020-08-12 19:56:24.1960,0.03,-0.07,-0.0
2020-08-12 19:56:24.2960,0.03,-0.19,0.01
2020-08-12 19:56:24.3950,0.32,-0.52,-0.01
2020-08-12 19:56:24.4940,0.02,0.2,-0.03
2020-08-12 19:56:24.5930,0.41,0.24,-0.19
2020-08-12 19:56:24.6930,-0.03,-0.01,-0.1
2020-08-12 19:56:24.7920,-0.08,0.01,-0.12
2020-08-12 19:56:24.8920,0.03,0.03,-0.04
2020-08-12 19:56:24.9910,0.19,-0.0,-0.03
2020-08-12 19:56:25.0900,0.11,-0.07,-0.01
2020-08-12 19:56:25.1890,-0.02,-0.02,0.09
2020-08-12 19:56:25.2890,-0.16,-0.05,0.04
2020-08-12 19:56:25.3870,-0.31,0.05,-0.03
2020-08-12 19:56:25.4870,-0.34,0.11,-0.16
2020-08-12 19:56:25.5860,-0.56,-0.08,-0.72
2020-08-12 19:56:25.6850,-0.54,0.01,0.2
2020-08-12 19:56:25.7840,-0.09,-0.05,-0.01
2020-08-12 19:56:25.8840,0.01,-0.02,-0.1
2020-08-12 19:56:25.9830,0.05,-0.03,-0.02
2020-08-12 19:56:26.0820,0.02,-0.07,-0.05
2020-08-12 19:56:26.1810,0.05,-0.17,0.07
2020-08-12 19:56:26.2810,0.16,-0.37,-0.09
2020-08-12 19:56:26.3800,-0.02,0.16,0.0
2020-08-12 19:56:26.4800,0.31,0.07,-0.12
2020-08-12 19:56:26.5790,0.22,0.05,-0.07
2020-08-12 19:56:26.6780,0.1,-0.02,-0.03
2020-08-12 19:56:26.7780,0.12,-0.01,-0.04
2020-08-12 19:56:26.8770,0.1,-0.02,-0.07
2020-08-12 19:56:26.9760,0.09,-0.08,-0.08
2020-08-12 19:56:27.0750,0.03,-0.09,-0.01
2020-08-12 19:56:27.1750,-0.12,-0.06,0.01
2020-08-12 19:56:27.2740,-0.29,0.0,-0.0
2020-08-12 19:56:27.3730,-0.47,0.08,-0.11
2020-08-12 19:56:27.4730,0.25,-1.19,-0.22
2020-08-12 19:56:27.5720,-0.21,0.07,0.19
2020-08-12 19:56:27.6700,0.02,0.0,-0.01
2020-08-12 19:56:27.7700,0.03,0.0,-0.02
2020-08-12 19:56:27.8690,0.04,-0.02,-0.04
2020-08-12 19:56:27.9680,0.09,-0.08,-0.03
2020-08-12 19:56:28.0670,0.1,-0.21,0.09
2020-08-12 19:56:28.1660,0.16,-0.3,-0.14
2020-08-12 19:56:28.2660,0.06,0.16,0.05
2020-08-12 19:56:28.3660,0.38,0.11,-0.02
2020-08-12 19:56:28.4650,0.14,0.1,-0.12
2020-08-12 19:56:28.5640,0.02,-0.01,-0.04
2020-08-12 19:56:28.6640,0.1,0.01,-0.07
2020-08-12 19:56:28.7630,0.13,-0.0,-0.09
2020-08-12 19:56:28.8620,0.08,-0.05,-0.01
2020-08-12 19:56:28.9610,0.02,-0.05,-0.01
2020-08-12 19:56:29.0600,-0.07,-0.05,-0.07
2020-08-12 19:56:29.1600,-0.24,-0.06,-0.08
2020-08-12 19:56:29.2590,-0.39,0.05,-0.03
2020-08-12 19:56:29.3590,-0.11,0.09,-0.1
2020-08-12 19:56:29.4570,0.25,-0.03,0.04
2020-08-12 19:56:29.5570,0.15,-0.07,-0.05
2020-08-12 19:56:29.6560,0.04,-0.0,0.02
2020-08-12 19:56:29.7550,0.0,-0.01,-0.02
2020-08-12 19:56:29.8540,0.08,-0.04,-0.02
2020-08-12 19:56:29.9540,-0.1,-0.11,-0.04
2020-08-12 19:56:30.0530,0.09,-0.4,0.06
2020-08-12 19:56:30.1520,0.12,-0.17,0.07
2020-08-12 19:56:30.2510,0.03,0.2,0.13
2020-08-12 19:56:30.3510,0.24,0.11,-0.12
2020-08-12 19:56:30.4500,0.08,0.03,-0.14
2020-08-12 19:56:30.5490,0.08,-0.02,-0.05
2020-08-12 19:56:30.6480,0.1,0.0,-0.02
2020-08-12 19:56:30.7480,0.07,-0.06,-0.03
2020-08-12 19:56:30.8470,-0.0,-0.08,-0.06
2020-08-12 19:56:30.9460,-0.21,-0.02,-0.02
2020-08-12 19:56:31.0460,-0.2,0.0,-0.0
2020-08-12 19:56:31.1450,-0.26,0.05,0.01
2020-08-12 19:56:31.2440,-0.27,0.11,-0.12
2020-08-12 19:56:31.3430,0.11,-0.65,-0.28
2020-08-12 19:56:31.4430,-0.33,-0.07,0.17
2020-08-12 19:56:31.5420,-0.08,-0.02,0.0
2020-08-12 19:56:31.6410,-0.0,-0.0,-0.04
2020-08-12 19:56:31.7400,0.08,-0.04,-0.04
2020-08-12 19:56:31.8400,0.06,-0.06,-0.03
2020-08-12 19:56:31.9390,-0.04,-0.05,-0.01
2020-08-12 19:56:32.0380,0.06,-0.46,-0.0
2020-08-12 19:56:32.1380,0.12,-0.13,0.05
2020-08-12 19:56:32.2370,-0.01,0.19,0.1
2020-08-12 19:56:32.3360,0.33,0.15,-0.18
2020-08-12 19:56:32.4350,0.09,-0.01,-0.06
2020-08-12 19:56:32.5340,0.06,-0.02,-0.04
2020-08-12 19:56:32.6340,-0.04,-0.04,-0.12
2020-08-12 19:56:32.7330,0.04,-0.0,-0.04
2020-08-12 19:56:32.8320,0.04,-0.01,-0.01
2020-08-12 19:56:32.9320,-0.06,-0.04,-0.02
2020-08-12 19:56:33.0310,-0.17,-0.02,-0.02
2020-08-12 19:56:33.1300,-0.27,0.01,0.02
2020-08-12 19:56:33.2290,-0.27,0.09,-0.07
2020-08-12 19:56:33.3290,-0.1,-0.78,0.1
2020-08-12 19:56:33.4280,0.03,0.03,0.08
2020-08-12 19:56:33.5270,0.05,-0.02,-0.03
2020-08-12 19:56:33.6270,0.01,0.01,-0.03
2020-08-12 19:56:33.7260,0.02,0.01,-0.03
2020-08-12 19:56:33.8250,0.05,-0.08,-0.04
2020-08-12 19:56:33.9250,0.01,-0.14,0.01
2020-08-12 19:56:34.0240,0.2,-0.49,0.01
2020-08-12 19:56:34.1230,0.14,-0.07,-0.0
2020-08-12 19:56:34.2220,0.61,0.24,-0.06
2020-08-12 19:56:34.3210,0.16,0.14,-0.12
2020-08-12 19:56:34.4210,0.03,0.03,-0.02
2020-08-12 19:56:34.5200,0.07,-0.04,-0.09
2020-08-12 19:56:34.6190,-0.05,-0.03,-0.01
2020-08-12 19:56:34.7180,-0.05,-0.01,-0.03
2020-08-12 19:56:34.8180,-0.1,-0.04,-0.02
2020-08-12 19:56:34.9170,-0.17,-0.0,-0.01
2020-08-12 19:56:35.0160,-0.24,0.02,-0.03
2020-08-12 19:56:35.1150,-0.29,0.09,-0.07
2020-08-12 19:56:35.2150,0.31,-0.29,-0.3
2020-08-12 19:56:35.3140,-0.23,-0.03,0.12
2020-08-12 19:56:35.4130,-0.02,-0.02,0.02
2020-08-12 19:56:35.5130,-0.01,0.01,-0.04
2020-08-12 19:56:35.6120,-0.01,-0.0,-0.02
2020-08-12 19:56:35.7110,0.02,-0.03,-0.03
2020-08-12 19:56:35.8100,0.05,-0.07,-0.05
2020-08-12 19:56:35.9100,0.06,-0.11,-0.03
2020-08-12 19:56:36.0090,0.18,-0.45,-0.03
2020-08-12 19:56:36.1080,-0.06,0.09,0.0
2020-08-12 19:56:36.2070,0.44,0.2,-0.06
2020-08-12 19:56:36.3070,0.21,0.09,-0.11
2020-08-12 19:56:36.4060,0.03,0.08,-0.01
2020-08-12 19:56:36.5050,0.04,-0.0,-0.07
2020-08-12 19:56:36.6050,0.07,-0.02,0.0
2020-08-12 19:56:36.7040,0.03,-0.01,0.01
2020-08-12 19:56:36.8030,-0.07,-0.04,-0.04
2020-08-12 19:56:36.9020,-0.18,-0.07,-0.04
2020-08-12 19:56:37.0020,-0.35,-0.03,0.01
2020-08-12 19:56:37.1010,-0.4,0.08,-0.09
2020-08-12 19:56:37.2000,-0.01,-1.13,-0.09
2020-08-12 19:56:37.2990,-0.21,0.0,0.22
2020-08-12 19:56:37.3990,-0.04,-0.0,-0.03
2020-08-12 19:56:37.4980,-0.04,-0.03,-0.08
2020-08-12 19:56:37.5970,0.01,-0.03,-0.04
2020-08-12 19:56:37.6970,0.04,-0.02,-0.03
2020-08-12 19:56:37.7960,-0.04,-0.1,0.01
2020-08-12 19:56:37.8950,0.08,-0.43,0.04
2020-08-12 19:56:37.9940,0.08,-0.13,0.06
2020-08-12 19:56:38.0940,-0.12,0.19,0.15
2020-08-12 19:56:38.1930,0.33,0.19,-0.13
2020-08-12 19:56:38.2920,0.08,0.05,-0.09
2020-08-12 19:56:38.3910,0.04,0.04,-0.1
2020-08-12 19:56:38.4910,0.07,0.01,-0.06
2020-08-12 19:56:38.5900,0.09,-0.03,-0.05
2020-08-12 19:56:38.6890,0.04,-0.02,0.04
2020-08-12 19:56:38.7890,-0.01,-0.06,-0.04
2020-08-12 19:56:38.8880,-0.21,-0.06,-0.02
2020-08-12 19:56:38.9870,-0.35,0.0,-0.06
2020-08-12 19:56:39.0860,-0.41,0.09,-0.18
2020-08-12 19:56:39.1850,-0.49,-0.02,-0.36
2020-08-12 19:56:39.2850,-0.45,-0.08,0.14
2020-08-12 19:56:39.3840,-0.11,-0.04,-0.01
2020-08-12 19:56:39.4830,0.01,0.0,-0.02
2020-08-12 19:56:39.5830,0.04,-0.03,-0.05
2020-08-12 19:56:39.6820,0.06,-0.02,-0.05
2020-08-12 19:56:39.7810,-0.08,-0.04,-0.02
2020-08-12 19:56:39.8800,0.03,-0.4,-0.0
2020-08-12 19:56:39.9800,0.16,-0.11,-0.08
2020-08-12 19:56:40.0790,-0.02,0.09,0.07
2020-08-12 19:56:40.1780,0.53,0.15,-0.2
2020-08-12 19:56:40.2770,0.13,0.06,-0.03
2020-08-12 19:56:40.3770,0.08,-0.04,-0.11
2020-08-12 19:56:40.4760,-0.04,0.04,-0.06
2020-08-12 19:56:40.5750,0.05,-0.01,0.02
2020-08-12 19:56:40.6750,0.11,0.01,0.04
2020-08-12 19:56:40.7740,0.04,-0.06,-0.07
2020-08-12 19:56:40.8730,-0.22,-0.06,0.04
2020-08-12 19:56:40.9720,-0.4,0.03,-0.04
2020-08-12 19:56:41.0720,-0.68,0.1,-0.24
2020-08-12 19:56:41.1710,0.25,-0.04,-0.09
2020-08-12 19:56:41.2700,0.11,-0.07,-0.1
2020-08-12 19:56:41.3690,0.07,0.01,0.0
2020-08-12 19:56:41.4690,-0.01,-0.02,-0.04
2020-08-12 19:56:41.5680,0.03,-0.04,-0.08
2020-08-12 19:56:41.6670,0.01,-0.07,-0.03
2020-08-12 19:56:41.7660,0.1,-0.29,0.05
2020-08-12 19:56:41.8660,0.25,-0.32,-0.12
2020-08-12 19:56:41.9650,0.02,0.14,-0.02
2020-08-12 19:56:42.0640,0.39,0.2,-0.12
2020-08-12 19:56:42.1640,0.16,0.08,-0.05
2020-08-12 19:56:42.2630,0.12,0.03,-0.05
2020-08-12 19:56:42.3620,-0.01,-0.02,-0.08
2020-08-12 19:56:42.4610,0.03,0.01,-0.02
2020-08-12 19:56:42.5610,-0.05,-0.07,-0.05
2020-08-12 19:56:42.6600,-0.2,-0.0,0.03
2020-08-12 19:56:42.7590,-0.22,0.0,0.01
2020-08-12 19:56:42.8580,-0.22,0.03,0.01
2020-08-12 19:56:42.9580,-0.24,0.06,-0.1
2020-08-12 19:56:43.0570,-0.29,-0.34,-0.0
2020-08-12 19:56:43.1560,0.21,0.06,0.04
2020-08-12 19:56:43.2550,0.03,-0.05,-0.02
2020-08-12 19:56:43.3550,-0.02,0.01,-0.02
2020-08-12 19:56:43.4540,-0.04,-0.0,-0.04
2020-08-12 19:56:43.5530,0.04,0.02,0.01
2020-08-12 19:56:43.6520,0.09,-0.09,-0.06
2020-08-12 19:56:43.7520,0.07,-0.36,0.02
2020-08-12 19:56:43.8510,0.25,-0.35,-0.01
2020-08-12 19:56:43.9500,-0.04,0.16,-0.04
2020-08-12 19:56:44.0490,0.38,0.14,-0.07
2020-08-12 19:56:44.1490,0.15,0.04,-0.05
2020-08-12 19:56:44.2480,-0.19,0.01,-0.04
2020-08-12 19:56:44.3470,-0.05,0.04,-0.09
2020-08-12 19:56:44.4470,0.07,-0.04,-0.08
2020-08-12 19:56:44.5460,0.05,-0.04,-0.01
2020-08-12 19:56:44.6450,-0.06,-0.02,0.03
2020-08-12 19:56:44.7450,-0.23,-0.03,0.01
2020-08-12 19:56:44.8440,-0.29,0.02,-0.04
2020-08-12 19:56:44.9430,-0.29,0.07,-0.23
2020-08-12 19:56:45.0420,-0.16,0.16,-0.13
2020-08-12 19:56:45.1410,-0.2,-0.03,-0.01
2020-08-12 19:56:45.2410,0.02,-0.05,-0.01
2020-08-12 19:56:45.3400,0.03,0.01,-0.04
2020-08-12 19:56:45.4390,0.04,-0.02,-0.02
2020-08-12 19:56:45.5390,0.07,-0.09,-0.04
2020-08-12 19:56:45.6380,0.02,-0.17,-0.01
2020-08-12 19:56:45.7370,0.21,-0.38,0.03
2020-08-12 19:56:45.8360,0.04,0.11,0.05
2020-08-12 19:56:45.9360,0.5,0.13,-0.09
2020-08-12 19:56:46.0350,0.29,0.09,-0.11
2020-08-12 19:56:46.1340,0.07,-0.01,-0.05
2020-08-12 19:56:46.2340,-0.01,-0.02,-0.03
2020-08-12 19:56:46.3330,-0.04,-0.05,0.01
2020-08-12 19:56:46.4320,0.0,-0.04,-0.03
2020-08-12 19:56:46.5310,-0.25,-0.04,0.0
2020-08-12 19:56:46.6310,-0.29,0.02,0.02
2020-08-12 19:56:46.7300,-0.35,0.04,-0.11
2020-08-12 19:56:46.8290,-0.46,-0.1,-0.05
2020-08-12 19:56:46.9290,0.36,-0.07,-0.12
2020-08-12 19:56:47.0280,0.15,-0.05,-0.1
2020-08-12 19:56:47.1270,0.05,0.0,-0.0
2020-08-12 19:56:47.2260,-0.01,-0.02,-0.04
2020-08-12 19:56:47.3250,0.07,0.0,-0.05
2020-08-12 19:56:47.4250,0.07,-0.05,-0.03
2020-08-12 19:56:47.5240,0.03,-0.25,-0.01
2020-08-12 19:56:47.6230,0.13,-0.31,-0.14
2020-08-12 19:56:47.7220,0.07,0.13,0.08
2020-08-12 19:56:47.8220,0.25,0.07,0.02
2020-08-12 19:56:47.9210,0.29,0.14,-0.12
2020-08-12 19:56:48.0200,0.1,0.03,-0.03
2020-08-12 19:56:48.1200,0.1,-0.02,-0.09
2020-08-12 19:56:48.2190,0.04,-0.06,-0.04
2020-08-12 19:56:48.3180,0.01,-0.05,-0.02
2020-08-12 19:56:48.4170,-0.14,-0.08,-0.02
2020-08-12 19:56:48.5170,-0.27,-0.01,0.05
2020-08-12 19:56:48.6160,-0.33,0.02,-0.04
2020-08-12 19:56:48.7150,-0.31,-0.01,-0.17
2020-08-12 19:56:48.8150,-0.21,0.12,-0.13
2020-08-12 19:56:48.9140,-0.22,-0.07,-0.02
2020-08-12 19:56:49.0130,-0.01,-0.06,-0.02
2020-08-12 19:56:49.1120,-0.04,0.01,-0.04
2020-08-12 19:56:49.2120,0.01,0.01,-0.06
2020-08-12 19:56:49.3110,0.01,-0.04,-0.01
2020-08-12 19:56:49.4100,0.03,-0.11,-0.02
2020-08-12 19:56:49.5090,0.08,-0.35,-0.02
2020-08-12 19:56:49.6090,0.18,-0.19,0.02
2020-08-12 19:56:49.7080,-0.06,0.18,0.03
2020-08-12 19:56:49.8070,0.5,0.09,-0.2
2020-08-12 19:56:49.9060,0.21,0.09,-0.1
2020-08-12 19:56:50.0060,0.15,-0.01,-0.05
2020-08-12 19:56:50.1050,0.12,-0.04,-0.03
2020-08-12 19:56:50.2040,-0.02,-0.05,-0.05
2020-08-12 19:56:50.3030,-0.08,-0.03,0.03
2020-08-12 19:56:50.4030,-0.17,-0.03,0.03
2020-08-12 19:56:50.5020,-0.28,0.0,0.07
2020-08-12 19:56:50.6010,-0.28,0.04,-0.11
2020-08-12 19:56:50.7010,-0.93,-0.5,-0.12
2020-08-12 19:56:50.8000,0.1,0.03,-0.01
2020-08-12 19:56:50.8990,-0.01,-0.03,0.0
2020-08-12 19:56:50.9990,-0.02,-0.0,0.01
2020-08-12 19:56:51.0980,-0.03,0.04,-0.04
2020-08-12 19:56:51.1970,-0.07,-0.05,-0.08
2020-08-12 19:56:51.2960,0.05,-0.07,-0.02
2020-08-12 19:56:51.3950,0.11,-0.21,-0.01
2020-08-12 19:56:51.4950,0.22,-0.38,-0.09
2020-08-12 19:56:51.5940,-0.01,0.08,-0.04
2020-08-12 19:56:51.6930,0.42,0.14,-0.18
2020-08-12 19:56:51.7920,0.22,0.12,-0.07
2020-08-12 19:56:51.8920,0.07,0.0,0.05
2020-08-12 19:56:51.9910,0.2,-0.02,-0.08
2020-08-12 19:56:52.0900,0.15,-0.02,-0.03
2020-08-12 19:56:52.1890,-0.04,-0.05,0.02
2020-08-12 19:56:52.2890,-0.15,-0.07,-0.01
2020-08-12 19:56:52.3880,-0.36,-0.07,-0.07
2020-08-12 19:56:52.4870,-0.51,0.08,-0.12
2020-08-12 19:56:52.5870,0.45,-0.4,-0.34
2020-08-12 19:56:52.6860,-0.39,0.07,0.21
2020-08-12 19:56:52.7850,-0.1,0.01,0.03
2020-08-12 19:56:52.8850,-0.04,-0.0,-0.02
2020-08-12 19:56:52.9840,-0.01,-0.0,-0.03
2020-08-12 19:56:53.0830,0.0,-0.03,-0.03
2020-08-12 19:56:53.1820,0.07,-0.1,-0.03
2020-08-12 19:56:53.2820,0.05,-0.33,-0.02
2020-08-12 19:56:53.3810,0.28,-0.32,0.01
2020-08-12 19:56:53.4800,-0.06,0.15,0.02
2020-08-12 19:56:53.5790,0.37,0.11,-0.14
2020-08-12 19:56:53.6790,0.23,0.06,-0.07
2020-08-12 19:56:53.7780,0.1,0.03,-0.01
2020-08-12 19:56:53.8770,0.03,-0.07,-0.04
2020-08-12 19:56:53.9760,-0.02,-0.02,-0.04
2020-08-12 19:56:54.0760,-0.04,-0.01,-0.0
2020-08-12 19:56:54.1750,-0.16,-0.04,0.01
2020-08-12 19:56:54.2740,-0.37,-0.02,0.04
2020-08-12 19:56:54.3740,-0.46,0.05,-0.1
2020-08-12 19:56:54.4730,0.7,-0.67,0.29
2020-08-12 19:56:54.5720,0.04,0.07,0.2
2020-08-12 19:56:54.6710,-0.02,-0.02,0.04
2020-08-12 19:56:54.7710,-0.06,0.02,-0.01
2020-08-12 19:56:54.8700,0.03,-0.01,-0.0
2020-08-12 19:56:54.9690,0.02,-0.06,-0.02
2020-08-12 19:56:55.0680,0.05,-0.07,-0.04
2020-08-12 19:56:55.1680,0.09,-0.22,-0.01
2020-08-12 19:56:55.2670,0.21,-0.36,-0.06
2020-08-12 19:56:55.3660,-0.02,0.24,0.03
2020-08-12 19:56:55.4650,0.42,0.13,-0.12
2020-08-12 19:56:55.5650,0.24,0.01,-0.12
2020-08-12 19:56:55.6640,0.15,0.04,-0.07
2020-08-12 19:56:55.7630,0.07,0.02,-0.06
2020-08-12 19:56:55.8620,0.02,-0.06,-0.07
2020-08-12 19:56:55.9620,0.03,-0.03,-0.01
2020-08-12 19:56:56.0610,-0.12,-0.02,0.03
2020-08-12 19:56:56.1600,-0.16,-0.03,0.05
2020-08-12 19:56:56.2590,-0.33,0.04,-0.13
2020-08-12 19:56:56.3590,-1.46,-0.18,0.1
2020-08-12 19:56:56.4580,0.56,-0.13,-0.16
2020-08-12 19:56:56.5570,0.21,-0.04,-0.05
2020-08-12 19:56:56.6570,-0.07,0.01,0.0
2020-08-12 19:56:56.7560,-0.01,0.01,-0.04
2020-08-12 19:56:56.8550,0.01,-0.02,-0.06
2020-08-12 19:56:56.9550,0.01,-0.03,-0.02
2020-08-12 19:56:57.0540,-0.02,-0.07,-0.04
2020-08-12 19:56:57.1530,0.08,-0.43,0.02
2020-08-12 19:56:57.2520,0.18,-0.15,-0.01
2020-08-12 19:56:57.3520,0.08,0.12,0.01
2020-08-12 19:56:57.4510,0.41,0.05,-0.07
2020-08-12 19:56:57.5500,0.21,0.06,0.06
2020-08-12 19:56:57.6490,0.05,-0.05,-0.13
2020-08-12 19:56:57.7490,-0.06,-0.07,-0.1
2020-08-12 19:56:57.8480,-0.08,-0.02,0.0
2020-08-12 19:56:57.9470,-0.02,0.01,-0.05
2020-08-12 19:56:58.0460,-0.17,-0.04,-0.05
2020-08-12 19:56:58.1460,-0.37,0.04,0.02
2020-08-12 19:56:58.2450,-0.35,0.1,-0.14
2020-08-12 19:56:58.3440,0.31,-0.27,-0.38
2020-08-12 19:56:58.4430,-0.45,-0.05,0.18
2020-08-12 19:56:58.5430,-0.02,0.0,-0.0
2020-08-12 19:56:58.6420,0.01,-0.02,-0.05
2020-08-12 19:56:58.7410,0.02,-0.02,-0.03
2020-08-12 19:56:58.8410,-0.01,-0.03,-0.05
2020-08-12 19:56:58.9400,0.01,-0.11,-0.06
2020-08-12 19:56:59.0390,0.08,-0.48,0.07
2020-08-12 19:56:59.1380,0.18,-0.17,0.0
2020-08-12 19:56:59.2380,-0.06,0.17,-0.01
2020-08-12 19:56:59.3370,0.29,0.18,-0.15
2020-08-12 19:56:59.4360,-0.0,-0.01,-0.08
2020-08-12 19:56:59.5350,0.05,0.01,-0.07
2020-08-12 19:56:59.6350,-0.0,-0.02,-0.02
2020-08-12 19:56:59.7340,-0.05,-0.04,-0.03
2020-08-12 19:56:59.8330,-0.11,-0.04,-0.12
2020-08-12 19:56:59.9320,-0.23,-0.01,-0.04
2020-08-12 19:57:00.0310,-0.21,0.03,0.0
2020-08-12 19:57:00.1310,-0.24,0.06,-0.04
2020-08-12 19:57:00.2300,-0.01,-0.37,0.05
2020-08-12 19:57:00.3300,-0.11,0.05,0.14
2020-08-12 19:57:00.4290,-0.0,-0.07,0.04
2020-08-12 19:57:00.5280,-0.0,0.01,-0.02
2020-08-12 19:57:00.6270,-0.06,0.02,-0.02
2020-08-12 19:57:00.7270,0.05,-0.06,-0.03
2020-08-12 19:57:00.8260,0.04,-0.1,-0.01
2020-08-12 19:57:00.9250,0.04,-0.16,-0.02
2020-08-12 19:57:01.0240,0.25,-0.44,0.0
2020-08-12 19:57:01.1240,0.01,0.02,0.08
2020-08-12 19:57:01.2230,0.59,0.24,-0.08
2020-08-12 19:57:01.3220,0.38,0.1,-0.18
2020-08-12 19:57:01.4220,-0.03,-0.02,-0.0
2020-08-12 19:57:01.5210,-0.13,-0.03,-0.07
2020-08-12 19:57:01.6200,-0.03,-0.02,-0.05
2020-08-12 19:57:01.7190,-0.14,-0.06,-0.02
2020-08-12 19:57:01.8190,-0.24,0.01,0.02
2020-08-12 19:57:01.9180,-0.28,0.02,0.0
2020-08-12 19:57:02.0170,-0.31,0.04,-0.08
2020-08-12 19:57:02.1160,-0.24,0.12,-0.07
2020-08-12 19:57:02.2150,0.09,-0.02,-0.1
2020-08-12 19:57:02.3150,0.08,-0.05,-0.04
2020-08-12 19:57:02.4140,-0.01,0.0,-0.01
2020-08-12 19:57:02.5130,-0.04,0.03,-0.05
2020-08-12 19:57:02.6130,-0.01,-0.02,-0.03
2020-08-12 19:57:02.7120,0.03,-0.05,-0.07
2020-08-12 19:57:02.8110,-0.0,-0.08,-0.03
2020-08-12 19:57:02.9100,0.1,-0.46,-0.06
2020-08-12 19:57:03.0100,0.01,-0.0,0.09
2020-08-12 19:57:03.1090,0.28,0.13,-0.0
2020-08-12 19:57:03.2080,0.27,0.16,-0.15
2020-08-12 19:57:03.3080,-0.04,0.09,-0.04
2020-08-12 19:57:03.4070,-0.08,-0.01,-0.03
2020-08-12 19:57:03.5060,0.0,0.02,-0.12
2020-08-12 19:57:03.6050,0.05,-0.0,-0.05
2020-08-12 19:57:03.7050,0.01,-0.01,0.01
2020-08-12 19:57:03.8040,-0.02,-0.02,0.01
2020-08-12 19:57:03.9030,-0.09,-0.03,-0.01
2020-08-12 19:57:04.0030,-0.26,0.03,-0.04
2020-08-12 19:57:04.1020,-0.64,0.04,-0.29
2020-08-12 19:57:04.2010,0.07,0.02,-0.01
2020-08-12 19:57:04.3000,0.05,-0.05,-0.12
2020-08-12 19:57:04.3990,0.02,-0.04,-0.01
2020-08-12 19:57:04.4990,-0.01,-0.01,-0.04
2020-08-12 19:57:04.5980,0.0,-0.04,-0.02
2020-08-12 19:57:04.6970,0.01,-0.06,-0.03
2020-08-12 19:57:04.7970,0.04,-0.13,0.01
2020-08-12 19:57:04.8960,0.2,-0.5,0.04
2020-08-12 19:57:04.9950,0.21,0.0,0.05
2020-08-12 19:57:05.0950,0.6,0.21,-0.05
2020-08-12 19:57:05.1940,0.2,0.12,-0.12
2020-08-12 19:57:05.2930,-0.04,0.0,-0.08
2020-08-12 19:57:05.3920,-0.12,0.03,-0.05
2020-08-12 19:57:05.4920,0.06,0.04,-0.03
2020-08-12 19:57:05.5910,0.05,0.0,-0.04
2020-08-12 19:57:05.6900,-0.02,-0.06,-0.01
2020-08-12 19:57:05.7890,-0.15,-0.05,0.04
2020-08-12 19:57:05.8880,-0.27,0.02,-0.05
2020-08-12 19:57:05.9880,-0.34,0.08,-0.12
2020-08-12 19:57:06.0870,0.24,-0.38,-0.62
2020-08-12 19:57:06.1860,-0.37,0.0,0.2
2020-08-12 19:57:06.2860,-0.01,-0.05,-0.02
2020-08-12 19:57:06.3850,0.01,0.01,-0.05
2020-08-12 19:57:06.4840,-0.01,-0.01,-0.03
2020-08-12 19:57:06.5830,0.04,0.0,-0.02
2020-08-12 19:57:06.6830,0.04,-0.08,-0.05
2020-08-12 19:57:06.7820,0.08,-0.13,-0.03
2020-08-12 19:57:06.8810,0.14,-0.37,-0.05
2020-08-12 19:57:06.9800,0.07,0.04,0.1
2020-08-12 19:57:07.0800,0.31,0.11,-0.07
2020-08-12 19:57:07.1790,0.22,0.1,-0.11
2020-08-12 19:57:07.2790,0.05,-0.02,-0.09
2020-08-12 19:57:07.3780,0.04,0.0,-0.06
2020-08-12 19:57:07.4770,0.0,-0.03,-0.05
2020-08-12 19:57:07.5760,-0.09,-0.04,-0.01
2020-08-12 19:57:07.6760,-0.09,0.03,-0.03
2020-08-12 19:57:07.7750,-0.09,0.03,-0.03
2020-08-12 19:57:07.8740,-0.1,0.03,0.02
2020-08-12 19:57:07.9730,-0.2,-0.01,0.01
2020-08-12 19:57:08.0730,-1.56,-0.1,-0.13
2020-08-12 19:57:08.1720,0.01,0.03,0.03
2020-08-12 19:57:08.2710,0.04,-0.04,-0.03
2020-08-12 19:57:08.3700,-0.01,0.0,0.02
2020-08-12 19:57:08.4690,0.0,-0.01,-0.04
2020-08-12 19:57:08.5690,0.04,-0.03,-0.03
2020-08-12 19:57:08.6680,0.01,-0.07,-0.06
2020-08-12 19:57:08.7670,0.05,-0.1,-0.0
2020-08-12 19:57:08.8660,0.11,-0.43,0.03
2020-08-12 19:57:08.9660,0.15,-0.04,0.08
2020-08-12 19:57:09.0660,0.48,0.14,-0.12
2020-08-12 19:57:09.1640,0.13,0.11,-0.1
2020-08-12 19:57:09.2640,-0.04,-0.03,-0.11
2020-08-12 19:57:09.3630,-0.03,0.01,-0.04
2020-08-12 19:57:09.4620,-0.0,-0.0,-0.12
2020-08-12 19:57:09.5610,-0.02,0.0,-0.01
2020-08-12 19:57:09.6610,-0.01,0.0,-0.02
2020-08-12 19:57:09.7600,-0.05,0.0,-0.01
2020-08-12 19:57:09.8590,-0.18,0.01,0.01
2020-08-12 19:57:09.9590,-0.23,0.02,-0.08
2020-08-12 19:57:10.0580,-1.08,-0.03,-0.01
2020-08-12 19:57:10.1570,0.11,0.04,-0.01
2020-08-12 19:57:10.2570,0.08,-0.05,-0.08
2020-08-12 19:57:10.3560,-0.14,0.08,0.05
2020-08-12 19:57:10.4550,0.05,-0.03,-0.03
2020-08-12 19:57:10.5540,0.08,-0.03,-0.04
2020-08-12 19:57:10.6530,0.03,-0.03,-0.06
2020-08-12 19:57:10.7530,-0.0,-0.1,0.0
2020-08-12 19:57:10.8520,0.03,-0.38,0.02
2020-08-12 19:57:10.9510,0.14,-0.12,0.01
2020-08-12 19:57:11.0510,-0.07,0.14,0.08
2020-08-12 19:57:11.1500,0.25,0.17,-0.07
2020-08-12 19:57:11.2490,0.2,0.05,-0.08
2020-08-12 19:57:11.3480,0.07,-0.01,-0.07
2020-08-12 19:57:11.4480,0.07,-0.05,-0.07
2020-08-12 19:57:11.5470,0.01,-0.06,-0.05
2020-08-12 19:57:11.6460,-0.16,-0.08,0.03
2020-08-12 19:57:11.7450,-0.34,-0.02,0.02
2020-08-12 19:57:11.8450,-0.44,0.08,0.04
2020-08-12 19:57:11.9440,-0.34,0.09,-0.05
2020-08-12 19:57:12.0430,-0.13,-0.09,-0.49
2020-08-12 19:57:12.1420,-0.21,-0.02,0.02
2020-08-12 19:57:12.2420,0.05,-0.06,-0.04
2020-08-12 19:57:12.3410,0.01,0.01,-0.04
2020-08-12 19:57:12.4400,-0.02,-0.02,-0.03
2020-08-12 19:57:12.5410,-0.0,-0.0,-0.02
2020-08-12 19:57:12.6390,-0.01,-0.05,-0.02
2020-08-12 19:57:12.7380,0.04,-0.1,-0.03
2020-08-12 19:57:12.8370,0.1,-0.36,-0.03
2020-08-12 19:57:12.9370,0.13,-0.16,0.07
2020-08-12 19:57:13.0360,0.17,0.22,0.06
2020-08-12 19:57:13.1350,0.35,0.15,-0.15
2020-08-12 19:57:13.2340,0.09,0.01,-0.03
2020-08-12 19:57:13.3340,0.14,-0.03,-0.16
2020-08-12 19:57:13.4330,0.02,-0.03,-0.04
2020-08-12 19:57:13.5320,0.01,-0.02,0.0
2020-08-12 19:57:13.6310,-0.12,-0.04,-0.0
2020-08-12 19:57:13.7310,-0.1,0.02,0.02
2020-08-12 19:57:13.8300,-0.15,0.03,-0.01
2020-08-12 19:57:13.9300,-0.37,0.06,0.02
2020-08-12 19:57:14.0290,-0.64,-0.02,-0.21
2020-08-12 19:57:14.1280,0.0,0.07,0.07
2020-08-12 19:57:14.2270,-0.01,-0.06,-0.07
2020-08-12 19:57:14.3260,0.03,-0.03,0.02
2020-08-12 19:57:14.4260,-0.04,0.01,-0.05
2020-08-12 19:57:14.5250,-0.0,-0.01,-0.04
2020-08-12 19:57:14.6240,0.07,-0.04,-0.04
2020-08-12 19:57:14.7230,-0.02,-0.06,-0.01
2020-08-12 19:57:14.8230,0.06,-0.4,-0.0
2020-08-12 19:57:14.9220,0.16,-0.16,0.07
2020-08-12 19:57:15.0210,0.06,0.18,0.1
2020-08-12 19:57:15.1200,0.28,0.2,-0.1
2020-08-12 19:57:15.2200,0.17,0.0,-0.1
2020-08-12 19:57:15.3190,0.04,0.0,-0.08
2020-08-12 19:57:15.4180,-0.04,-0.01,-0.04
2020-08-12 19:57:15.5170,-0.06,-0.05,-0.06
2020-08-12 19:57:15.6170,-0.18,-0.03,-0.05
2020-08-12 19:57:15.7160,-0.18,0.04,-0.04
2020-08-12 19:57:15.8150,-0.18,0.05,-0.02
2020-08-12 19:57:15.9140,-0.17,0.05,-0.0
2020-08-12 19:57:16.0140,-1.3,-0.2,-0.12
2020-08-12 19:57:16.1130,0.09,0.0,-0.08
2020-08-12 19:57:16.2120,0.08,-0.05,0.02
2020-08-12 19:57:16.3120,-0.01,-0.01,0.0
2020-08-12 19:57:16.4110,-0.01,-0.01,-0.01
2020-08-12 19:57:16.5100,-0.0,-0.01,-0.02
2020-08-12 19:57:16.6100,0.06,-0.05,-0.02
2020-08-12 19:57:16.7090,0.08,-0.16,-0.01
2020-08-12 19:57:16.8080,0.14,-0.43,0.01
2020-08-12 19:57:16.9070,0.07,0.02,0.04
2020-08-12 19:57:17.0060,0.53,0.16,-0.21
2020-08-12 19:57:17.1060,0.18,0.02,-0.08
2020-08-12 19:57:17.2050,-0.05,-0.01,-0.06
2020-08-12 19:57:17.3040,0.04,0.04,-0.08
2020-08-12 19:57:17.4030,0.01,0.0,0.0
2020-08-12 19:57:17.5030,-0.04,0.02,0.01
2020-08-12 19:57:17.6020,-0.11,0.01,0.03
2020-08-12 19:57:17.7020,-0.24,-0.04,0.06
2020-08-12 19:57:17.8010,-0.37,-0.01,-0.08
2020-08-12 19:57:17.9000,-0.28,0.0,-0.3
2020-08-12 19:57:17.9990,-0.09,0.04,-0.19
2020-08-12 19:57:18.0980,0.0,-0.04,-0.07
2020-08-12 19:57:18.1980,0.07,-0.02,-0.01
2020-08-12 19:57:18.2970,-0.03,-0.0,-0.02
2020-08-12 19:57:18.3960,0.0,-0.0,-0.03
2020-08-12 19:57:18.4960,0.02,-0.01,-0.06
2020-08-12 19:57:18.5950,0.02,-0.05,-0.01
2020-08-12 19:57:18.6940,0.02,-0.19,0.0
2020-08-12 19:57:18.7930,0.18,-0.37,-0.03
2020-08-12 19:57:18.8930,0.14,-0.07,0.02
2020-08-12 19:57:18.9920,0.58,0.17,-0.06
2020-08-12 19:57:19.0910,0.39,0.1,-0.06
2020-08-12 19:57:19.1900,0.07,-0.03,0.03
2020-08-12 19:57:19.2900,-0.11,-0.06,-0.06
2020-08-12 19:57:19.3890,-0.17,-0.07,-0.11
2020-08-12 19:57:19.4880,-0.14,0.01,-0.01
2020-08-12 19:57:19.5880,-0.17,-0.01,-0.06
2020-08-12 19:57:19.6870,-0.37,0.01,-0.02
2020-08-12 19:57:19.7860,-0.34,0.08,-0.14
2020-08-12 19:57:19.8850,-0.12,-0.21,-0.33
2020-08-12 19:57:19.9840,-0.21,0.02,0.05
2020-08-12 19:57:20.0840,-0.08,-0.02,-0.01
2020-08-12 19:57:20.1830,-0.02,0.02,-0.04
2020-08-12 19:57:20.2820,-0.03,-0.01,-0.07
2020-08-12 19:57:20.3820,-0.04,-0.01,-0.01
2020-08-12 19:57:20.4810,0.03,-0.09,-0.02
2020-08-12 19:57:20.5800,0.07,-0.09,-0.0
2020-08-12 19:57:20.6790,0.24,-0.49,-0.11
2020-08-12 19:57:20.7790,0.02,0.03,0.14
2020-08-12 19:57:20.8780,0.24,0.22,0.1
2020-08-12 19:57:20.9770,0.32,0.19,-0.17
2020-08-12 19:57:21.0760,0.07,0.03,-0.11
2020-08-12 19:57:21.1760,-0.04,-0.03,0.0
2020-08-12 19:57:21.2750,-0.11,-0.01,0.01
2020-08-12 19:57:21.3740,0.04,0.07,-0.05
2020-08-12 19:57:21.4740,-0.01,-0.08,-0.14
2020-08-12 19:57:21.5730,-0.27,-0.06,0.04
2020-08-12 19:57:21.6720,-0.2,0.03,0.02
2020-08-12 19:57:21.7710,-0.28,0.05,-0.06
2020-08-12 19:57:21.8710,-0.17,-0.37,-0.07
2020-08-12 19:57:21.9700,0.21,-0.04,-0.01
2020-08-12 19:57:22.0690,0.07,-0.03,0.02
2020-08-12 19:57:22.1690,-0.0,0.0,-0.03
2020-08-12 19:57:22.2680,0.0,-0.02,-0.04
2020-08-12 19:57:22.3670,0.03,-0.06,-0.0
2020-08-12 19:57:22.4660,0.05,-0.12,0.01
2020-08-12 19:57:22.5660,0.04,-0.52,-0.01
2020-08-12 19:57:22.6650,0.07,-0.1,0.06
2020-08-12 19:57:22.7640,0.49,0.19,-0.19
2020-08-12 19:57:22.8640,0.28,0.13,-0.1
2020-08-12 19:57:22.9630,0.05,-0.01,-0.09
2020-08-12 19:57:23.0620,-0.1,0.03,-0.05
2020-08-12 19:57:23.1610,-0.14,0.0,-0.04
2020-08-12 19:57:23.2600,0.03,0.03,-0.06
2020-08-12 19:57:23.3600,-0.01,0.02,-0.01
2020-08-12 19:57:23.4590,0.0,-0.0,-0.05
2020-08-12 19:57:23.5580,-0.13,-0.02,-0.05
2020-08-12 19:57:23.6570,-0.33,0.05,-0.06
2020-08-12 19:57:23.7570,-1.64,-0.5,0.3
2020-08-12 19:57:23.8560,0.27,-0.06,-0.06
2020-08-12 19:57:23.9550,0.12,-0.04,-0.01
2020-08-12 19:57:24.0540,-0.01,0.01,-0.03
2020-08-12 19:57:24.1540,-0.01,-0.02,-0.02
2020-08-12 19:57:24.2530,0.06,-0.02,-0.05
2020-08-12 19:57:24.3530,0.06,-0.03,-0.02
2020-08-12 19:57:24.4520,0.01,-0.07,0.03
2020-08-12 19:57:24.5510,0.14,-0.5,-0.06
2020-08-12 19:57:24.6500,0.13,-0.11,0.04
2020-08-12 19:57:24.7500,0.14,0.11,0.03
2020-08-12 19:57:24.8490,0.4,0.12,-0.15
2020-08-12 19:57:24.9480,0.06,0.04,-0.0
2020-08-12 19:57:25.0470,-0.04,-0.02,-0.02
2020-08-12 19:57:25.1470,-0.11,-0.03,-0.05
2020-08-12 19:57:25.2460,0.01,0.03,-0.02
2020-08-12 19:57:25.3450,0.02,-0.13,-0.1
2020-08-12 19:57:25.4440,-0.32,-0.05,0.08
2020-08-12 19:57:25.5440,-0.41,0.07,0.0
2020-08-12 19:57:25.6430,-0.8,-0.08,-0.11
2020-08-12 19:57:25.7420,0.02,-0.02,-0.05
2020-08-12 19:57:25.8410,0.03,-0.06,-0.05
2020-08-12 19:57:25.9410,-0.04,-0.02,0.02
2020-08-12 19:57:26.0400,0.01,0.02,-0.03
2020-08-12 19:57:26.1390,0.02,-0.03,-0.06
2020-08-12 19:57:26.2380,0.01,-0.05,-0.05
2020-08-12 19:57:26.3380,0.02,-0.09,0.0
2020-08-12 19:57:26.4370,0.07,-0.35,0.08
2020-08-12 19:57:26.5360,0.15,-0.21,0.0
2020-08-12 19:57:26.6360,0.04,0.11,0.07
2020-08-12 19:57:26.7350,0.51,0.17,-0.18
2020-08-12 19:57:26.8340,0.1,-0.02,-0.07
2020-08-12 19:57:26.9330,-0.05,-0.04,-0.06
2020-08-12 19:57:27.0330,-0.09,-0.01,-0.06
2020-08-12 19:57:27.1320,-0.0,-0.02,-0.01
2020-08-12 19:57:27.2310,-0.17,-0.02,-0.06
2020-08-12 19:57:27.3300,-0.11,0.06,-0.03
2020-08-12 19:57:27.4300,-0.17,0.01,-0.05
2020-08-12 19:57:27.5290,-0.29,0.01,-0.06
2020-08-12 19:57:27.6280,0.04,-0.44,-0.26
2020-08-12 19:57:27.7270,-0.13,-0.01,0.2
2020-08-12 19:57:27.8270,-0.12,-0.0,0.01
2020-08-12 19:57:27.9260,-0.03,-0.02,-0.03
2020-08-12 19:57:28.0250,-0.02,-0.0,-0.04
2020-08-12 19:57:28.1240,-0.05,-0.02,-0.06
2020-08-12 19:57:28.2240,0.01,-0.06,-0.03
2020-08-12 19:57:28.3230,0.08,-0.12,0.01
2020-08-12 19:57:28.4220,0.12,-0.38,0.01
2020-08-12 19:57:28.5220,0.06,-0.17,0.04
2020-08-12 19:57:28.6210,0.13,0.09,0.11
2020-08-12 19:57:28.7200,0.41,0.18,-0.18
2020-08-12 19:57:28.8190,0.09,0.0,-0.14
2020-08-12 19:57:28.9190,0.04,-0.03,-0.05
2020-08-12 19:57:29.0180,0.07,-0.03,0.02
2020-08-12 19:57:29.1170,-0.11,-0.09,-0.03
2020-08-12 19:57:29.2160,-0.09,0.06,-0.1
2020-08-12 19:57:29.3160,-0.33,0.02,-0.04
2020-08-12 19:57:29.4150,-0.31,0.02,0.1
2020-08-12 19:57:29.5140,-0.26,0.07,-0.09
2020-08-12 19:57:29.6130,0.42,-0.57,0.17
2020-08-12 19:57:29.7130,0.03,0.11,0.1
2020-08-12 19:57:29.8120,-0.03,-0.02,-0.04
2020-08-12 19:57:29.9110,0.01,-0.02,-0.0
2020-08-12 19:57:30.0100,-0.02,-0.01,-0.04
2020-08-12 19:57:30.1100,0.03,-0.01,-0.01
2020-08-12 19:57:30.2090,0.03,-0.08,-0.08
2020-08-12 19:57:30.3080,0.05,-0.17,-0.05
2020-08-12 19:57:30.4080,0.15,-0.39,-0.03
2020-08-12 19:57:30.5070,0.2,0.01,0.05
2020-08-12 19:57:30.6060,0.36,0.14,0.04
2020-08-12 19:57:30.7050,0.35,0.08,-0.13
2020-08-12 19:57:30.8050,-0.0,0.06,0.01
2020-08-12 19:57:30.9040,-0.14,0.01,-0.07
2020-08-12 19:57:31.0030,0.06,-0.0,-0.11
2020-08-12 19:57:31.1030,0.02,-0.06,-0.03
2020-08-12 19:57:31.2020,-0.1,-0.04,0.05
2020-08-12 19:57:31.3010,-0.29,-0.01,0.04
2020-08-12 19:57:31.4000,-0.38,0.02,-0.02
2020-08-12 19:57:31.5000,-0.56,0.1,-0.08
2020-08-12 19:57:31.5990,0.19,-0.07,0.08
2020-08-12 19:57:31.6980,0.14,-0.07,-0.02
2020-08-12 19:57:31.7970,-0.05,0.05,0.03
2020-08-12 19:57:31.8970,-0.04,-0.02,-0.02
2020-08-12 19:57:31.9960,0.03,-0.02,-0.04
2020-08-12 19:57:32.0950,0.05,-0.07,-0.07
2020-08-12 19:57:32.1940,0.11,-0.14,0.0
2020-08-12 19:57:32.2940,0.13,-0.43,-0.08
2020-08-12 19:57:32.3930,0.22,-0.02,0.02
2020-08-12 19:57:32.4920,0.45,0.18,0.01
2020-08-12 19:57:32.5910,0.26,0.12,-0.06
2020-08-12 19:57:32.6910,-0.04,-0.03,-0.05
2020-08-12 19:57:32.7900,-0.02,0.0,-0.09
2020-08-12 19:57:32.8890,-0.02,-0.01,-0.1
2020-08-12 19:57:32.9890,-0.06,0.01,0.01
2020-08-12 19:57:33.0880,0.04,-0.01,-0.05
2020-08-12 19:57:33.1870,-0.16,-0.07,-0.01
2020-08-12 19:57:33.2860,-0.29,0.0,-0.05
2020-08-12 19:57:33.3860,-0.47,0.14,-0.14
2020-08-12 19:57:33.4850,-0.5,0.08,-0.51
2020-08-12 19:57:33.5840,-0.3,-0.02,-0.0
2020-08-12 19:57:33.6840,-0.1,-0.03,0.01
2020-08-12 19:57:33.7830,-0.02,-0.01,-0.04
2020-08-12 19:57:33.8820,-0.02,-0.03,-0.04
2020-08-12 19:57:33.9810,0.02,-0.03,-0.03
2020-08-12 19:57:34.0800,-0.0,-0.13,0.03
2020-08-12 19:57:34.1800,0.12,-0.46,0.05
2020-08-12 19:57:34.2790,0.12,-0.14,0.05
2020-08-12 19:57:34.3780,0.5,0.26,0.08
2020-08-12 19:57:34.4770,0.34,0.16,-0.11
2020-08-12 19:57:34.5770,0.03,-0.0,-0.04
2020-08-12 19:57:34.6770,0.04,-0.07,-0.11
2020-08-12 19:57:34.7750,-0.05,-0.01,-0.02
2020-08-12 19:57:34.8740,-0.1,-0.02,-0.05
2020-08-12 19:57:34.9740,-0.13,0.01,-0.01
2020-08-12 19:57:35.0730,-0.31,-0.06,-0.0
2020-08-12 19:57:35.1730,-0.34,-0.01,-0.03
2020-08-12 19:57:35.2720,-0.58,0.12,0.02
2020-08-12 19:57:35.3710,0.23,-0.06,-0.05
2020-08-12 19:57:35.4700,0.05,-0.07,-0.07
2020-08-12 19:57:35.5700,0.03,-0.01,-0.02
2020-08-12 19:57:35.6690,0.03,0.0,-0.05
2020-08-12 19:57:35.7680,0.02,0.01,-0.03
2020-08-12 19:57:35.8670,0.07,-0.07,-0.04
2020-08-12 19:57:35.9660,0.04,-0.16,-0.04
2020-08-12 19:57:36.0660,0.19,-0.5,0.0
2020-08-12 19:57:36.1650,0.09,0.02,0.08
2020-08-12 19:57:36.2640,0.53,0.19,-0.14
2020-08-12 19:57:36.3640,0.22,0.15,-0.12
2020-08-12 19:57:36.4630,0.03,0.03,-0.04
2020-08-12 19:57:36.5620,-0.01,-0.01,-0.04
2020-08-12 19:57:36.6610,0.01,-0.02,-0.07
2020-08-12 19:57:36.7610,-0.1,-0.07,-0.03
2020-08-12 19:57:36.8600,-0.08,-0.01,-0.03
2020-08-12 19:57:36.9590,-0.22,-0.01,-0.01
2020-08-12 19:57:37.0580,-0.28,0.05,-0.02
2020-08-12 19:57:37.1580,-0.24,0.09,-0.05
2020-08-12 19:57:37.2570,0.34,-0.27,-0.26
2020-08-12 19:57:37.3560,-0.16,0.09,0.23
2020-08-12 19:57:37.4560,-0.01,-0.04,0.0
2020-08-12 19:57:37.5550,0.03,0.01,-0.04
2020-08-12 19:57:37.6540,-0.02,0.01,-0.05
2020-08-12 19:57:37.7530,-0.08,-0.03,-0.01
2020-08-12 19:57:37.8530,-0.02,-0.05,-0.04
2020-08-12 19:57:37.9520,0.04,-0.1,-0.07
2020-08-12 19:57:38.0510,0.12,-0.56,0.0
2020-08-12 19:57:38.1500,0.03,-0.13,0.11
2020-08-12 19:57:38.2500,0.42,0.22,-0.09
2020-08-12 19:57:38.3490,0.31,0.15,-0.12
2020-08-12 19:57:38.4480,-0.0,-0.01,-0.03
2020-08-12 19:57:38.5480,-0.19,-0.01,-0.05
2020-08-12 19:57:38.6470,-0.08,0.06,-0.05
2020-08-12 19:57:38.7460,0.11,0.02,-0.07
2020-08-12 19:57:38.8450,-0.01,-0.04,0.05
2020-08-12 19:57:38.9450,-0.04,-0.04,-0.04
2020-08-12 19:57:39.0440,-0.31,-0.01,-0.02
2020-08-12 19:57:39.1430,-0.37,0.02,-0.07
2020-08-12 19:57:39.2430,-0.27,-0.59,-0.04
2020-08-12 19:57:39.3420,0.02,0.03,0.01
2020-08-12 19:57:39.4410,0.03,-0.07,0.01
2020-08-12 19:57:39.5400,0.03,-0.01,-0.04
2020-08-12 19:57:39.6400,-0.02,0.0,-0.04
2020-08-12 19:57:39.7390,0.07,0.02,-0.05
2020-08-12 19:57:39.8380,0.06,-0.08,0.0
2020-08-12 19:57:39.9370,0.02,-0.17,-0.0
2020-08-12 19:57:40.0370,0.16,-0.48,-0.02
2020-08-12 19:57:40.1360,0.16,-0.13,0.1
2020-08-12 19:57:40.2350,0.5,0.19,-0.05
2020-08-12 19:57:40.3340,0.3,0.15,-0.14
2020-08-12 19:57:40.4340,-0.05,0.02,-0.02
2020-08-12 19:57:40.5330,-0.12,-0.03,-0.08
2020-08-12 19:57:40.6320,-0.13,0.02,-0.01
2020-08-12 19:57:40.7310,0.02,0.02,-0.07
2020-08-12 19:57:40.8310,-0.03,-0.01,-0.04
2020-08-12 19:57:40.9300,-0.12,-0.01,-0.03
2020-08-12 19:57:41.0300,-0.2,0.02,0.01
2020-08-12 19:57:41.1280,-0.35,0.02,-0.01
2020-08-12 19:57:41.2280,-0.29,-0.23,0.11
2020-08-12 19:57:41.3270,0.19,0.0,-0.01
2020-08-12 19:57:41.4270,0.08,-0.05,-0.04
2020-08-12 19:57:41.5260,-0.01,0.01,0.01
2020-08-12 19:57:41.6250,0.01,-0.01,-0.03
2020-08-12 19:57:41.7240,0.03,-0.01,-0.01
2020-08-12 19:57:41.8240,0.01,-0.05,-0.03
2020-08-12 19:57:41.9230,0.0,-0.1,-0.02
2020-08-12 19:57:42.0230,0.13,-0.46,0.01
2020-08-12 19:57:42.1210,0.17,-0.16,0.04
2020-08-12 19:57:42.2210,0.13,0.21,0.04
2020-08-12 19:57:42.3200,0.35,0.07,-0.11
2020-08-12 19:57:42.4190,0.13,0.06,-0.07
2020-08-12 19:57:42.5180,0.04,-0.01,-0.04
2020-08-12 19:57:42.6170,0.03,0.02,-0.02
2020-08-12 19:57:42.7170,-0.03,-0.07,-0.05
2020-08-12 19:57:42.8160,-0.1,-0.02,0.01
2020-08-12 19:57:42.9150,-0.17,-0.04,-0.04
2020-08-12 19:57:43.0150,-0.34,0.04,0.04
2020-08-12 19:57:43.1140,-0.34,0.05,-0.07
2020-08-12 19:57:43.2130,0.02,-0.29,0.13
2020-08-12 19:57:43.3120,-0.04,0.08,0.06
2020-08-12 19:57:43.4120,0.04,-0.06,-0.0
2020-08-12 19:57:43.5110,0.01,0.03,-0.01
2020-08-12 19:57:43.6100,0.01,0.0,-0.08
2020-08-12 19:57:43.7100,0.08,-0.04,-0.04
2020-08-12 19:57:43.8090,0.05,-0.07,-0.04
2020-08-12 19:57:43.9080,0.11,-0.45,0.05
2020-08-12 19:57:44.0080,0.09,-0.22,-0.03
2020-08-12 19:57:44.1070,0.17,0.13,0.08
2020-08-12 19:57:44.2060,0.37,0.17,-0.11
2020-08-12 19:57:44.3050,0.06,0.02,-0.05
2020-08-12 19:57:44.4050,0.03,0.01,-0.08
2020-08-12 19:57:44.5030,-0.04,-0.03,-0.08
2020-08-12 19:57:44.6030,-0.03,-0.03,-0.09
2020-08-12 19:57:44.7020,-0.09,-0.06,-0.07
2020-08-12 19:57:44.8010,-0.13,0.0,0.01
2020-08-12 19:57:44.9010,-0.18,0.02,0.0
2020-08-12 19:57:45.0000,-0.25,0.06,0.0
2020-08-12 19:57:45.0990,-0.8,-0.05,-0.2
2020-08-12 19:57:45.1990,0.14,-0.02,-0.01
2020-08-12 19:57:45.2980,0.02,-0.03,-0.06
2020-08-12 19:57:45.3970,0.0,-0.02,-0.01
2020-08-12 19:57:45.4960,-0.04,0.01,-0.04
2020-08-12 19:57:45.5960,-0.0,-0.04,-0.03
2020-08-12 19:57:45.6950,-0.02,-0.1,-0.08
2020-08-12 19:57:45.7940,0.06,-0.16,0.03
2020-08-12 19:57:45.8930,0.17,-0.35,-0.07
2020-08-12 19:57:45.9930,0.02,0.0,0.06
2020-08-12 19:57:46.0920,0.49,0.15,-0.05
2020-08-12 19:57:46.1910,0.28,0.04,-0.18
2020-08-12 19:57:46.2910,0.05,-0.02,0.0
2020-08-12 19:57:46.3900,0.04,-0.02,-0.05
2020-08-12 19:57:46.4890,0.01,-0.06,-0.04
2020-08-12 19:57:46.5880,-0.02,-0.02,-0.02
2020-08-12 19:57:46.6870,-0.1,-0.02,0.01
2020-08-12 19:57:46.7870,-0.18,-0.0,0.02
2020-08-12 19:57:46.8870,-0.36,0.01,0.05
2020-08-12 19:57:46.9850,-0.28,0.05,-0.01
2020-08-12 19:57:47.0850,0.05,-0.12,-0.2
2020-08-12 19:57:47.1840,-0.04,0.14,0.02
2020-08-12 19:57:47.2830,-0.04,-0.13,-0.04
2020-08-12 19:57:47.3820,0.02,-0.01,0.0
2020-08-12 19:57:47.4820,0.03,-0.0,-0.06
2020-08-12 19:57:47.5810,0.04,-0.06,-0.05
2020-08-12 19:57:47.6810,0.13,-0.13,-0.01
2020-08-12 19:57:47.7800,0.12,-0.4,0.06
2020-08-12 19:57:47.8790,0.21,-0.28,-0.07
2020-08-12 19:57:47.9780,0.27,0.36,0.17
2020-08-12 19:57:48.0770,0.36,0.17,-0.14
2020-08-12 19:57:48.1770,0.03,-0.03,-0.02
2020-08-12 19:57:48.2760,0.01,0.03,-0.07
2020-08-12 19:57:48.3750,-0.03,0.01,-0.09
2020-08-12 19:57:48.4750,-0.02,-0.01,-0.06
2020-08-12 19:57:48.5740,0.02,-0.05,-0.03
2020-08-12 19:57:48.6730,-0.09,-0.06,-0.03
2020-08-12 19:57:48.7720,-0.33,0.0,0.02
2020-08-12 19:57:48.8710,-0.38,0.01,-0.02
2020-08-12 19:57:48.9710,-0.21,-0.0,-0.15
2020-08-12 19:57:49.0700,-0.14,0.01,-0.2
2020-08-12 19:57:49.1690,-0.09,-0.09,-0.03
2020-08-12 19:57:49.2680,-0.01,-0.05,0.02
2020-08-12 19:57:49.3680,0.01,0.03,-0.02
2020-08-12 19:57:49.4670,0.07,-0.02,-0.06
2020-08-12 19:57:49.5660,0.03,-0.07,-0.01
2020-08-12 19:57:49.6660,0.04,-0.13,-0.02
2020-08-12 19:57:49.7650,0.08,-0.48,0.0
2020-08-12 19:57:49.8640,0.2,-0.07,0.02
2020-08-12 19:57:49.9640,0.5,0.27,0.09
2020-08-12 19:57:50.0630,0.31,0.11,-0.16
2020-08-12 19:57:50.1620,-0.03,0.07,-0.01
2020-08-12 19:57:50.2610,-0.04,-0.02,-0.06
2020-08-12 19:57:50.3610,-0.02,-0.04,-0.07
2020-08-12 19:57:50.4600,-0.03,-0.03,-0.08
2020-08-12 19:57:50.5590,-0.02,-0.06,-0.08
2020-08-12 19:57:50.6580,-0.18,-0.06,0.04
2020-08-12 19:57:50.7580,-0.31,0.02,-0.02
2020-08-12 19:57:50.8570,-0.36,0.12,-0.07
2020-08-12 19:57:50.9560,0.22,-0.31,-0.19
2020-08-12 19:57:51.0560,-0.14,0.07,0.25
2020-08-12 19:57:51.1550,-0.05,-0.04,0.03
2020-08-12 19:57:51.2540,-0.01,0.0,0.01
2020-08-12 19:57:51.3530,-0.02,-0.0,-0.03
2020-08-12 19:57:51.4520,-0.02,-0.02,-0.02
2020-08-12 19:57:51.5510,0.08,-0.05,-0.05
2020-08-12 19:57:51.6510,0.06,-0.11,0.02
2020-08-12 19:57:51.7510,0.1,-0.48,0.03
2020-08-12 19:57:51.8490,0.12,-0.18,-0.04
2020-08-12 19:57:51.9490,0.1,0.17,0.02
2020-08-12 19:57:52.0480,0.45,0.18,-0.14
2020-08-12 19:57:52.1470,0.16,0.0,-0.06
2020-08-12 19:57:52.2470,-0.07,-0.05,-0.03
2020-08-12 19:57:52.3460,-0.14,0.02,0.02
2020-08-12 19:57:52.4450,0.06,-0.01,-0.07
2020-08-12 19:57:52.5450,-0.19,-0.06,-0.02
2020-08-12 19:57:52.6440,-0.25,0.0,0.01
2020-08-12 19:57:52.7430,-0.34,0.01,-0.05
2020-08-12 19:57:52.8420,-0.93,-0.05,0.08
2020-08-12 19:57:52.9420,0.17,-0.01,-0.07
2020-08-12 19:57:53.0410,0.06,-0.03,-0.09
2020-08-12 19:57:53.1400,0.02,-0.04,0.03
2020-08-12 19:57:53.2390,-0.0,0.02,-0.02
2020-08-12 19:57:53.3390,0.01,-0.01,-0.03
2020-08-12 19:57:53.4380,-0.01,-0.03,-0.03
2020-08-12 19:57:53.5370,0.05,-0.09,-0.04
2020-08-12 19:57:53.6360,0.04,-0.15,-0.02
2020-08-12 19:57:53.7360,0.2,-0.46,-0.03
2020-08-12 19:57:53.8350,0.1,-0.01,0.04
2020-08-12 19:57:53.9340,0.64,0.24,-0.13
2020-08-12 19:57:54.0340,0.27,0.04,-0.18
2020-08-12 19:57:54.1330,-0.05,-0.02,0.02
2020-08-12 19:57:54.2320,-0.08,0.03,-0.03
2020-08-12 19:57:54.3310,0.02,0.0,-0.08
2020-08-12 19:57:54.4310,0.01,0.0,-0.0
2020-08-12 19:57:54.5300,-0.09,-0.08,-0.04
2020-08-12 19:57:54.6290,-0.16,-0.02,0.11
2020-08-12 19:57:54.7280,-0.24,0.02,0.04
2020-08-12 19:57:54.8280,-0.3,0.07,-0.12
2020-08-12 19:57:54.9270,-0.11,-0.58,-0.03
2020-08-12 19:57:55.0260,-0.08,0.14,0.11
2020-08-12 19:57:55.1250,-0.03,-0.05,0.01
2020-08-12 19:57:55.2240,0.02,-0.0,0.02
2020-08-12 19:57:55.3240,0.04,0.0,-0.02
2020-08-12 19:57:55.4230,0.03,-0.05,-0.04
2020-08-12 19:57:55.5220,0.01,-0.08,-0.02
2020-08-12 19:57:55.6220,0.14,-0.4,0.0
2020-08-12 19:57:55.7210,0.14,-0.31,0.02
2020-08-12 19:57:55.8200,0.19,0.06,0.04
2020-08-12 19:57:55.9190,0.47,0.18,-0.08
2020-08-12 19:57:56.0190,0.15,-0.03,-0.09
2020-08-12 19:57:56.1180,-0.08,-0.06,-0.02
2020-08-12 19:57:56.2170,-0.09,-0.03,-0.03
2020-08-12 19:57:56.3160,-0.09,0.02,0.0
2020-08-12 19:57:56.4160,-0.25,-0.07,-0.04
2020-08-12 19:57:56.5150,-0.32,0.05,0.02
2020-08-12 19:57:56.6140,-0.16,0.05,-0.06
2020-08-12 19:57:56.7140,-0.23,0.06,-0.03
2020-08-12 19:57:56.8130,0.39,-0.15,-0.18
2020-08-12 19:57:56.9120,-0.06,0.09,0.2
2020-08-12 19:57:57.0120,0.03,-0.05,0.05
2020-08-12 19:57:57.1110,-0.03,0.02,-0.03
2020-08-12 19:57:57.2100,0.01,-0.03,-0.04
2020-08-12 19:57:57.3090,0.01,-0.03,0.0
2020-08-12 19:57:57.4080,0.08,-0.09,-0.02
2020-08-12 19:57:57.5080,0.08,-0.29,-0.03
2020-08-12 19:57:57.6070,0.18,-0.38,0.05
2020-08-12 19:57:57.7060,0.09,0.2,-0.03
2020-08-12 19:57:57.8050,0.39,0.13,-0.05
2020-08-12 19:57:57.9050,0.19,-0.05,-0.02
2020-08-12 19:57:58.0040,0.03,-0.04,-0.07
2020-08-12 19:57:58.1030,-0.02,-0.02,-0.12
2020-08-12 19:57:58.2030,-0.06,0.0,-0.06
2020-08-12 19:57:58.3020,-0.09,-0.02,0.06
2020-08-12 19:57:58.4010,-0.26,-0.06,-0.0
2020-08-12 19:57:58.5000,-0.41,0.03,-0.04
2020-08-12 19:57:58.6000,-0.31,0.12,-0.15
2020-08-12 19:57:58.6990,-0.29,0.06,-0.16
2020-08-12 19:57:58.7990,-0.1,-0.0,-0.09
2020-08-12 19:57:58.8980,0.0,-0.06,0.03
2020-08-12 19:57:58.9970,0.03,0.01,-0.02
2020-08-12 19:57:59.0960,0.01,-0.01,-0.03
2020-08-12 19:57:59.1950,0.0,-0.03,-0.05
2020-08-12 19:57:59.2940,-0.04,-0.08,-0.02
2020-08-12 19:57:59.3940,0.05,-0.22,-0.05
2020-08-12 19:57:59.4930,0.28,-0.4,-0.02
2020-08-12 19:57:59.5920,0.04,0.08,0.06
2020-08-12 19:57:59.6920,0.6,0.19,-0.18
2020-08-12 19:57:59.7910,0.27,0.05,-0.12
2020-08-12 19:57:59.8900,-0.0,-0.03,-0.05
2020-08-12 19:57:59.9890,-0.1,-0.03,-0.04
2020-08-12 19:58:00.0890,0.04,0.01,-0.04
2020-08-12 19:58:00.1880,-0.07,-0.03,-0.04
2020-08-12 19:58:00.2870,-0.09,0.03,0.02
2020-08-12 19:58:00.3870,-0.25,-0.03,0.02
2020-08-12 19:58:00.4860,-0.31,0.03,0.01
2020-08-12 19:58:00.5850,-0.79,-0.0,-0.07
2020-08-12 19:58:00.6840,-0.04,0.0,-0.06
2020-08-12 19:58:00.7840,0.03,-0.03,-0.13
2020-08-12 19:58:00.8830,-0.08,-0.03,0.04
2020-08-12 19:58:00.9820,-0.01,0.01,-0.03
2020-08-12 19:58:01.0820,0.03,-0.03,-0.04
2020-08-12 19:58:01.1810,0.03,-0.11,-0.01
2020-08-12 19:58:01.2800,0.05,-0.13,-0.02
2020-08-12 19:58:01.3790,0.17,-0.41,0.02
2020-08-12 19:58:01.4780,0.25,-0.14,0.05
2020-08-12 19:58:01.5780,0.17,0.25,0.09
2020-08-12 19:58:01.6770,0.43,0.17,-0.14
2020-08-12 19:58:01.7760,-0.08,-0.09,-0.09
2020-08-12 19:58:01.8750,-0.07,-0.06,-0.07
2020-08-12 19:58:01.9750,-0.15,-0.04,-0.09
2020-08-12 19:58:02.0740,-0.14,-0.01,-0.02
2020-08-12 19:58:02.1730,-0.08,0.01,0.02
2020-08-12 19:58:02.2730,-0.13,-0.02,-0.02
2020-08-12 19:58:02.3720,-0.22,0.02,-0.01
2020-08-12 19:58:02.4710,-0.26,0.09,-0.05
2020-08-12 19:58:02.5700,0.34,-0.22,-0.19
2020-08-12 19:58:02.6700,-0.11,0.13,0.17
2020-08-12 19:58:02.7690,-0.05,-0.08,0.06
2020-08-12 19:58:02.8680,0.03,0.01,0.0
2020-08-12 19:58:02.9680,-0.02,-0.0,-0.04
2020-08-12 19:58:03.0670,0.03,-0.03,-0.02
2020-08-12 19:58:03.1660,0.04,-0.1,-0.02
2020-08-12 19:58:03.2650,0.07,-0.36,0.01
2020-08-12 19:58:03.3650,0.2,-0.29,-0.02
2020-08-12 19:58:03.4640,-0.07,0.11,0.15
2020-08-12 19:58:03.5630,0.48,0.17,-0.21
2020-08-12 19:58:03.6620,0.21,0.05,-0.12
2020-08-12 19:58:03.7620,0.03,0.0,-0.01
2020-08-12 19:58:03.8610,-0.03,-0.06,-0.08
2020-08-12 19:58:03.9600,-0.08,-0.02,-0.04
2020-08-12 19:58:04.0600,-0.06,-0.03,-0.06
2020-08-12 19:58:04.1590,-0.12,-0.04,0.02
2020-08-12 19:58:04.2580,-0.24,-0.0,0.01
2020-08-12 19:58:04.3570,-0.31,0.01,-0.03
2020-08-12 19:58:04.4570,-0.24,0.05,-0.1
2020-08-12 19:58:04.5560,-0.02,-0.48,0.16
2020-08-12 19:58:04.6550,0.16,0.05,0.01
2020-08-12 19:58:04.7550,-0.02,-0.07,-0.04
2020-08-12 19:58:04.8540,0.01,-0.02,-0.01
2020-08-12 19:58:04.9530,-0.02,0.01,-0.03
2020-08-12 19:58:05.0520,0.03,0.01,-0.03
2020-08-12 19:58:05.1510,0.06,-0.06,-0.08
2020-08-12 19:58:05.2510,0.06,-0.15,-0.01
2020-08-12 19:58:05.3500,0.12,-0.45,-0.03
2020-08-12 19:58:05.4490,0.14,-0.11,0.06
2020-08-12 19:58:05.5480,0.48,0.29,0.09
2020-08-12 19:58:05.6480,0.38,0.15,-0.15
2020-08-12 19:58:05.7470,-0.05,-0.03,-0.04
2020-08-12 19:58:05.8460,0.03,-0.07,-0.11
2020-08-12 19:58:05.9450,-0.12,-0.06,-0.02
2020-08-12 19:58:06.0450,-0.08,-0.03,-0.05
2020-08-12 19:58:06.1440,-0.14,-0.03,-0.11
2020-08-12 19:58:06.2430,-0.26,0.01,-0.06
2020-08-12 19:58:06.3430,-0.29,0.05,-0.02
2020-08-12 19:58:06.4420,-0.5,0.14,0.05
2020-08-12 19:58:06.5410,0.44,-0.06,-0.07
2020-08-12 19:58:06.6400,0.16,-0.03,-0.09
2020-08-12 19:58:06.7400,0.07,-0.01,-0.05
2020-08-12 19:58:06.8390,-0.01,-0.0,-0.03
2020-08-12 19:58:06.9380,-0.01,-0.02,-0.02
2020-08-12 19:58:07.0380,-0.0,-0.05,-0.05
2020-08-12 19:58:07.1370,-0.01,-0.08,-0.03
2020-08-12 19:58:07.2360,0.14,-0.31,-0.03
2020-08-12 19:58:07.3350,0.33,-0.41,-0.06
2020-08-12 19:58:07.4350,0.03,0.25,0.08
2020-08-12 19:58:07.5340,0.42,0.21,-0.09
2020-08-12 19:58:07.6330,0.22,0.04,-0.11
2020-08-12 19:58:07.7320,-0.14,-0.02,-0.0
2020-08-12 19:58:07.8320,-0.02,-0.03,-0.07
2020-08-12 19:58:07.9310,0.03,0.02,-0.02
2020-08-12 19:58:08.0300,0.01,-0.03,-0.02
2020-08-12 19:58:08.1290,-0.09,-0.03,0.02
2020-08-12 19:58:08.2290,-0.16,-0.02,-0.01
2020-08-12 19:58:08.3280,-0.29,-0.01,-0.04
2020-08-12 19:58:08.4270,-0.36,0.03,-0.06
2020-08-12 19:58:08.5270,0.47,-0.3,0.17
2020-08-12 19:58:08.6260,0.17,0.08,0.01
2020-08-12 19:58:08.7250,0.1,-0.05,-0.0
2020-08-12 19:58:08.8250,-0.0,0.01,-0.02
2020-08-12 19:58:08.9240,-0.01,0.0,-0.03
2020-08-12 19:58:09.0230,0.02,-0.01,-0.07
2020-08-12 19:58:09.1220,0.03,-0.09,-0.06
2020-08-12 19:58:09.2210,0.02,-0.23,-0.0
2020-08-12 19:58:09.3210,0.21,-0.3,-0.06
2020-08-12 19:58:09.4200,0.01,0.1,0.01
2020-08-12 19:58:09.5190,0.41,0.16,-0.09
2020-08-12 19:58:09.6180,0.26,0.03,-0.05
2020-08-12 19:58:09.7180,0.09,0.01,-0.02
2020-08-12 19:58:09.8170,0.01,-0.05,-0.08
2020-08-12 19:58:09.9160,-0.03,-0.09,-0.04
2020-08-12 19:58:10.0150,-0.15,-0.08,-0.08
2020-08-12 19:58:10.1150,-0.33,-0.01,0.01
2020-08-12 19:58:10.2140,-0.31,0.02,-0.04
2020-08-12 19:58:10.3130,-0.35,0.09,-0.12
2020-08-12 19:58:10.4130,-0.28,0.03,-0.44
2020-08-12 19:58:10.5120,-0.42,0.06,0.15
2020-08-12 19:58:10.6110,-0.06,-0.04,0.06
2020-08-12 19:58:10.7100,0.01,0.0,-0.03
2020-08-12 19:58:10.8100,-0.02,0.02,-0.06
2020-08-12 19:58:10.9090,-0.0,-0.05,-0.06
2020-08-12 19:58:11.0080,0.02,-0.06,0.0
2020-08-12 19:58:11.1080,0.07,-0.28,-0.01
2020-08-12 19:58:11.2070,0.21,-0.3,-0.05
2020-08-12 19:58:11.3060,0.07,0.02,-0.02
2020-08-12 19:58:11.4050,0.48,0.19,-0.17
2020-08-12 19:58:11.5050,0.14,0.0,-0.09
2020-08-12 19:58:11.6040,0.04,0.02,-0.04
2020-08-12 19:58:11.7030,0.01,-0.01,-0.07
2020-08-12 19:58:11.8020,-0.04,-0.04,-0.03
2020-08-12 19:58:11.9020,0.02,0.03,-0.03
2020-08-12 19:58:12.0010,0.07,0.01,-0.04
2020-08-12 19:58:12.1000,-0.1,-0.09,-0.02
2020-08-12 19:58:12.1990,-0.28,-0.03,0.01
2020-08-12 19:58:12.2990,-0.35,0.03,-0.07
2020-08-12 19:58:12.3980,-0.4,0.14,-0.17
2020-08-12 19:58:12.4970,0.06,-0.06,-0.09
2020-08-12 19:58:12.5960,0.14,-0.05,-0.01
2020-08-12 19:58:12.6960,0.01,-0.02,-0.01
2020-08-12 19:58:12.7950,0.01,0.01,-0.03
2020-08-12 19:58:12.8950,-0.01,-0.01,-0.04
2020-08-12 19:58:12.9930,0.01,-0.08,0.0
2020-08-12 19:58:13.0930,0.07,-0.28,0.02
2020-08-12 19:58:13.1920,0.23,-0.29,0.02
2020-08-12 19:58:13.2910,0.12,0.02,0.02
2020-08-12 19:58:13.3910,0.82,0.26,-0.1
2020-08-12 19:58:13.4900,0.3,0.03,-0.25
2020-08-12 19:58:13.5890,-0.25,-0.08,0.02
2020-08-12 19:58:13.6880,-0.02,-0.01,-0.05
2020-08-12 19:58:13.7880,-0.02,-0.0,-0.02
2020-08-12 19:58:13.8870,-0.03,-0.02,-0.08
2020-08-12 19:58:13.9860,-0.09,-0.04,-0.02
2020-08-12 19:58:14.0850,-0.27,-0.0,0.01
2020-08-12 19:58:14.1850,-0.26,0.04,-0.0
2020-08-12 19:58:14.2840,-0.27,0.11,-0.13
2020-08-12 19:58:14.3830,-0.42,-0.1,-0.3
2020-08-12 19:58:14.4830,-0.49,-0.07,0.17
2020-08-12 19:58:14.5820,-0.04,-0.06,0.02
2020-08-12 19:58:14.6810,0.01,0.02,-0.03
2020-08-12 19:58:14.7800,0.03,0.02,-0.02
2020-08-12 19:58:14.8800,0.07,-0.04,-0.12
2020-08-12 19:58:14.9790,0.05,-0.17,0.02
2020-08-12 19:58:15.0780,0.06,-0.4,0.05
2020-08-12 19:58:15.1770,0.23,-0.18,0.03
2020-08-12 19:58:15.2770,0.22,0.25,0.15
2020-08-12 19:58:15.3760,0.42,0.24,-0.12
2020-08-12 19:58:15.4760,0.15,-0.06,-0.1
2020-08-12 19:58:15.5750,-0.18,-0.07,-0.0
2020-08-12 19:58:15.6740,-0.16,-0.06,-0.08
2020-08-12 19:58:15.7730,-0.07,0.03,-0.04
2020-08-12 19:58:15.8730,-0.08,-0.05,-0.08
2020-08-12 19:58:15.9720,-0.15,-0.04,0.01
2020-08-12 19:58:16.0710,-0.28,0.05,-0.01
2020-08-12 19:58:16.1700,-0.36,0.13,-0.04
2020-08-12 19:58:16.2690,0.35,-0.45,-0.31
2020-08-12 19:58:16.3690,-0.14,0.13,0.22
2020-08-12 19:58:16.4680,-0.04,-0.03,0.01
2020-08-12 19:58:16.5670,0.01,0.01,0.03
2020-08-12 19:58:16.6660,0.01,-0.01,-0.06
2020-08-12 19:58:16.7660,0.05,-0.03,-0.02
2020-08-12 19:58:16.8650,-0.03,-0.07,0.01
2020-08-12 19:58:16.9640,0.04,-0.24,-0.04
2020-08-12 19:58:17.0640,0.26,-0.32,0.0
2020-08-12 19:58:17.1630,0.04,0.13,0.02
2020-08-12 19:58:17.2620,0.43,0.18,-0.14
2020-08-12 19:58:17.3620,0.21,0.03,-0.07
2020-08-12 19:58:17.4610,0.08,-0.06,-0.03
2020-08-12 19:58:17.5600,-0.0,-0.06,-0.07
2020-08-12 19:58:17.6590,-0.04,0.01,-0.01
2020-08-12 19:58:17.7600,-0.02,-0.05,-0.07
2020-08-12 19:58:17.8580,-0.21,-0.08,0.04
2020-08-12 19:58:17.9570,-0.33,-0.02,0.09
2020-08-12 19:58:18.0560,-0.36,0.06,-0.05
2020-08-12 19:58:18.1560,-0.5,-0.33,-0.06
2020-08-12 19:58:18.2550,0.24,0.05,0.03
2020-08-12 19:58:18.3540,0.08,-0.08,-0.12
2020-08-12 19:58:18.4530,0.05,-0.0,0.01
2020-08-12 19:58:18.5520,-0.02,0.01,-0.04
2020-08-12 19:58:18.6520,0.1,-0.03,-0.03
2020-08-12 19:58:18.7510,0.03,-0.09,-0.01
2020-08-12 19:58:18.8500,0.07,-0.2,0.0
2020-08-12 19:58:18.9500,0.17,-0.25,-0.22
2020-08-12 19:58:19.0490,0.17,0.01,0.03
2020-08-12 19:58:19.1480,0.36,0.22,0.03
2020-08-12 19:58:19.2470,0.29,0.07,-0.08
2020-08-12 19:58:19.3470,0.09,0.01,-0.01
2020-08-12 19:58:19.4460,0.06,0.0,-0.06
2020-08-12 19:58:19.5450,-0.04,-0.08,-0.09
2020-08-12 19:58:19.6450,-0.09,0.02,-0.02
2020-08-12 19:58:19.7440,0.09,-0.02,-0.13
2020-08-12 19:58:19.8430,-0.1,-0.08,-0.02
2020-08-12 19:58:19.9420,-0.23,0.02,0.05
2020-08-12 19:58:20.0420,-0.33,0.09,-0.1
2020-08-12 19:58:20.1410,0.14,-0.26,-0.27
2020-08-12 19:58:20.2400,-0.28,0.04,0.16
2020-08-12 19:58:20.3390,-0.06,-0.02,0.06
2020-08-12 19:58:20.4390,0.0,0.03,-0.03
2020-08-12 19:58:20.5380,-0.03,0.01,-0.04
2020-08-12 19:58:20.6370,0.01,-0.07,-0.04
2020-08-12 19:58:20.7360,0.02,-0.14,-0.01
2020-08-12 19:58:20.8360,0.1,-0.52,0.04
2020-08-12 19:58:20.9350,0.06,-0.09,0.11
2020-08-12 19:58:21.0340,0.61,0.25,-0.08
2020-08-12 19:58:21.1340,0.28,0.12,-0.2
2020-08-12 19:58:21.2330,-0.07,-0.05,-0.04
2020-08-12 19:58:21.3320,-0.14,-0.03,0.02
2020-08-12 19:58:21.4310,0.03,0.01,-0.03
2020-08-12 19:58:21.5310,-0.06,-0.0,-0.01
2020-08-12 19:58:21.6300,-0.1,-0.01,-0.03
2020-08-12 19:58:21.7290,-0.21,-0.05,-0.02
2020-08-12 19:58:21.8280,-0.35,0.02,-0.06
2020-08-12 19:58:21.9280,-0.38,-0.02,-0.1
2020-08-12 19:58:22.0270,-0.0,0.03,-0.17
2020-08-12 19:58:22.1260,-0.1,-0.03,-0.04
2020-08-12 19:58:22.2260,-0.07,-0.04,0.07
2020-08-12 19:58:22.3250,0.0,0.01,0.01
2020-08-12 19:58:22.4240,0.02,-0.0,-0.02
2020-08-12 19:58:22.5230,0.06,-0.03,-0.07
2020-08-12 19:58:22.6220,0.02,-0.06,-0.02
2020-08-12 19:58:22.7220,0.09,-0.32,0.01
2020-08-12 19:58:22.8210,0.16,-0.26,-0.08
2020-08-12 19:58:22.9200,-0.03,0.13,-0.02
2020-08-12 19:58:23.0200,0.4,0.12,-0.13
2020-08-12 19:58:23.1190,0.19,0.05,-0.06
2020-08-12 19:58:23.2190,0.06,-0.01,-0.07
2020-08-12 19:58:23.3180,0.09,-0.02,-0.02
2020-08-12 19:58:23.4170,0.01,-0.02,-0.04
2020-08-12 19:58:23.5160,0.04,-0.02,-0.01
2020-08-12 19:58:23.6150,-0.01,-0.02,0.0
2020-08-12 19:58:23.7140,-0.1,-0.04,0.01
2020-08-12 19:58:23.8140,-0.24,-0.01,0.04
2020-08-12 19:58:23.9130,-0.39,0.01,-0.01
2020-08-12 19:58:24.0120,-0.26,-0.0,-0.2
2020-08-12 19:58:24.1120,-0.2,0.08,-0.12
2020-08-12 19:58:24.2110,-0.24,-0.09,-0.0
2020-08-12 19:58:24.3100,-0.06,-0.04,0.06
2020-08-12 19:58:24.4090,0.04,0.01,-0.06
2020-08-12 19:58:24.5090,-0.01,-0.04,-0.05
2020-08-12 19:58:24.6080,0.05,-0.04,-0.04
2020-08-12 19:58:24.7070,0.02,-0.15,-0.02
2020-08-12 19:58:24.8060,0.17,-0.42,-0.06
2020-08-12 19:58:24.9060,0.15,-0.04,0.03
2020-08-12 19:58:25.0050,0.36,0.2,0.08
2020-08-12 19:58:25.1040,0.26,0.2,-0.15
2020-08-12 19:58:25.2030,-0.06,0.02,-0.07
2020-08-12 19:58:25.3030,-0.03,0.03,-0.05
2020-08-12 19:58:25.4020,0.03,-0.01,-0.02
2020-08-12 19:58:25.5010,0.12,-0.04,0.02
2020-08-12 19:58:25.6010,0.01,-0.07,-0.1
2020-08-12 19:58:25.7000,-0.11,-0.06,-0.02
2020-08-12 19:58:25.7990,-0.26,-0.03,0.03
2020-08-12 19:58:25.8980,-0.37,0.06,0.06
2020-08-12 19:58:25.9980,-0.69,-0.03,-0.23
2020-08-12 19:58:26.0970,0.04,0.01,0.09
2020-08-12 19:58:26.1970,0.01,-0.04,-0.1
2020-08-12 19:58:26.2960,0.01,-0.03,0.02
2020-08-12 19:58:26.3950,0.0,-0.01,-0.03
2020-08-12 19:58:26.4950,0.0,-0.02,-0.03
2020-08-12 19:58:26.5930,0.02,-0.1,-0.05
2020-08-12 19:58:26.6920,0.1,-0.34,0.02
2020-08-12 19:58:26.7920,0.17,-0.24,-0.05
2020-08-12 19:58:26.8910,0.07,0.13,0.03
2020-08-12 19:58:26.9900,0.43,0.17,-0.02
2020-08-12 19:58:27.0900,0.12,0.05,-0.08
2020-08-12 19:58:27.1890,0.04,-0.01,-0.07
2020-08-12 19:58:27.2880,-0.02,-0.05,-0.14
2020-08-12 19:58:27.3880,-0.01,-0.03,-0.07
2020-08-12 19:58:27.4870,-0.02,-0.05,-0.03
2020-08-12 19:58:27.5860,-0.1,-0.03,0.04
2020-08-12 19:58:27.6850,-0.23,0.0,0.01
2020-08-12 19:58:27.7840,-0.38,0.03,0.02
2020-08-12 19:58:27.8840,-0.76,-0.05,-0.14
2020-08-12 19:58:27.9830,0.18,-0.01,-0.01
2020-08-12 19:58:28.0820,0.03,-0.12,-0.13
2020-08-12 19:58:28.1820,-0.0,-0.04,-0.01
2020-08-12 19:58:28.2810,-0.0,0.02,-0.03
2020-08-12 19:58:28.3800,-0.01,-0.04,-0.02
2020-08-12 19:58:28.4800,-0.02,-0.1,-0.02
2020-08-12 19:58:28.5790,0.05,-0.14,-0.04
2020-08-12 19:58:28.6780,0.18,-0.52,0.07
2020-08-12 19:58:28.7770,0.09,-0.03,0.0
2020-08-12 19:58:28.8760,0.53,0.24,-0.05
2020-08-12 19:58:28.9760,0.33,0.17,-0.1
2020-08-12 19:58:29.0750,-0.11,-0.05,-0.07
2020-08-12 19:58:29.1740,0.0,0.01,-0.05
2020-08-12 19:58:29.2730,0.03,-0.05,-0.03
2020-08-12 19:58:29.3730,-0.03,-0.01,0.03
2020-08-12 19:58:29.4720,-0.05,-0.01,-0.02
2020-08-12 19:58:29.5710,-0.17,-0.04,0.0
2020-08-12 19:58:29.6700,-0.24,-0.0,0.05
2020-08-12 19:58:29.7700,-0.29,0.04,-0.04
2020-08-12 19:58:29.8690,-0.57,-0.43,-0.29
2020-08-12 19:58:29.9680,-0.17,0.07,0.07
2020-08-12 19:58:30.0680,-0.04,-0.05,0.0
2020-08-12 19:58:30.1670,0.02,-0.0,-0.01
2020-08-12 19:58:30.2660,-0.01,-0.0,-0.04
2020-08-12 19:58:30.3650,0.06,-0.04,-0.03
2020-08-12 19:58:30.4650,0.05,-0.09,-0.06
2020-08-12 19:58:30.5640,0.06,-0.26,-0.07
2020-08-12 19:58:30.6630,0.02,-0.21,-0.01
2020-08-12 19:58:30.7630,0.11,0.03,0.04
2020-08-12 19:58:30.8620,0.47,0.09,-0.01
2020-08-12 19:58:30.9610,0.29,0.06,-0.07
2020-08-12 19:58:31.0600,0.04,0.01,0.0
2020-08-12 19:58:31.1590,-0.02,-0.06,-0.13
2020-08-12 19:58:31.2590,-0.03,0.03,-0.12
2020-08-12 19:58:31.3580,-0.04,-0.01,-0.06
2020-08-12 19:58:31.4570,-0.2,-0.04,0.07
2020-08-12 19:58:31.5570,-0.1,-0.03,-0.0
2020-08-12 19:58:31.6560,-0.27,0.01,-0.04
2020-08-12 19:58:31.7550,-0.52,-0.03,-0.15
2020-08-12 19:58:31.8540,-0.24,-0.06,-0.2
2020-08-12 19:58:31.9540,-0.11,-0.09,-0.06
2020-08-12 19:58:32.0530,-0.04,-0.05,-0.0
2020-08-12 19:58:32.1520,-0.02,0.04,-0.03
2020-08-12 19:58:32.2520,0.02,-0.03,-0.04
2020-08-12 19:58:32.3510,0.02,-0.04,-0.04
2020-08-12 19:58:32.4500,0.04,-0.1,-0.08
2020-08-12 19:58:32.5490,0.12,-0.41,0.08
2020-08-12 19:58:32.6490,0.16,-0.21,-0.11
2020-08-12 19:58:32.7480,0.05,0.18,0.01
2020-08-12 19:58:32.8470,0.46,0.16,-0.15
2020-08-12 19:58:32.9470,0.25,0.03,-0.09
2020-08-12 19:58:33.0460,0.09,-0.04,-0.04
2020-08-12 19:58:33.1450,0.06,-0.07,-0.03
2020-08-12 19:58:33.2440,-0.06,-0.05,0.01
2020-08-12 19:58:33.3430,-0.16,-0.05,-0.02
2020-08-12 19:58:33.4430,-0.17,-0.04,-0.02
2020-08-12 19:58:33.5420,-0.19,-0.0,-0.01
2020-08-12 19:58:33.6410,-0.31,0.08,-0.04
2020-08-12 19:58:33.7400,-0.11,-0.7,-0.19
2020-08-12 19:58:33.8400,-0.19,0.1,0.29
2020-08-12 19:58:33.9390,-0.01,-0.0,-0.01
2020-08-12 19:58:34.0390,0.01,0.03,-0.01
2020-08-12 19:58:34.1380,0.0,-0.01,-0.05
2020-08-12 19:58:34.2370,0.04,-0.06,-0.02
2020-08-12 19:58:34.3360,0.09,-0.08,0.01
2020-08-12 19:58:34.4350,0.08,-0.34,-0.06
2020-08-12 19:58:34.5350,0.15,-0.24,0.07
2020-08-12 19:58:34.6340,0.1,0.12,0.1
2020-08-12 19:58:34.7330,0.44,0.15,-0.12
2020-08-12 19:58:34.8320,0.15,0.01,-0.12
2020-08-12 19:58:34.9320,-0.06,0.0,-0.05
2020-08-12 19:58:35.0310,0.0,-0.02,-0.1
2020-08-12 19:58:35.1300,0.03,-0.03,-0.04
2020-08-12 19:58:35.2290,-0.08,-0.03,-0.01
2020-08-12 19:58:35.3290,-0.11,-0.01,0.02
2020-08-12 19:58:35.4280,-0.11,-0.01,0.02
2020-08-12 19:58:35.5270,-0.27,0.01,0.01
2020-08-12 19:58:35.6270,-0.32,0.08,-0.07
2020-08-12 19:58:35.7260,-0.03,-0.19,-0.48
2020-08-12 19:58:35.8250,-0.22,-0.07,0.05
2020-08-12 19:58:35.9240,-0.04,-0.03,-0.02
2020-08-12 19:58:36.0240,-0.0,0.01,-0.03
2020-08-12 19:58:36.1230,0.04,0.0,-0.02
2020-08-12 19:58:36.2230,0.05,-0.06,-0.02
2020-08-12 19:58:36.3220,0.06,-0.2,-0.0
2020-08-12 19:58:36.4210,0.26,-0.37,0.13
2020-08-12 19:58:36.5200,0.07,0.1,-0.11
2020-08-12 19:58:36.6200,0.27,0.17,-0.11
2020-08-12 19:58:36.7190,0.12,0.03,-0.05
2020-08-12 19:58:36.8180,0.01,0.03,-0.04
2020-08-12 19:58:36.9170,0.05,-0.0,-0.15
2020-08-12 19:58:37.0170,-0.08,0.03,-0.02
2020-08-12 19:58:37.1160,-0.01,0.01,0.02
2020-08-12 19:58:37.2150,0.01,0.02,-0.01
2020-08-12 19:58:37.3140,-0.1,-0.07,0.04
2020-08-12 19:58:37.4130,-0.23,-0.04,0.04
2020-08-12 19:58:37.5130,-0.31,0.05,0.05
2020-08-12 19:58:37.6120,-0.11,0.04,-0.05
2020-08-12 19:58:37.7110,0.42,-0.75,-0.07
2020-08-12 19:58:37.8100,-0.15,0.13,0.16
2020-08-12 19:58:37.9100,-0.01,-0.0,0.04
2020-08-12 19:58:38.0090,-0.05,0.03,-0.06
2020-08-12 19:58:38.1080,0.0,-0.02,-0.03
2020-08-12 19:58:38.2070,0.1,-0.13,0.02
2020-08-12 19:58:38.3070,0.06,-0.08,0.01
2020-08-12 19:58:38.4060,0.08,-0.38,0.09
2020-08-12 19:58:38.5050,0.06,-0.12,0.15
2020-08-12 19:58:38.6050,0.26,0.21,-0.1
2020-08-12 19:58:38.7040,0.23,0.1,-0.2
2020-08-12 19:58:38.8030,0.07,-0.02,-0.08
2020-08-12 19:58:38.9030,0.08,0.01,-0.11
2020-08-12 19:58:39.0020,0.05,-0.03,-0.1
2020-08-12 19:58:39.1010,0.16,-0.04,-0.04
2020-08-12 19:58:39.2000,0.11,-0.05,-0.01
2020-08-12 19:58:39.3000,-0.05,-0.07,0.07
2020-08-12 19:58:39.3990,-0.12,-0.02,0.05
2020-08-12 19:58:39.4980,-0.16,0.01,-0.06
2020-08-12 19:58:39.5970,-0.39,0.06,-0.09
2020-08-12 19:58:39.6970,-1.08,-0.36,0.4
2020-08-12 19:58:39.7960,0.44,-0.03,0.06
2020-08-12 19:58:39.8950,0.18,0.01,-0.04
2020-08-12 19:58:39.9940,-0.1,0.02,0.02
2020-08-12 19:58:40.0940,0.02,-0.02,-0.02
2020-08-12 19:58:40.1930,-0.0,-0.06,-0.03
2020-08-12 19:58:40.2920,0.0,-0.08,-0.01
2020-08-12 19:58:40.3910,0.12,-0.42,0.0
2020-08-12 19:58:40.4910,0.06,-0.2,0.03
2020-08-12 19:58:40.5900,0.15,0.14,0.15
2020-08-12 19:58:40.6890,0.36,0.17,-0.12
2020-08-12 19:58:40.7890,0.16,0.08,-0.07
2020-08-12 19:58:40.8880,-0.12,-0.01,-0.06
2020-08-12 19:58:40.9870,-0.04,-0.02,-0.13
2020-08-12 19:58:41.0860,0.03,0.03,-0.04
2020-08-12 19:58:41.1860,0.04,-0.02,-0.01
2020-08-12 19:58:41.2850,0.04,-0.03,0.0
2020-08-12 19:58:41.3840,-0.1,-0.03,0.0
2020-08-12 19:58:41.4830,-0.29,-0.02,0.02
2020-08-12 19:58:41.5830,-0.38,0.08,-0.03
2020-08-12 19:58:41.6820,-0.24,-0.59,-0.02
2020-08-12 19:58:41.7810,0.13,0.11,0.04
2020-08-12 19:58:41.8810,0.08,-0.04,0.04
2020-08-12 19:58:41.9800,-0.01,0.01,0.02
2020-08-12 19:58:42.0790,-0.02,0.02,-0.05
2020-08-12 19:58:42.1780,0.07,0.02,-0.02
2020-08-12 19:58:42.2770,0.07,-0.09,-0.03
2020-08-12 19:58:42.3770,0.08,-0.39,-0.0
2020-08-12 19:58:42.4760,0.26,-0.26,0.01
2020-08-12 19:58:42.5750,0.15,0.2,-0.06
2020-08-12 19:58:42.6750,0.33,0.21,-0.14
2020-08-12 19:58:42.7740,0.14,0.02,-0.06
2020-08-12 19:58:42.8730,0.0,-0.0,-0.02
2020-08-12 19:58:42.9730,-0.04,-0.06,-0.03
2020-08-12 19:58:43.0720,0.04,0.04,0.05
2020-08-12 19:58:43.1710,0.12,-0.09,-0.08
2020-08-12 19:58:43.2700,-0.12,-0.11,-0.01
2020-08-12 19:58:43.3700,-0.38,0.02,0.04
2020-08-12 19:58:43.4690,-0.52,0.12,-0.16
2020-08-12 19:58:43.5680,-0.67,0.07,-0.69
2020-08-12 19:58:43.6670,-0.51,-0.06,0.11
2020-08-12 19:58:43.7660,-0.07,-0.05,-0.01
2020-08-12 19:58:43.8660,-0.03,0.01,-0.03
2020-08-12 19:58:43.9650,-0.01,-0.01,-0.04
2020-08-12 19:58:44.0640,0.04,-0.02,-0.02
2020-08-12 19:58:44.1630,0.02,-0.06,-0.01
2020-08-12 19:58:44.2630,0.11,-0.42,0.01
2020-08-12 19:58:44.3620,-0.02,-0.09,0.01
2020-08-12 19:58:44.4610,0.07,0.09,0.06
2020-08-12 19:58:44.5610,0.54,0.08,-0.17
2020-08-12 19:58:44.6600,0.24,0.06,-0.11
2020-08-12 19:58:44.7590,0.01,-0.04,0.0
2020-08-12 19:58:44.8590,-0.0,0.02,-0.03
2020-08-12 19:58:44.9580,-0.02,-0.01,-0.03
2020-08-12 19:58:45.0570,-0.02,-0.06,-0.04
2020-08-12 19:58:45.1560,-0.18,-0.05,0.03
2020-08-12 19:58:45.2560,-0.25,-0.0,0.01
2020-08-12 19:58:45.3550,-0.36,0.07,-0.06
2020-08-12 19:58:45.4540,-0.26,-0.65,-0.15
2020-08-12 19:58:45.5530,0.08,0.1,0.04
2020-08-12 19:58:45.6530,-0.05,-0.04,-0.02
2020-08-12 19:58:45.7520,0.02,-0.01,0.02
2020-08-12 19:58:45.8510,-0.05,0.02,-0.03
2020-08-12 19:58:45.9500,-0.06,-0.03,-0.04
2020-08-12 19:58:46.0490,-0.01,-0.12,-0.01
2020-08-12 19:58:46.1490,0.09,-0.34,-0.0
2020-08-12 19:58:46.2480,0.24,-0.27,0.03
2020-08-12 19:58:46.3470,-0.05,0.27,-0.02
2020-08-12 19:58:46.4470,0.4,0.17,-0.19
2020-08-12 19:58:46.5460,0.05,-0.01,-0.12
2020-08-12 19:58:46.6450,-0.07,-0.03,-0.05
2020-08-12 19:58:46.7450,0.09,0.02,-0.02
2020-08-12 19:58:46.8440,0.08,-0.0,-0.03
2020-08-12 19:58:46.9440,0.07,-0.03,0.02
2020-08-12 19:58:47.0420,-0.03,-0.1,-0.02
2020-08-12 19:58:47.1420,-0.21,-0.06,0.03
2020-08-12 19:58:47.2410,-0.34,0.02,-0.04
2020-08-12 19:58:47.3400,-0.39,0.09,-0.02
2020-08-12 19:58:47.4400,0.24,-0.25,-0.37
2020-08-12 19:58:47.5390,-0.23,0.05,0.25
2020-08-12 19:58:47.6380,-0.05,-0.03,0.05
2020-08-12 19:58:47.7370,-0.02,0.0,-0.02
2020-08-12 19:58:47.8370,0.03,0.01,-0.02
2020-08-12 19:58:47.9360,0.03,-0.06,-0.07
2020-08-12 19:58:48.0350,-0.01,-0.11,-0.02
2020-08-12 19:58:48.1340,0.12,-0.48,0.04
2020-08-12 19:58:48.2330,0.02,-0.25,0.16
2020-08-12 19:58:48.3330,0.26,0.34,-0.04
2020-08-12 19:58:48.4320,0.24,0.13,-0.13
2020-08-12 19:58:48.5310,0.1,0.02,-0.02
2020-08-12 19:58:48.6310,0.18,-0.05,-0.06
2020-08-12 19:58:48.7300,0.09,-0.05,-0.07
2020-08-12 19:58:48.8290,0.07,-0.05,-0.04
2020-08-12 19:58:48.9290,-0.13,-0.13,0.04
2020-08-12 19:58:49.0280,-0.34,-0.03,0.16
2020-08-12 19:58:49.1270,-0.2,0.04,0.02
2020-08-12 19:58:49.2270,-0.27,0.04,0.01
2020-08-12 19:58:49.3250,-0.56,0.07,-0.07
2020-08-12 19:58:49.4250,-0.08,0.04,0.08
2020-08-12 19:58:49.5240,-0.06,-0.04,-0.07
2020-08-12 19:58:49.6230,0.01,-0.01,0.05
2020-08-12 19:58:49.7230,-0.0,-0.02,-0.07
2020-08-12 19:58:49.8220,0.05,-0.04,-0.04
2020-08-12 19:58:49.9210,0.05,-0.1,-0.01
2020-08-12 19:58:50.0200,0.02,-0.21,-0.06
2020-08-12 19:58:50.1190,0.17,-0.37,0.08
2020-08-12 19:58:50.2190,0.05,0.17,0.03
2020-08-12 19:58:50.3180,0.32,0.18,-0.11
2020-08-12 19:58:50.4170,0.08,-0.04,-0.1
2020-08-12 19:58:50.5170,0.03,-0.01,-0.08
2020-08-12 19:58:50.6160,0.01,0.0,-0.07
2020-08-12 19:58:50.7150,0.02,-0.02,-0.06
2020-08-12 19:58:50.8140,0.0,-0.02,-0.04
2020-08-12 19:58:50.9140,-0.02,-0.03,-0.02
2020-08-12 19:58:51.0130,-0.19,-0.05,0.05
2020-08-12 19:58:51.1120,-0.38,-0.0,0.02
2020-08-12 19:58:51.2120,-0.28,0.07,-0.12
2020-08-12 19:58:51.3110,-0.17,-0.88,0.01
2020-08-12 19:58:51.4100,0.03,0.02,0.14
2020-08-12 19:58:51.5090,-0.03,-0.0,-0.03
2020-08-12 19:58:51.6090,0.01,0.01,-0.03
2020-08-12 19:58:51.7080,0.04,0.03,-0.04
2020-08-12 19:58:51.8070,-0.03,-0.08,-0.05
2020-08-12 19:58:51.9060,0.01,-0.17,0.03
2020-08-12 19:58:52.0060,0.16,-0.52,0.07
2020-08-12 19:58:52.1050,0.22,-0.06,0.03
2020-08-12 19:58:52.2040,0.65,0.22,-0.14
2020-08-12 19:58:52.3030,0.26,0.17,-0.2
2020-08-12 19:58:52.4030,-0.12,-0.03,-0.0
2020-08-12 19:58:52.5020,-0.15,0.01,-0.02
2020-08-12 19:58:52.6010,-0.04,-0.0,-0.05
2020-08-12 19:58:52.7000,0.02,0.0,-0.02
2020-08-12 19:58:52.8000,-0.03,-0.02,-0.04
2020-08-12 19:58:52.8990,-0.09,-0.04,0.02
2020-08-12 19:58:52.9990,-0.13,-0.0,0.03
2020-08-12 19:58:53.0980,-0.15,0.04,-0.02
2020-08-12 19:58:53.1970,-0.49,-0.06,-0.19
2020-08-12 19:58:53.2960,-0.23,-0.02,-0.0
2020-08-12 19:58:53.3960,-0.04,-0.1,-0.12
2020-08-12 19:58:53.4950,0.02,-0.04,0.06
2020-08-12 19:58:53.5940,0.01,0.0,-0.04
2020-08-12 19:58:53.6930,0.02,-0.02,-0.05
2020-08-12 19:58:53.7930,0.03,-0.08,-0.03
2020-08-12 19:58:53.8920,0.06,-0.27,-0.04
2020-08-12 19:58:53.9910,0.15,-0.28,0.0
2020-08-12 19:58:54.0900,0.09,0.05,0.02
2020-08-12 19:58:54.1900,0.61,0.22,-0.12
2020-08-12 19:58:54.2890,0.23,0.01,-0.13
2020-08-12 19:58:54.3880,-0.07,-0.04,-0.02
2020-08-12 19:58:54.4870,-0.01,-0.01,-0.05
2020-08-12 19:58:54.5860,0.06,-0.05,-0.02
2020-08-12 19:58:54.6860,-0.01,-0.1,-0.06
2020-08-12 19:58:54.7850,-0.18,-0.05,0.02
2020-08-12 19:58:54.8840,-0.36,-0.02,0.02
2020-08-12 19:58:54.9840,-0.48,0.07,-0.08
2020-08-12 19:58:55.0830,-0.02,0.01,0.01
2020-08-12 19:58:55.1820,0.33,0.02,0.03
2020-08-12 19:58:55.2820,0.1,-0.07,-0.06
2020-08-12 19:58:55.3810,0.04,0.0,0.02
2020-08-12 19:58:55.4800,0.01,0.01,-0.03
2020-08-12 19:58:55.5790,0.06,-0.02,-0.03
2020-08-12 19:58:55.6790,0.09,-0.1,-0.08
2020-08-12 19:58:55.7780,0.12,-0.24,-0.0
2020-08-12 19:58:55.8770,0.18,-0.31,-0.03
2020-08-12 19:58:55.9770,-0.02,0.16,0.06
2020-08-12 19:58:56.0760,0.46,0.19,-0.17
2020-08-12 19:58:56.1750,0.19,0.04,-0.09
2020-08-12 19:58:56.2740,-0.03,-0.01,-0.02
2020-08-12 19:58:56.3730,0.01,-0.04,-0.08
2020-08-12 19:58:56.4730,-0.09,-0.02,-0.07
2020-08-12 19:58:56.5720,0.01,0.03,-0.09
2020-08-12 19:58:56.6710,0.07,0.01,0.02
2020-08-12 19:58:56.7700,-0.03,-0.04,0.04
2020-08-12 19:58:56.8700,-0.1,-0.05,0.0
2020-08-12 19:58:56.9690,-0.22,-0.01,-0.05
2020-08-12 19:58:57.0680,-0.34,0.12,-0.05
2020-08-12 19:58:57.1670,0.47,-0.16,-0.62
2020-08-12 19:58:57.2670,-0.28,-0.08,0.15
2020-08-12 19:58:57.3660,0.01,-0.05,-0.02
2020-08-12 19:58:57.4650,0.02,0.02,-0.07
2020-08-12 19:58:57.5650,0.02,-0.05,-0.03
2020-08-12 19:58:57.6640,0.03,-0.08,-0.01
2020-08-12 19:58:57.7630,0.08,-0.17,-0.01
2020-08-12 19:58:57.8630,0.26,-0.45,0.06
2020-08-12 19:58:57.9620,0.02,0.04,0.12
2020-08-12 19:58:58.0610,0.45,0.24,-0.04
2020-08-12 19:58:58.1600,0.31,0.1,-0.11
2020-08-12 19:58:58.2600,-0.08,-0.08,-0.08
2020-08-12 19:58:58.3590,-0.18,-0.06,-0.07
2020-08-12 19:58:58.4580,-0.13,-0.01,-0.08
2020-08-12 19:58:58.5570,-0.08,0.02,0.02
2020-08-12 19:58:58.6570,-0.11,-0.03,-0.03
2020-08-12 19:58:58.7560,-0.33,-0.02,0.05
2020-08-12 19:58:58.8550,-0.32,0.03,-0.0
2020-08-12 19:58:58.9540,-0.38,0.02,-0.21
2020-08-12 19:58:59.0540,-0.02,0.01,-0.14
2020-08-12 19:58:59.1530,-0.1,-0.08,-0.05
2020-08-12 19:58:59.2520,0.01,-0.04,0.05
2020-08-12 19:58:59.3510,-0.0,0.02,-0.02
2020-08-12 19:58:59.4510,0.02,-0.0,-0.03
2020-08-12 19:58:59.5500,-0.03,-0.04,-0.05
2020-08-12 19:58:59.6490,0.04,-0.09,0.0
2020-08-12 19:58:59.7490,0.16,-0.42,0.05
2020-08-12 19:58:59.8480,0.21,-0.18,0.11
2020-08-12 19:58:59.9470,0.59,0.27,-0.05
2020-08-12 19:59:00.0460,0.45,0.2,-0.09
2020-08-12 19:59:00.1460,0.1,-0.14,-0.08
2020-08-12 19:59:00.2450,-0.09,-0.07,-0.03
2020-08-12 19:59:00.3440,-0.09,-0.05,-0.07
2020-08-12 19:59:00.4440,-0.21,-0.03,-0.03
2020-08-12 19:59:00.5430,-0.2,-0.06,0.03
2020-08-12 19:59:00.6420,-0.15,0.01,0.03
2020-08-12 19:59:00.7410,-0.23,0.03,-0.02
2020-08-12 19:59:00.8400,-0.34,0.04,-0.12
2020-08-12 19:59:00.9400,0.04,-0.46,-0.09
2020-08-12 19:59:01.0390,-0.04,0.16,0.14
2020-08-12 19:59:01.1380,-0.0,-0.05,0.06
2020-08-12 19:59:01.2380,-0.02,0.02,0.03
2020-08-12 19:59:01.3370,-0.04,-0.01,-0.05
2020-08-12 19:59:01.4360,0.02,-0.02,-0.0
2020-08-12 19:59:01.5350,0.04,-0.06,-0.05
2020-08-12 19:59:01.6350,0.09,-0.37,0.03
2020-08-12 19:59:01.7340,0.19,-0.25,-0.05
2020-08-12 19:59:01.8330,0.04,0.17,-0.1
2020-08-12 19:59:01.9320,0.42,0.11,-0.08
2020-08-12 19:59:02.0320,0.28,0.11,-0.07
2020-08-12 19:59:02.1310,0.12,-0.03,-0.03
2020-08-12 19:59:02.2300,-0.07,-0.04,-0.04
2020-08-12 19:59:02.3290,-0.01,-0.05,-0.02
2020-08-12 19:59:02.4290,-0.08,-0.06,-0.09
2020-08-12 19:59:02.5280,-0.21,-0.01,-0.01
2020-08-12 19:59:02.6270,-0.24,-0.02,-0.02
2020-08-12 19:59:02.7270,-0.46,0.07,-0.04
2020-08-12 19:59:02.8260,0.59,-0.38,0.54
2020-08-12 19:59:02.9250,0.46,0.02,-0.03
2020-08-12 19:59:03.0240,0.11,-0.05,-0.11
2020-08-12 19:59:03.1230,0.04,-0.0,-0.03
2020-08-12 19:59:03.2230,-0.01,-0.01,-0.04
2020-08-12 19:59:03.3220,0.05,-0.03,-0.04
2020-08-12 19:59:03.4210,0.05,-0.05,-0.05
2020-08-12 19:59:03.5210,0.03,-0.07,-0.04
2020-08-12 19:59:03.6200,0.12,-0.31,-0.05
2020-08-12 19:59:03.7190,0.21,-0.17,-0.03
2020-08-12 19:59:03.8180,0.04,0.19,-0.03
2020-08-12 19:59:03.9180,-0.01,0.1,-0.08
2020-08-12 19:59:04.0170,0.31,0.05,-0.12
2020-08-12 19:59:04.1170,0.28,0.03,-0.04
2020-08-12 19:59:04.2160,0.19,-0.08,-0.05
2020-08-12 19:59:04.3150,0.06,-0.1,-0.07
2020-08-12 19:59:04.4140,-0.16,-0.1,-0.05
2020-08-12 19:59:04.5140,-0.2,-0.06,-0.02
2020-08-12 19:59:04.6130,-0.37,0.03,-0.02
2020-08-12 19:59:04.7120,-0.49,0.14,-0.05
2020-08-12 19:59:04.8110,-0.13,0.09,-0.11
2020-08-12 19:59:04.9100,-0.01,-0.05,-0.09
2020-08-12 19:59:05.0100,0.02,-0.05,-0.04
2020-08-12 19:59:05.1090,-0.02,-0.02,-0.04
2020-08-12 19:59:05.2080,0.02,-0.01,-0.04
2020-08-12 19:59:05.3070,0.02,-0.03,-0.03
2020-08-12 19:59:05.4070,-0.03,-0.05,-0.05
2020-08-12 19:59:05.5060,0.0,-0.11,-0.04
2020-08-12 19:59:05.6050,0.13,-0.39,0.03
2020-08-12 19:59:05.7040,0.13,-0.12,-0.02
2020-08-12 19:59:05.8040,0.02,0.11,0.0
2020-08-12 19:59:05.9030,0.55,0.19,-0.19
2020-08-12 19:59:06.0020,0.14,0.08,-0.02
2020-08-12 19:59:06.1020,-0.05,-0.04,-0.06
2020-08-12 19:59:06.2010,-0.07,-0.0,-0.03
2020-08-12 19:59:06.3000,-0.0,-0.01,-0.06
2020-08-12 19:59:06.4000,-0.03,-0.02,-0.03
2020-08-12 19:59:06.4990,-0.06,-0.06,-0.01
2020-08-12 19:59:06.5980,-0.21,-0.02,0.0
2020-08-12 19:59:06.6980,-0.28,0.03,-0.07
2020-08-12 19:59:06.7970,-0.45,0.02,-0.25
2020-08-12 19:59:06.8960,-0.06,-0.01,0.09
2020-08-12 19:59:06.9950,0.01,0.02,-0.12
2020-08-12 19:59:07.0940,0.01,-0.06,0.05
2020-08-12 19:59:07.1940,0.0,0.02,-0.02
2020-08-12 19:59:07.2930,-0.03,0.01,-0.04
2020-08-12 19:59:07.3920,0.01,-0.03,-0.02
2020-08-12 19:59:07.4910,0.02,-0.09,-0.03
2020-08-12 19:59:07.5910,0.09,-0.23,-0.02
2020-08-12 19:59:07.6900,0.13,-0.28,0.04
2020-08-12 19:59:07.7890,-0.06,0.19,0.01
2020-08-12 19:59:07.8880,0.6,0.13,-0.13
2020-08-12 19:59:07.9880,0.19,0.09,-0.08
2020-08-12 19:59:08.0870,0.07,-0.01,-0.02
2020-08-12 19:59:08.1860,0.03,-0.01,-0.06
2020-08-12 19:59:08.2860,0.0,-0.0,-0.1
2020-08-12 19:59:08.3850,-0.02,-0.07,-0.07
2020-08-12 19:59:08.4840,-0.07,-0.05,0.02
2020-08-12 19:59:08.5840,-0.14,-0.02,0.02
2020-08-12 19:59:08.6830,-0.23,-0.0,-0.02
2020-08-12 19:59:08.7820,-0.37,0.09,-0.02
2020-08-12 19:59:08.8810,0.04,-0.41,-0.03
2020-08-12 19:59:08.9800,-0.18,0.16,0.18
2020-08-12 19:59:09.0800,-0.06,-0.06,-0.01
2020-08-12 19:59:09.1790,0.04,-0.05,-0.04
2020-08-12 19:59:09.2780,-0.05,0.04,-0.01
2020-08-12 19:59:09.3770,-0.02,0.02,-0.0
2020-08-12 19:59:09.4770,0.02,-0.09,-0.09
2020-08-12 19:59:09.5760,0.09,-0.17,-0.05
2020-08-12 19:59:09.6750,0.24,-0.52,-0.0
2020-08-12 19:59:09.7740,0.02,-0.03,0.02
2020-08-12 19:59:09.8740,0.07,0.15,-0.01
2020-08-12 19:59:09.9730,0.32,0.18,-0.11
2020-08-12 19:59:10.0720,0.11,0.05,-0.05
2020-08-12 19:59:10.1720,0.06,-0.02,-0.09
2020-08-12 19:59:10.2710,0.02,-0.05,-0.07
2020-08-12 19:59:10.3700,-0.05,-0.01,-0.04
2020-08-12 19:59:10.4700,-0.12,-0.06,-0.03
2020-08-12 19:59:10.5690,-0.34,-0.0,0.04
2020-08-12 19:59:10.6680,-0.4,0.05,0.01
2020-08-12 19:59:10.7670,0.25,-0.3,-0.16
2020-08-12 19:59:10.8670,-0.05,0.13,0.12
2020-08-12 19:59:10.9660,-0.14,-0.09,-0.04
2020-08-12 19:59:11.0650,0.02,-0.02,0.01
2020-08-12 19:59:11.1640,-0.02,-0.01,-0.07
2020-08-12 19:59:11.2640,-0.0,-0.04,-0.02
2020-08-12 19:59:11.3630,0.01,-0.05,-0.02
2020-08-12 19:59:11.4620,0.05,-0.12,-0.02
2020-08-12 19:59:11.5610,0.16,-0.45,0.03
2020-08-12 19:59:11.6610,0.2,-0.29,0.05
2020-08-12 19:59:11.7600,0.22,0.25,-0.06
2020-08-12 19:59:11.8590,0.37,0.24,-0.12
2020-08-12 19:59:11.9590,0.05,-0.03,-0.05
2020-08-12 19:59:12.0580,-0.02,0.03,-0.01
2020-08-12 19:59:12.1570,0.08,-0.01,-0.1
2020-08-12 19:59:12.2560,-0.08,-0.05,0.01
2020-08-12 19:59:12.3560,-0.15,-0.08,-0.03
2020-08-12 19:59:12.4550,-0.37,-0.03,-0.02
2020-08-12 19:59:12.5540,-0.4,0.06,0.01
2020-08-12 19:59:12.6530,-0.3,-0.26,-0.18
2020-08-12 19:59:12.7530,-0.19,0.08,0.06
2020-08-12 19:59:12.8520,-0.01,-0.1,-0.06
2020-08-12 19:59:12.9510,0.06,-0.02,0.0
2020-08-12 19:59:13.0500,-0.02,0.04,-0.02
2020-08-12 19:59:13.1500,0.03,-0.03,-0.02
2020-08-12 19:59:13.2490,0.03,-0.02,-0.03
2020-08-12 19:59:13.3480,0.01,-0.05,-0.04
2020-08-12 19:59:13.4470,0.05,-0.16,-0.03
2020-08-12 19:59:13.5470,0.13,-0.42,0.04
2020-08-12 19:59:13.6460,0.1,0.02,0.08
2020-08-12 19:59:13.7450,0.37,0.13,0.07
2020-08-12 19:59:13.8450,0.37,0.23,-0.16
2020-08-12 19:59:13.9440,-0.14,-0.04,-0.06
2020-08-12 19:59:14.0430,-0.1,-0.04,-0.07
2020-08-12 19:59:14.1420,-0.09,0.02,-0.07
2020-08-12 19:59:14.2420,-0.01,0.04,-0.08
2020-08-12 19:59:14.3410,0.03,0.01,0.01
2020-08-12 19:59:14.4400,-0.08,-0.04,0.02
2020-08-12 19:59:14.5400,-0.15,-0.02,0.01
2020-08-12 19:59:14.6390,-0.19,0.0,-0.05
2020-08-12 19:59:14.7380,-0.28,0.04,0.02
2020-08-12 19:59:14.8370,0.09,-0.14,-0.31
2020-08-12 19:59:14.9370,-0.14,-0.08,0.09
2020-08-12 19:59:15.0360,-0.01,-0.08,-0.02
2020-08-12 19:59:15.1350,0.0,0.04,-0.03
2020-08-12 19:59:15.2340,0.0,0.01,-0.06
2020-08-12 19:59:15.3340,0.04,-0.03,-0.06
2020-08-12 19:59:15.4330,0.05,-0.07,-0.04
2020-08-12 19:59:15.5320,0.05,-0.18,-0.04
2020-08-12 19:59:15.6310,0.18,-0.44,0.11
2020-08-12 19:59:15.7310,0.14,0.0,-0.08
2020-08-12 19:59:15.8300,0.43,0.21,0.04
2020-08-12 19:59:15.9290,0.32,0.09,-0.03
2020-08-12 19:59:16.0280,-0.02,-0.03,-0.09
2020-08-12 19:59:16.1280,-0.15,-0.02,-0.11
2020-08-12 19:59:16.2270,0.04,-0.02,-0.08
2020-08-12 19:59:16.3260,0.02,-0.03,-0.1
2020-08-12 19:59:16.4260,-0.03,-0.04,-0.02
2020-08-12 19:59:16.5250,-0.18,-0.04,-0.0
2020-08-12 19:59:16.6240,-0.28,0.0,0.02
2020-08-12 19:59:16.7230,-0.38,0.1,-0.06
2020-08-12 19:59:16.8230,-0.48,-1.06,-0.33
2020-08-12 19:59:16.9220,-0.14,0.13,0.33
2020-08-12 19:59:17.0210,-0.07,-0.02,0.03
2020-08-12 19:59:17.1200,-0.08,-0.0,-0.0
2020-08-12 19:59:17.2200,0.0,-0.0,-0.03
2020-08-12 19:59:17.3190,-0.03,-0.02,-0.02
2020-08-12 19:59:17.4180,-0.05,-0.03,-0.05
2020-08-12 19:59:17.5180,0.05,-0.1,0.01
2020-08-12 19:59:17.6170,0.15,-0.37,0.09
2020-08-12 19:59:17.7160,0.17,-0.22,0.0
2020-08-12 19:59:17.8150,0.39,0.22,-0.02
2020-08-12 19:59:17.9140,0.44,0.17,-0.19
2020-08-12 19:59:18.0140,0.07,-0.04,0.01
2020-08-12 19:59:18.1130,-0.03,-0.03,-0.04
2020-08-12 19:59:18.2120,-0.23,-0.04,-0.04
2020-08-12 19:59:18.3120,-0.39,-0.03,-0.02
2020-08-12 19:59:18.4110,-0.45,-0.01,-0.09
2020-08-12 19:59:18.5100,0.38,0.13,0.01
2020-08-12 19:59:18.6090,0.06,-0.04,-0.22
2020-08-12 19:59:18.7090,0.11,0.0,0.01
2020-08-12 19:59:18.8080,0.05,0.01,0.13
2020-08-12 19:59:18.9070,0.02,-0.07,-0.03
2020-08-12 19:59:19.0070,-0.02,-0.02,-0.01
2020-08-12 19:59:19.1060,0.07,-0.07,-0.03
2020-08-12 19:59:19.2050,0.02,-0.01,-0.05
2020-08-12 19:59:19.3040,-0.04,-0.0,-0.02
2020-08-12 19:59:19.4040,-0.03,0.01,-0.05
2020-08-12 19:59:19.5030,-0.01,0.01,-0.01
2020-08-12 19:59:19.6020,-0.02,-0.02,-0.04
2020-08-12 19:59:19.7010,-0.04,0.01,-0.01
2020-08-12 19:59:19.8000,-0.0,-0.02,0.0
2020-08-12 19:59:19.9000,0.0,-0.01,-0.03
2020-08-12 19:59:19.9990,-0.01,-0.0,-0.02
2020-08-12 19:59:20.0980,-0.01,-0.0,-0.01
2020-08-12 19:59:20.1980,-0.01,-0.0,-0.0
2020-08-12 19:59:20.2970,-0.01,0.0,-0.01
2020-08-12 19:59:20.3960,-0.0,-0.0,0.0
2020-08-12 19:59:20.4950,-0.01,0.01,0.0
2020-08-12 19:59:20.5950,0.0,-0.0,0.0
2020-08-12 19:59:20.6950,-0.01,-0.01,0.0
2020-08-12 19:59:20.7930,0.01,0.0,0.0
2020-08-12 19:59:20.8920,-0.01,0.01,0.0
2020-08-12 19:59:20.9920,-0.01,0.0,0.0
2020-08-12 19:59:21.0910,-0.0,0.0,-0.01
2020-08-12 19:59:21.1900,-0.01,0.0,0.01
2020-08-12 19:59:21.2900,-0.02,0.0,0.01
2020-08-12 19:59:21.3890,-0.0,-0.0,0.0
2020-08-12 19:59:21.4880,-0.01,0.01,0.0
2020-08-12 19:59:21.5870,0.02,-0.01,-0.0
2020-08-12 19:59:21.6870,-0.01,-0.0,-0.01
2020-08-12 19:59:21.7860,0.01,0.0,0.0
2020-08-12 19:59:21.8850,0.0,-0.01,-0.01
2020-08-12 19:59:21.9840,0.01,-0.0,-0.01
2020-08-12 19:59:22.0840,-0.01,-0.0,0.0
2020-08-12 19:59:22.1830,0.0,-0.0,-0.0
2020-08-12 19:59:22.2830,0.01,-0.0,-0.0
2020-08-12 19:59:22.3820,-0.0,-0.01,-0.01
2020-08-12 19:59:22.4810,0.0,-0.01,-0.0
2020-08-12 19:59:22.5810,0.01,-0.0,-0.0
2020-08-12 19:59:22.6790,0.0,-0.0,-0.0
2020-08-12 19:59:22.7790,-0.0,-0.0,0.0
2020-08-12 19:59:22.8780,-0.04,0.01,0.02
2020-08-12 19:59:22.9770,-0.04,0.01,0.04
2020-08-12 19:59:23.0780,-0.01,-0.01,-0.03
2020-08-12 19:59:23.1760,0.02,-0.02,-0.05
