time,ax,ay,az
2020-08-12 19:6:39.4920,0.11,-0.0,-0.05
2020-08-12 19:6:39.5910,0.0,-0.01,0.0
2020-08-12 19:6:39.6910,0.01,-0.0,-0.01
2020-08-12 19:6:39.7900,-0.01,0.0,0.01
2020-08-12 19:6:39.8890,-0.01,0.0,0.01
2020-08-12 19:6:39.9880,0.01,-0.0,-0.02
2020-08-12 19:6:40.0880,0.03,-0.0,0.02
2020-08-12 19:6:40.1870,-0.07,0.0,-0.06
2020-08-12 19:6:40.2860,0.06,0.01,0.0
2020-08-12 19:6:40.3850,-0.01,-0.0,0.0
2020-08-12 19:6:40.4850,0.05,-0.0,-0.01
2020-08-12 19:6:40.5840,-0.03,-0.01,0.02
2020-08-12 19:6:40.6830,0.01,0.01,-0.0
2020-08-12 19:6:40.7830,0.0,-0.01,0.02
2020-08-12 19:6:40.8820,0.04,0.0,-0.02
2020-08-12 19:6:40.9810,-0.02,-0.0,0.02
2020-08-12 19:6:41.0800,0.01,-0.0,-0.02
2020-08-12 19:6:41.1800,-0.0,-0.01,-0.01
2020-08-12 19:6:41.2790,-0.01,-0.01,0.0
2020-08-12 19:6:41.3780,-0.01,0.01,0.01
2020-08-12 19:6:41.4780,-0.11,0.02,0.02
2020-08-12 19:6:41.5770,0.07,-0.02,-0.01
2020-08-12 19:6:41.6760,0.01,-0.01,0.01
2020-08-12 19:6:41.7750,-0.0,-0.01,0.02
2020-08-12 19:6:41.8750,0.04,-0.02,-0.03
2020-08-12 19:6:41.9740,-0.05,-0.0,0.02
2020-08-12 19:6:42.0730,0.01,-0.0,0.01
2020-08-12 19:6:42.1730,0.0,0.01,-0.01
2020-08-12 19:6:42.2720,0.02,0.01,0.0
2020-08-12 19:6:42.3710,-0.01,0.01,0.04
2020-08-12 19:6:42.4700,0.01,-0.0,0.03
2020-08-12 19:6:42.5700,0.13,-0.02,0.05
2020-08-12 19:6:42.6690,0.32,-0.18,-0.01
2020-08-12 19:6:42.7680,0.32,-0.08,0.24
2020-08-12 19:6:42.8670,0.64,0.29,-0.16
2020-08-12 19:6:42.9670,0.07,-0.14,-0.17
2020-08-12 19:6:43.0660,-1.02,-0.11,0.06
2020-08-12 19:6:43.1650,0.18,0.06,0.24
2020-08-12 19:6:43.2650,-0.34,-0.03,0.07
2020-08-12 19:6:43.3640,-0.03,0.03,0.11
2020-08-12 19:6:43.4630,0.07,0.02,0.05
2020-08-12 19:6:43.5620,0.07,-0.03,0.0
2020-08-12 19:6:43.6620,0.03,0.01,0.02
2020-08-12 19:6:43.7610,0.09,-0.09,0.05
2020-08-12 19:6:43.8600,0.23,-0.38,0.13
2020-08-12 19:6:43.9590,0.42,-0.48,0.32
2020-08-12 19:6:44.0590,0.13,-0.13,0.27
2020-08-12 19:6:44.1580,0.54,0.27,-0.09
2020-08-12 19:6:44.2570,0.22,0.03,0.0
2020-08-12 19:6:44.3570,-0.08,-0.18,-0.02
2020-08-12 19:6:44.4560,-1.15,-0.4,0.56
2020-08-12 19:6:44.5550,-0.57,-0.02,-0.05
2020-08-12 19:6:44.6550,-0.26,-0.69,-0.12
2020-08-12 19:6:44.7540,-0.65,-0.28,0.23
2020-08-12 19:6:44.8530,-0.14,0.01,0.12
2020-08-12 19:6:44.9520,0.09,-0.0,-0.02
2020-08-12 19:6:45.0510,0.06,-0.01,-0.0
2020-08-12 19:6:45.1510,0.0,-0.0,0.07
2020-08-12 19:6:45.2500,0.14,0.02,0.02
2020-08-12 19:6:45.3490,0.25,-0.22,-0.04
2020-08-12 19:6:45.4490,0.51,-0.5,0.15
2020-08-12 19:6:45.5480,0.43,-0.52,0.39
2020-08-12 19:6:45.6470,0.69,0.1,0.12
2020-08-12 19:6:45.7460,0.58,0.28,-0.16
2020-08-12 19:6:45.8460,-0.01,-0.05,0.02
2020-08-12 19:6:45.9450,-0.69,-0.64,0.06
2020-08-12 19:6:46.0440,-0.7,0.04,0.08
2020-08-12 19:6:46.1430,0.42,0.2,-0.68
2020-08-12 19:6:46.2430,-0.14,-0.49,0.22
2020-08-12 19:6:46.3420,-0.06,-0.01,0.01
2020-08-12 19:6:46.4410,0.02,-0.01,-0.02
2020-08-12 19:6:46.5400,-0.0,0.03,0.0
2020-08-12 19:6:46.6400,0.06,0.0,0.01
2020-08-12 19:6:46.7390,0.05,-0.07,-0.0
2020-08-12 19:6:46.8380,0.31,-0.2,0.07
2020-08-12 19:6:46.9380,0.63,-0.51,0.03
2020-08-12 19:6:47.0370,0.48,-0.35,0.36
2020-08-12 19:6:47.1360,0.56,0.07,0.29
2020-08-12 19:6:47.2350,0.41,0.25,-0.12
2020-08-12 19:6:47.3350,0.11,0.0,-0.01
2020-08-12 19:6:47.4340,-0.52,-0.39,0.1
2020-08-12 19:6:47.5330,-0.97,-0.12,0.08
2020-08-12 19:6:47.6330,-0.34,-0.29,0.12
2020-08-12 19:6:47.7320,-0.31,-0.19,-0.14
2020-08-12 19:6:47.8310,-0.24,-0.65,0.3
2020-08-12 19:6:47.9310,-0.09,0.02,0.15
2020-08-12 19:6:48.0300,-0.0,0.02,0.04
2020-08-12 19:6:48.1290,0.03,-0.0,0.02
2020-08-12 19:6:48.2280,0.13,0.01,0.04
2020-08-12 19:6:48.3270,0.21,-0.05,0.01
2020-08-12 19:6:48.4270,0.22,-0.01,0.12
2020-08-12 19:6:48.5260,0.48,-0.44,0.07
2020-08-12 19:6:48.6250,0.29,-0.54,0.14
2020-08-12 19:6:48.7250,0.09,-0.11,0.16
2020-08-12 19:6:48.8240,0.51,0.37,-0.09
2020-08-12 19:6:48.9230,0.3,0.14,0.03
2020-08-12 19:6:49.0220,-0.4,-0.26,0.26
2020-08-12 19:6:49.1220,-0.98,-0.06,0.18
2020-08-12 19:6:49.2210,-0.65,-0.16,0.02
2020-08-12 19:6:49.3200,-0.72,-0.3,-0.01
2020-08-12 19:6:49.4200,-0.38,0.13,0.31
2020-08-12 19:6:49.5190,-0.06,0.02,0.08
2020-08-12 19:6:49.6180,0.07,0.01,0.05
2020-08-12 19:6:49.7170,0.11,-0.01,-0.02
2020-08-12 19:6:49.8170,0.0,-0.04,0.01
2020-08-12 19:6:49.9160,0.08,-0.09,0.09
2020-08-12 19:6:50.0150,0.21,-0.33,-0.01
2020-08-12 19:6:50.1140,0.52,-0.57,0.21
2020-08-12 19:6:50.2140,0.72,-0.58,0.19
2020-08-12 19:6:50.3130,0.63,0.22,-0.07
2020-08-12 19:6:50.4120,0.5,0.37,-0.12
2020-08-12 19:6:50.5120,0.2,0.05,-0.18
2020-08-12 19:6:50.6110,-0.81,-0.81,0.12
2020-08-12 19:6:50.7100,-1.64,-0.43,0.4
2020-08-12 19:6:50.8090,-0.62,-0.01,-0.08
2020-08-12 19:6:50.9090,0.11,-0.33,0.03
2020-08-12 19:6:51.0080,-0.06,-0.02,0.02
2020-08-12 19:6:51.1070,-0.01,-0.03,0.04
2020-08-12 19:6:51.2060,0.04,-0.01,-0.01
2020-08-12 19:6:51.3060,-0.07,-0.01,-0.01
2020-08-12 19:6:51.4050,0.14,-0.09,0.11
2020-08-12 19:6:51.5040,0.38,-0.53,0.09
2020-08-12 19:6:51.6030,0.54,-0.46,0.1
2020-08-12 19:6:51.7030,0.57,-0.13,0.27
2020-08-12 19:6:51.8020,0.44,0.36,-0.17
2020-08-12 19:6:51.9010,0.34,0.17,-0.12
2020-08-12 19:6:52.0010,-0.59,-0.23,-0.02
2020-08-12 19:6:52.1000,-1.0,-0.19,0.27
2020-08-12 19:6:52.1990,-0.69,-0.09,0.27
2020-08-12 19:6:52.2980,-0.28,-0.32,0.09
2020-08-12 19:6:52.3980,-0.69,-0.1,0.22
2020-08-12 19:6:52.4970,-0.2,0.04,0.18
2020-08-12 19:6:52.5960,0.12,0.0,0.02
2020-08-12 19:6:52.6950,0.11,-0.0,-0.01
2020-08-12 19:6:52.7950,-0.02,-0.01,0.02
2020-08-12 19:6:52.8940,0.08,-0.1,-0.01
2020-08-12 19:6:52.9930,0.18,-0.24,0.06
2020-08-12 19:6:53.0930,0.51,-0.59,0.14
2020-08-12 19:6:53.1920,0.46,-0.46,0.37
2020-08-12 19:6:53.2910,0.58,0.19,0.07
2020-08-12 19:6:53.3900,0.52,0.27,-0.16
2020-08-12 19:6:53.4900,0.04,-0.01,-0.02
2020-08-12 19:6:53.5890,-0.9,-0.67,0.06
2020-08-12 19:6:53.6880,-1.02,-0.06,0.15
2020-08-12 19:6:53.7870,0.04,-0.51,-0.25
2020-08-12 19:6:53.8870,-0.3,0.2,0.03
2020-08-12 19:6:53.9860,0.1,0.04,-0.04
2020-08-12 19:6:54.0860,-0.15,-0.08,0.06
2020-08-12 19:6:54.1850,-0.08,0.02,-0.01
2020-08-12 19:6:54.2840,-0.0,-0.03,0.01
2020-08-12 19:6:54.3830,0.17,-0.0,-0.02
2020-08-12 19:6:54.4820,0.05,-0.05,-0.0
2020-08-12 19:6:54.5820,0.21,-0.14,0.08
2020-08-12 19:6:54.6810,0.43,-0.49,0.04
2020-08-12 19:6:54.7800,0.1,-0.3,0.28
2020-08-12 19:6:54.8790,0.14,-0.05,0.2
2020-08-12 19:6:54.9790,0.5,0.18,-0.21
2020-08-12 19:6:55.0780,0.13,0.05,0.02
2020-08-12 19:6:55.1770,-0.1,-0.09,0.02
2020-08-12 19:6:55.2770,-0.85,-0.45,0.21
2020-08-12 19:6:55.3760,-0.75,-0.05,0.09
2020-08-12 19:6:55.4750,0.43,-0.19,-0.26
2020-08-12 19:6:55.5740,-0.15,0.14,-0.06
2020-08-12 19:6:55.6740,0.09,-0.25,-0.18
2020-08-12 19:6:55.7730,-0.13,-0.0,0.18
2020-08-12 19:6:55.8720,-0.11,0.02,0.06
2020-08-12 19:6:55.9710,0.01,-0.02,-0.02
2020-08-12 19:6:56.0710,0.02,-0.01,-0.02
2020-08-12 19:6:56.1700,0.12,-0.03,0.02
2020-08-12 19:6:56.2690,0.07,-0.16,0.01
2020-08-12 19:6:56.3690,0.26,-0.19,0.12
2020-08-12 19:6:56.4680,0.51,-0.39,0.04
2020-08-12 19:6:56.5670,0.42,-0.14,0.26
2020-08-12 19:6:56.6660,0.54,0.23,-0.15
2020-08-12 19:6:56.7660,0.43,0.23,-0.16
2020-08-12 19:6:56.8650,-0.25,-0.16,0.05
2020-08-12 19:6:56.9640,-1.05,-0.45,0.19
2020-08-12 19:6:57.0630,-0.98,-0.17,0.07
2020-08-12 19:6:57.1630,-0.37,-0.27,0.1
2020-08-12 19:6:57.2620,-0.27,0.01,0.27
2020-08-12 19:6:57.3610,-0.02,-0.07,-0.13
2020-08-12 19:6:57.4610,-0.01,0.01,-0.01
2020-08-12 19:6:57.5600,-0.08,-0.04,-0.04
2020-08-12 19:6:57.6590,0.01,0.01,0.03
2020-08-12 19:6:57.7580,0.03,-0.06,0.01
2020-08-12 19:6:57.8580,0.09,0.01,0.05
2020-08-12 19:6:57.9570,0.17,-0.21,0.12
2020-08-12 19:6:58.0560,0.42,-0.44,0.1
2020-08-12 19:6:58.1560,0.28,-0.47,0.35
2020-08-12 19:6:58.2550,0.05,0.02,0.21
2020-08-12 19:6:58.3540,0.48,0.37,-0.09
2020-08-12 19:6:58.4530,0.23,0.09,-0.09
2020-08-12 19:6:58.5530,-0.24,-0.22,0.18
2020-08-12 19:6:58.6520,-0.76,-0.29,0.08
2020-08-12 19:6:58.7510,-0.63,-0.07,-0.01
2020-08-12 19:6:58.8500,1.46,0.03,-0.2
2020-08-12 19:6:58.9490,-0.46,0.02,-0.1
2020-08-12 19:6:59.0490,0.0,-0.08,-0.1
2020-08-12 19:6:59.1480,-0.2,-0.0,0.22
2020-08-12 19:6:59.2470,-0.07,-0.01,-0.04
2020-08-12 19:6:59.3470,0.01,-0.0,-0.03
2020-08-12 19:6:59.4460,0.07,-0.03,0.02
2020-08-12 19:6:59.5450,0.12,-0.05,0.01
2020-08-12 19:6:59.6440,0.08,-0.13,0.06
2020-08-12 19:6:59.7440,0.36,-0.37,0.07
2020-08-12 19:6:59.8430,0.38,-0.44,0.13
2020-08-12 19:6:59.9420,0.16,0.0,0.27
2020-08-12 19:7:00.0420,0.54,0.36,-0.16
2020-08-12 19:7:00.1410,0.27,0.12,-0.05
2020-08-12 19:7:00.2400,-0.34,-0.32,-0.08
2020-08-12 19:7:00.3390,-0.9,-0.14,0.21
2020-08-12 19:7:00.4390,-0.67,-0.24,0.13
2020-08-12 19:7:00.5380,-0.27,-0.27,0.1
2020-08-12 19:7:00.6370,-0.2,-0.25,0.17
2020-08-12 19:7:00.7370,0.12,0.02,0.08
2020-08-12 19:7:00.8360,0.01,-0.01,-0.1
2020-08-12 19:7:00.9350,-0.03,-0.04,0.01
2020-08-12 19:7:01.0340,-0.0,-0.02,0.03
2020-08-12 19:7:01.1340,0.16,-0.01,0.01
2020-08-12 19:7:01.2330,0.19,-0.18,0.08
2020-08-12 19:7:01.3320,0.27,-0.37,0.0
2020-08-12 19:7:01.4310,0.42,-0.52,0.31
2020-08-12 19:7:01.5310,0.11,0.05,0.3
2020-08-12 19:7:01.6300,0.63,0.32,-0.17
2020-08-12 19:7:01.7290,0.2,0.04,-0.05
2020-08-12 19:7:01.8290,-0.57,-0.6,0.08
2020-08-12 19:7:01.9280,-0.89,-0.04,0.15
2020-08-12 19:7:02.0270,-0.15,-0.22,-0.17
2020-08-12 19:7:02.1260,-0.05,-0.13,-0.01
2020-08-12 19:7:02.2260,-0.13,0.0,0.12
2020-08-12 19:7:02.3250,-0.21,0.01,0.12
2020-08-12 19:7:02.4240,0.03,0.03,0.03
2020-08-12 19:7:02.5230,0.04,-0.03,-0.02
2020-08-12 19:7:02.6230,0.01,0.01,0.03
2020-08-12 19:7:02.7220,0.12,-0.01,-0.01
2020-08-12 19:7:02.8210,0.15,-0.1,0.03
2020-08-12 19:7:02.9200,0.28,-0.37,0.1
2020-08-12 19:7:03.0200,0.33,-0.38,0.06
2020-08-12 19:7:03.1190,0.16,-0.2,0.19
2020-08-12 19:7:03.2180,0.61,0.3,-0.12
2020-08-12 19:7:03.3180,0.14,0.12,0.07
2020-08-12 19:7:03.4170,-0.33,-0.32,0.04
2020-08-12 19:7:03.5160,-1.11,-0.17,0.32
2020-08-12 19:7:03.6150,1.45,-0.42,-0.35
2020-08-12 19:7:03.7150,-0.49,0.23,0.33
2020-08-12 19:7:03.8140,0.24,-0.04,-0.19
2020-08-12 19:7:03.9130,-0.16,0.02,0.0
2020-08-12 19:7:04.0120,-0.08,-0.01,0.03
2020-08-12 19:7:04.1120,0.02,0.0,0.04
2020-08-12 19:7:04.2110,0.07,-0.05,-0.0
2020-08-12 19:7:04.3100,0.1,-0.04,0.0
2020-08-12 19:7:04.4100,0.08,-0.12,-0.01
2020-08-12 19:7:04.5090,0.43,-0.39,0.15
2020-08-12 19:7:04.6080,0.5,-0.51,0.19
2020-08-12 19:7:04.7070,0.49,0.04,0.26
2020-08-12 19:7:04.8070,0.45,0.39,-0.14
2020-08-12 19:7:04.9060,0.1,0.16,-0.04
2020-08-12 19:7:05.0050,-0.2,-0.29,-0.01
2020-08-12 19:7:05.1050,-0.98,-0.18,0.21
2020-08-12 19:7:05.2040,-0.54,-0.15,0.08
2020-08-12 19:7:05.3030,-0.17,-0.28,0.05
2020-08-12 19:7:05.4020,-0.33,-0.07,0.17
2020-08-12 19:7:05.5020,0.11,0.07,0.07
2020-08-12 19:7:05.6010,0.09,0.01,-0.07
2020-08-12 19:7:05.7000,-0.02,-0.0,-0.03
2020-08-12 19:7:05.7990,0.07,0.03,0.04
2020-08-12 19:7:05.8990,0.03,-0.05,-0.07
2020-08-12 19:7:05.9980,0.06,-0.12,0.02
2020-08-12 19:7:06.0970,0.15,-0.25,0.04
2020-08-12 19:7:06.1960,0.54,-0.41,0.03
2020-08-12 19:7:06.2960,0.29,-0.12,0.19
2020-08-12 19:7:06.3950,0.49,0.25,-0.14
2020-08-12 19:7:06.4940,0.41,0.3,-0.18
2020-08-12 19:7:06.5940,-0.29,-0.17,0.08
2020-08-12 19:7:06.6930,-1.05,-0.55,0.22
2020-08-12 19:7:06.7920,-0.88,-0.35,0.18
2020-08-12 19:7:06.8910,-0.18,-0.28,0.0
2020-08-12 19:7:06.9910,-0.13,-0.17,0.0
2020-08-12 19:7:07.0900,-0.2,0.02,0.2
2020-08-12 19:7:07.1890,-0.01,0.04,0.05
2020-08-12 19:7:07.2880,-0.06,0.0,0.01
2020-08-12 19:7:07.3880,0.02,-0.03,0.01
2020-08-12 19:7:07.4870,0.12,-0.02,-0.0
2020-08-12 19:7:07.5860,0.17,-0.14,0.09
2020-08-12 19:7:07.6860,0.45,-0.47,0.03
2020-08-12 19:7:07.7850,0.51,-0.39,0.24
2020-08-12 19:7:07.8840,0.3,-0.06,0.17
2020-08-12 19:7:07.9830,0.53,0.32,-0.19
2020-08-12 19:7:08.0830,0.24,0.17,-0.07
2020-08-12 19:7:08.1820,-0.64,-0.48,0.22
2020-08-12 19:7:08.2810,-1.03,-0.39,0.04
2020-08-12 19:7:08.3810,1.25,-0.46,-0.37
2020-08-12 19:7:08.4800,-0.8,0.2,0.26
2020-08-12 19:7:08.5790,0.13,0.05,0.03
2020-08-12 19:7:08.6780,-0.01,-0.01,-0.07
2020-08-12 19:7:08.7780,-0.03,0.01,-0.01
2020-08-12 19:7:08.8770,-0.02,-0.01,0.02
2020-08-12 19:7:08.9760,0.0,-0.01,0.01
2020-08-12 19:7:09.0750,0.08,-0.06,-0.01
2020-08-12 19:7:09.1750,0.07,-0.04,0.08
2020-08-12 19:7:09.2740,0.27,-0.26,0.09
2020-08-12 19:7:09.3730,0.47,-0.37,0.14
2020-08-12 19:7:09.4720,0.4,-0.18,0.15
2020-08-12 19:7:09.5720,0.53,0.22,-0.14
2020-08-12 19:7:09.6710,0.33,0.26,-0.12
2020-08-12 19:7:09.7700,-0.0,0.01,-0.14
2020-08-12 19:7:09.8690,-0.78,-0.56,0.11
2020-08-12 19:7:09.9690,-0.8,-0.09,0.03
2020-08-12 19:7:10.0680,-0.51,-0.54,-0.24
2020-08-12 19:7:10.1670,-0.29,-0.02,0.1
2020-08-12 19:7:10.2670,-0.0,0.06,-0.05
2020-08-12 19:7:10.3660,-0.1,0.01,0.09
2020-08-12 19:7:10.4650,-0.01,-0.01,-0.0
2020-08-12 19:7:10.5640,0.02,-0.01,-0.03
2020-08-12 19:7:10.6640,0.03,-0.03,-0.0
2020-08-12 19:7:10.7630,0.06,-0.05,0.05
2020-08-12 19:7:10.8620,0.17,-0.18,0.05
2020-08-12 19:7:10.9620,0.53,-0.41,0.12
2020-08-12 19:7:11.0610,0.24,-0.31,0.4
2020-08-12 19:7:11.1600,0.37,0.08,0.26
2020-08-12 19:7:11.2590,0.45,0.19,-0.18
2020-08-12 19:7:11.3590,0.04,0.16,0.04
2020-08-12 19:7:11.4580,-0.23,-0.08,-0.03
2020-08-12 19:7:11.5570,-0.67,-0.29,0.03
2020-08-12 19:7:11.6570,-0.98,-0.12,0.12
2020-08-12 19:7:11.7560,-0.48,-0.14,0.21
2020-08-12 19:7:11.8550,-0.2,-0.04,0.21
2020-08-12 19:7:11.9540,0.01,0.0,0.04
2020-08-12 19:7:12.0540,-0.02,0.0,-0.01
2020-08-12 19:7:12.1530,0.07,0.06,0.08
2020-08-12 19:7:12.2520,-0.08,-0.04,-0.03
2020-08-12 19:7:12.3510,-0.05,-0.02,0.01
2020-08-12 19:7:12.4510,0.16,-0.06,-0.0
2020-08-12 19:7:12.5500,-0.01,-0.14,0.01
2020-08-12 19:7:12.6490,0.26,-0.37,0.04
2020-08-12 19:7:12.7480,0.3,-0.38,0.17
2020-08-12 19:7:12.8480,-0.08,-0.1,0.27
2020-08-12 19:7:12.9470,0.54,0.2,-0.24
2020-08-12 19:7:13.0460,0.2,0.16,0.03
2020-08-12 19:7:13.1450,0.05,-0.03,-0.11
2020-08-12 19:7:13.2450,-0.75,-0.49,0.07
2020-08-12 19:7:13.3440,-0.91,-0.04,0.1
2020-08-12 19:7:13.4430,0.84,-0.33,-0.22
2020-08-12 19:7:13.5430,-0.31,0.3,0.03
2020-08-12 19:7:13.6420,0.02,-0.09,-0.1
2020-08-12 19:7:13.7410,-0.01,-0.06,0.17
2020-08-12 19:7:13.8410,-0.01,-0.01,-0.03
2020-08-12 19:7:13.9400,0.02,-0.0,-0.01
2020-08-12 19:7:14.0390,-0.02,0.0,0.01
2020-08-12 19:7:14.1380,0.01,-0.01,0.02
2020-08-12 19:7:14.2380,-0.03,-0.09,-0.07
2020-08-12 19:7:14.3370,0.1,-0.13,0.06
2020-08-12 19:7:14.4370,0.22,-0.33,0.01
2020-08-12 19:7:14.5350,0.4,-0.33,0.11
2020-08-12 19:7:14.6350,-0.02,-0.12,0.28
2020-08-12 19:7:14.7340,0.54,0.14,-0.27
2020-08-12 19:7:14.8330,0.2,0.25,0.04
2020-08-12 19:7:14.9320,-0.05,-0.09,-0.08
2020-08-12 19:7:15.0320,-0.52,-0.33,0.24
2020-08-12 19:7:15.1310,-0.81,-0.23,0.08
2020-08-12 19:7:15.2300,0.63,-0.11,-0.17
2020-08-12 19:7:15.3300,0.06,0.12,-0.04
2020-08-12 19:7:15.4290,-0.21,-0.14,-0.09
2020-08-12 19:7:15.5280,-0.08,0.01,0.26
2020-08-12 19:7:15.6270,0.09,-0.01,-0.04
2020-08-12 19:7:15.7270,-0.09,-0.01,-0.03
2020-08-12 19:7:15.8260,-0.1,-0.04,-0.04
2020-08-12 19:7:15.9250,-0.01,-0.01,-0.0
2020-08-12 19:7:16.0240,0.11,-0.19,-0.04
2020-08-12 19:7:16.1240,0.21,-0.31,0.18
2020-08-12 19:7:16.2230,0.38,-0.33,-0.07
2020-08-12 19:7:16.3220,0.39,-0.08,0.16
2020-08-12 19:7:16.4210,0.35,0.01,-0.01
2020-08-12 19:7:16.5210,0.47,0.21,-0.14
2020-08-12 19:7:16.6200,0.25,0.18,-0.14
2020-08-12 19:7:16.7190,-0.26,-0.33,-0.06
2020-08-12 19:7:16.8190,-1.28,-0.32,0.5
2020-08-12 19:7:16.9180,1.08,-0.13,-0.01
2020-08-12 19:7:17.0170,-0.17,0.02,-0.14
2020-08-12 19:7:17.1160,-0.18,-0.21,0.1
2020-08-12 19:7:17.2160,0.08,0.02,0.0
2020-08-12 19:7:17.3150,-0.09,0.02,-0.12
2020-08-12 19:7:17.4140,-0.06,-0.02,0.04
2020-08-12 19:7:17.5140,0.0,-0.04,-0.03
2020-08-12 19:7:17.6130,0.03,-0.04,0.0
2020-08-12 19:7:17.7120,0.05,-0.02,-0.01
2020-08-12 19:7:17.8110,0.05,-0.17,0.06
2020-08-12 19:7:17.9110,0.44,-0.46,0.13
2020-08-12 19:7:18.0100,0.22,-0.47,0.2
2020-08-12 19:7:18.1090,0.09,-0.03,0.23
2020-08-12 19:7:18.2080,0.34,0.3,-0.17
2020-08-12 19:7:18.3080,0.17,0.2,0.05
2020-08-12 19:7:18.4070,0.09,0.05,-0.13
2020-08-12 19:7:18.5060,-0.77,-0.67,0.14
2020-08-12 19:7:18.6060,-0.82,-0.14,-0.04
2020-08-12 19:7:18.7050,0.04,-0.45,-0.38
2020-08-12 19:7:18.8040,-0.47,0.11,0.2
2020-08-12 19:7:18.9030,0.15,0.01,-0.1
2020-08-12 19:7:19.0030,-0.17,0.04,0.02
2020-08-12 19:7:19.1020,0.02,0.01,-0.01
2020-08-12 19:7:19.2010,-0.0,0.0,-0.01
2020-08-12 19:7:19.3000,-0.04,-0.02,-0.0
2020-08-12 19:7:19.4000,0.07,-0.0,-0.01
2020-08-12 19:7:19.4990,0.12,-0.14,0.06
2020-08-12 19:7:19.5980,0.34,-0.45,0.12
2020-08-12 19:7:19.6980,0.36,-0.45,0.27
2020-08-12 19:7:19.7970,-0.08,-0.16,0.24
2020-08-12 19:7:19.8960,0.55,0.29,-0.16
2020-08-12 19:7:19.9950,0.28,0.26,-0.12
2020-08-12 19:7:20.0950,-0.17,-0.18,-0.01
2020-08-12 19:7:20.1940,-1.03,-0.43,0.4
2020-08-12 19:7:20.2930,-1.03,-0.26,-0.0
2020-08-12 19:7:20.3920,-0.27,-0.21,0.27
2020-08-12 19:7:20.4920,-0.43,-0.0,0.19
2020-08-12 19:7:20.5910,-0.02,0.04,0.14
2020-08-12 19:7:20.6900,-0.06,-0.06,-0.03
2020-08-12 19:7:20.7900,-0.04,0.05,0.02
2020-08-12 19:7:20.8890,-0.01,-0.01,-0.01
2020-08-12 19:7:20.9880,0.07,-0.05,-0.01
2020-08-12 19:7:21.0870,0.1,-0.09,0.01
2020-08-12 19:7:21.1870,0.11,-0.26,0.04
2020-08-12 19:7:21.2860,0.41,-0.39,0.1
2020-08-12 19:7:21.3850,0.61,-0.34,0.26
2020-08-12 19:7:21.4840,0.59,0.18,-0.02
2020-08-12 19:7:21.5840,0.37,0.32,-0.13
2020-08-12 19:7:21.6830,0.09,0.16,-0.04
2020-08-12 19:7:21.7820,-0.35,-0.34,-0.0
2020-08-12 19:7:21.8810,-0.7,-0.17,0.19
2020-08-12 19:7:21.9810,0.3,-0.25,-0.03
2020-08-12 19:7:22.0800,-0.35,0.19,-0.26
2020-08-12 19:7:22.1790,0.01,-0.1,-0.01
2020-08-12 19:7:22.2790,-0.22,-0.02,0.14
2020-08-12 19:7:22.3780,-0.05,0.01,0.02
2020-08-12 19:7:22.4770,-0.01,-0.03,-0.02
2020-08-12 19:7:22.5760,0.08,-0.03,0.01
2020-08-12 19:7:22.6760,0.01,-0.07,0.01
2020-08-12 19:7:22.7750,0.14,-0.12,0.02
2020-08-12 19:7:22.8740,0.39,-0.46,0.1
2020-08-12 19:7:22.9730,0.27,-0.5,0.25
2020-08-12 19:7:23.0730,0.15,-0.09,0.26
2020-08-12 19:7:23.1720,0.47,0.28,-0.16
2020-08-12 19:7:23.2710,0.22,0.17,-0.07
2020-08-12 19:7:23.3710,-0.17,-0.1,-0.06
2020-08-12 19:7:23.4700,-0.78,-0.52,0.2
2020-08-12 19:7:23.5690,-0.71,-0.14,0.16
2020-08-12 19:7:23.6690,0.73,-0.49,-0.72
2020-08-12 19:7:23.7680,-0.59,-0.01,0.43
2020-08-12 19:7:23.8670,0.32,-0.06,-0.26
2020-08-12 19:7:23.9660,-0.07,0.01,-0.05
2020-08-12 19:7:24.0660,-0.02,0.0,0.0
2020-08-12 19:7:24.1650,-0.08,0.01,0.01
2020-08-12 19:7:24.2640,-0.04,-0.05,0.02
2020-08-12 19:7:24.3630,0.2,-0.11,0.01
2020-08-12 19:7:24.4630,0.23,-0.28,0.1
2020-08-12 19:7:24.5620,0.55,-0.29,0.18
2020-08-12 19:7:24.6610,0.59,-0.38,0.27
2020-08-12 19:7:24.7600,0.62,0.07,-0.11
2020-08-12 19:7:24.8600,0.41,0.32,-0.18
2020-08-12 19:7:24.9590,0.1,0.14,-0.16
2020-08-12 19:7:25.0580,-0.61,-0.45,-0.01
2020-08-12 19:7:25.1580,-0.78,-0.0,0.17
2020-08-12 19:7:25.2570,-0.46,-0.38,0.21
2020-08-12 19:7:25.3560,-0.42,0.03,-0.09
2020-08-12 19:7:25.4550,0.05,0.01,0.18
2020-08-12 19:7:25.5550,-0.1,-0.05,0.04
2020-08-12 19:7:25.6540,-0.07,-0.01,-0.07
2020-08-12 19:7:25.7530,0.02,-0.02,-0.04
2020-08-12 19:7:25.8520,0.01,-0.02,-0.01
2020-08-12 19:7:25.9520,0.02,-0.04,0.03
2020-08-12 19:7:26.0510,0.07,-0.21,0.05
2020-08-12 19:7:26.1500,0.5,-0.48,0.12
2020-08-12 19:7:26.2500,0.34,-0.5,0.21
2020-08-12 19:7:26.3490,0.35,-0.07,0.25
2020-08-12 19:7:26.4480,0.39,0.29,-0.2
2020-08-12 19:7:26.5470,0.29,0.27,-0.17
2020-08-12 19:7:26.6470,-0.27,-0.46,-0.05
2020-08-12 19:7:26.7460,-1.06,-0.22,0.34
2020-08-12 19:7:26.8450,-0.62,-0.18,0.13
2020-08-12 19:7:26.9450,-0.84,-0.3,-0.07
2020-08-12 19:7:27.0440,-0.22,0.21,0.28
2020-08-12 19:7:27.1430,0.05,0.02,0.03
2020-08-12 19:7:27.2420,0.03,0.0,-0.01
2020-08-12 19:7:27.3420,0.07,-0.03,-0.02
2020-08-12 19:7:27.4410,0.04,0.03,0.03
2020-08-12 19:7:27.5400,0.1,0.0,0.03
2020-08-12 19:7:27.6390,0.1,-0.08,0.07
2020-08-12 19:7:27.7390,0.25,-0.3,0.07
2020-08-12 19:7:27.8380,0.45,-0.36,0.15
2020-08-12 19:7:27.9370,0.51,-0.38,0.1
2020-08-12 19:7:28.0360,0.53,0.28,-0.23
2020-08-12 19:7:28.1360,0.26,0.2,0.01
2020-08-12 19:7:28.2350,0.12,0.14,-0.16
2020-08-12 19:7:28.3340,-0.47,-0.19,0.08
2020-08-12 19:7:28.4340,-0.97,-0.21,0.23
2020-08-12 19:7:28.5330,0.64,-0.2,0.35
2020-08-12 19:7:28.6320,-0.26,0.18,-0.17
2020-08-12 19:7:28.7310,-0.14,-0.11,0.07
2020-08-12 19:7:28.8310,-0.01,-0.03,0.13
2020-08-12 19:7:28.9300,0.09,-0.03,-0.14
2020-08-12 19:7:29.0290,0.03,-0.05,-0.06
2020-08-12 19:7:29.1280,-0.06,-0.02,0.02
2020-08-12 19:7:29.2280,0.2,-0.04,0.04
2020-08-12 19:7:29.3270,0.13,-0.16,0.04
2020-08-12 19:7:29.4260,0.38,-0.39,0.1
2020-08-12 19:7:29.5260,0.25,-0.45,0.29
2020-08-12 19:7:29.6250,-0.03,-0.24,0.26
2020-08-12 19:7:29.7240,0.43,0.29,-0.17
2020-08-12 19:7:29.8230,0.24,0.29,-0.11
2020-08-12 19:7:29.9230,-0.09,-0.03,-0.15
2020-08-12 19:7:30.0220,-0.64,-0.44,0.27
2020-08-12 19:7:30.1210,-1.23,-0.13,0.15
2020-08-12 19:7:30.2200,-0.49,-0.08,0.33
2020-08-12 19:7:30.3200,-0.37,-0.22,0.07
2020-08-12 19:7:30.4190,0.03,0.04,0.04
2020-08-12 19:7:30.5180,0.03,-0.04,-0.03
2020-08-12 19:7:30.6180,0.04,-0.01,0.01
2020-08-12 19:7:30.7170,-0.05,-0.01,0.01
2020-08-12 19:7:30.8160,0.01,-0.03,-0.02
2020-08-12 19:7:30.9150,0.06,-0.1,-0.02
2020-08-12 19:7:31.0150,0.14,-0.33,0.1
2020-08-12 19:7:31.1140,0.46,-0.45,0.17
2020-08-12 19:7:31.2130,0.56,-0.35,0.18
2020-08-12 19:7:31.3120,0.49,0.16,-0.3
2020-08-12 19:7:31.4120,0.22,0.27,-0.07
2020-08-12 19:7:31.5110,0.18,0.24,-0.19
2020-08-12 19:7:31.6100,-0.3,-0.15,0.1
2020-08-12 19:7:31.7090,-0.74,-0.3,0.26
2020-08-12 19:7:31.8090,-0.76,-0.29,0.05
2020-08-12 19:7:31.9080,-0.15,-0.28,-0.21
2020-08-12 19:7:32.0070,-0.55,0.12,0.47
2020-08-12 19:7:32.1070,0.23,0.02,-0.14
2020-08-12 19:7:32.2060,-0.01,0.01,0.03
2020-08-12 19:7:32.3050,-0.0,-0.01,-0.01
2020-08-12 19:7:32.4040,-0.07,-0.01,-0.01
2020-08-12 19:7:32.5040,0.12,-0.02,-0.01
2020-08-12 19:7:32.6030,0.07,-0.13,0.04
2020-08-12 19:7:32.7020,0.3,-0.34,0.08
2020-08-12 19:7:32.8010,0.42,-0.51,0.23
2020-08-12 19:7:32.9010,-0.1,-0.11,0.23
2020-08-12 19:7:33.0000,0.49,0.31,-0.27
2020-08-12 19:7:33.0990,0.25,0.34,-0.04
2020-08-12 19:7:33.1990,0.06,0.11,-0.01
2020-08-12 19:7:33.2980,-0.61,-0.78,0.15
2020-08-12 19:7:33.3970,-0.77,-0.14,0.15
2020-08-12 19:7:33.4960,0.83,-0.19,-0.14
2020-08-12 19:7:33.5950,-0.4,0.12,-0.03
2020-08-12 19:7:33.6950,-0.05,-0.09,-0.14
2020-08-12 19:7:33.7940,-0.25,0.03,0.17
2020-08-12 19:7:33.8940,0.08,-0.0,0.0
2020-08-12 19:7:33.9930,0.01,-0.02,-0.03
2020-08-12 19:7:34.0920,-0.03,-0.01,0.01
2020-08-12 19:7:34.1910,0.15,-0.08,0.04
2020-08-12 19:7:34.2910,0.25,-0.32,0.09
2020-08-12 19:7:34.3900,0.42,-0.38,0.19
2020-08-12 19:7:34.4890,0.3,-0.22,0.15
2020-08-12 19:7:34.5880,0.46,0.26,-0.27
2020-08-12 19:7:34.6880,0.29,0.28,-0.1
2020-08-12 19:7:34.7870,0.09,0.11,-0.07
2020-08-12 19:7:34.8860,-0.56,-0.53,0.22
2020-08-12 19:7:34.9860,-0.63,-0.11,0.09
2020-08-12 19:7:35.0850,-0.57,-0.23,-0.19
2020-08-12 19:7:35.1840,-0.03,-0.32,0.18
2020-08-12 19:7:35.2830,-0.32,-0.06,-0.05
2020-08-12 19:7:35.3830,-0.18,0.03,0.21
2020-08-12 19:7:35.4820,0.01,-0.02,-0.08
2020-08-12 19:7:35.5810,0.04,-0.02,-0.07
2020-08-12 19:7:35.6800,0.01,-0.0,0.02
2020-08-12 19:7:35.7800,0.11,-0.05,0.03
2020-08-12 19:7:35.8790,0.0,-0.17,0.03
2020-08-12 19:7:35.9780,0.36,-0.44,0.06
2020-08-12 19:7:36.0770,0.34,-0.42,0.25
2020-08-12 19:7:36.1770,0.35,0.01,0.2
2020-08-12 19:7:36.2760,0.46,0.29,-0.14
2020-08-12 19:7:36.3750,0.17,0.12,0.09
2020-08-12 19:7:36.4750,-0.23,-0.25,0.05
2020-08-12 19:7:36.5740,-0.83,-0.38,0.17
2020-08-12 19:7:36.6730,-0.71,-0.15,0.0
2020-08-12 19:7:36.7720,1.49,-0.2,-0.12
2020-08-12 19:7:36.8720,-0.15,0.01,-0.0
2020-08-12 19:7:36.9710,0.08,-0.11,-0.09
2020-08-12 19:7:37.0700,-0.19,0.04,0.18
2020-08-12 19:7:37.1690,-0.05,-0.05,-0.05
2020-08-12 19:7:37.2690,0.11,-0.02,-0.03
2020-08-12 19:7:37.3680,-0.08,-0.03,-0.0
2020-08-12 19:7:37.4670,0.05,-0.05,-0.01
2020-08-12 19:7:37.5670,0.09,-0.06,0.11
2020-08-12 19:7:37.6660,0.21,-0.34,-0.03
2020-08-12 19:7:37.7650,0.31,-0.43,0.14
2020-08-12 19:7:37.8640,0.36,-0.13,0.17
2020-08-12 19:7:37.9640,0.39,0.23,-0.2
2020-08-12 19:7:38.0630,0.21,0.36,0.03
2020-08-12 19:7:38.1620,-0.03,0.17,0.07
2020-08-12 19:7:38.2610,-0.54,-0.54,0.16
2020-08-12 19:7:38.3610,-0.78,-0.16,-0.03
2020-08-12 19:7:38.4600,-0.22,-0.24,0.1
2020-08-12 19:7:38.5590,-0.28,-0.17,-0.12
2020-08-12 19:7:38.6580,-0.16,-0.13,0.04
2020-08-12 19:7:38.7580,-0.11,-0.01,0.15
2020-08-12 19:7:38.8570,-0.0,-0.01,-0.06
2020-08-12 19:7:38.9560,-0.12,-0.06,-0.06
2020-08-12 19:7:39.0560,-0.05,-0.02,-0.02
2020-08-12 19:7:39.1550,0.01,0.01,-0.0
2020-08-12 19:7:39.2540,0.08,-0.02,0.06
2020-08-12 19:7:39.3540,0.32,-0.43,0.01
2020-08-12 19:7:39.4530,0.27,-0.37,0.13
2020-08-12 19:7:39.5520,0.23,-0.0,0.14
2020-08-12 19:7:39.6510,0.34,0.19,-0.22
2020-08-12 19:7:39.7500,0.27,0.3,-0.1
2020-08-12 19:7:39.8500,0.15,0.11,-0.19
2020-08-12 19:7:39.9490,-0.38,-0.33,0.03
2020-08-12 19:7:40.0480,-0.79,-0.25,0.11
2020-08-12 19:7:40.1480,0.63,-0.28,0.05
2020-08-12 19:7:40.2470,-0.17,0.11,-0.23
2020-08-12 19:7:40.3460,0.04,-0.05,-0.14
2020-08-12 19:7:40.4450,-0.19,-0.02,0.27
2020-08-12 19:7:40.5450,-0.23,0.02,0.01
2020-08-12 19:7:40.6440,-0.01,0.02,-0.05
2020-08-12 19:7:40.7430,0.05,-0.03,-0.01
2020-08-12 19:7:40.8420,0.11,-0.04,0.01
2020-08-12 19:7:40.9420,0.14,-0.05,0.06
2020-08-12 19:7:41.0410,0.28,-0.37,0.05
2020-08-12 19:7:41.1400,0.32,-0.31,0.15
2020-08-12 19:7:41.2400,0.26,-0.08,0.13
2020-08-12 19:7:41.3390,0.38,0.27,-0.18
2020-08-12 19:7:41.4380,0.23,0.27,-0.15
2020-08-12 19:7:41.5370,0.04,0.05,-0.04
2020-08-12 19:7:41.6370,-0.12,-0.12,-0.1
2020-08-12 19:7:41.7360,-0.7,-0.36,0.17
2020-08-12 19:7:41.8350,-0.87,-0.26,-0.02
2020-08-12 19:7:41.9340,-0.36,-0.2,0.18
2020-08-12 19:7:42.0340,-0.47,-0.2,0.2
2020-08-12 19:7:42.1330,-0.0,-0.01,0.07
2020-08-12 19:7:42.2320,0.02,-0.01,-0.04
2020-08-12 19:7:42.3320,0.05,-0.01,-0.0
2020-08-12 19:7:42.4310,-0.04,-0.01,-0.01
2020-08-12 19:7:42.5300,0.04,0.0,-0.01
2020-08-12 19:7:42.6290,0.0,-0.13,-0.0
2020-08-12 19:7:42.7290,0.18,-0.29,0.13
2020-08-12 19:7:42.8280,0.47,-0.35,0.13
2020-08-12 19:7:42.9270,0.45,-0.28,0.17
2020-08-12 19:7:43.0260,0.45,0.13,-0.14
2020-08-12 19:7:43.1260,0.31,0.32,-0.13
2020-08-12 19:7:43.2250,0.11,0.24,-0.04
2020-08-12 19:7:43.3240,-0.16,-0.12,-0.11
2020-08-12 19:7:43.4240,-0.78,-0.47,0.13
2020-08-12 19:7:43.5230,-0.76,-0.02,0.14
2020-08-12 19:7:43.6220,0.25,-0.94,-0.72
2020-08-12 19:7:43.7210,-0.76,0.16,0.49
2020-08-12 19:7:43.8210,0.35,-0.08,-0.25
2020-08-12 19:7:43.9200,-0.12,-0.03,-0.02
2020-08-12 19:7:44.0190,-0.01,0.0,0.01
2020-08-12 19:7:44.1180,-0.02,0.01,0.01
2020-08-12 19:7:44.2180,0.04,-0.05,-0.02
2020-08-12 19:7:44.3170,0.11,-0.1,0.06
2020-08-12 19:7:44.4170,0.26,-0.33,0.13
2020-08-12 19:7:44.5160,0.39,-0.5,0.18
2020-08-12 19:7:44.6150,0.03,-0.09,0.16
2020-08-12 19:7:44.7140,0.48,0.29,-0.3
2020-08-12 19:7:44.8130,0.16,0.4,0.05
2020-08-12 19:7:44.9130,0.1,0.11,-0.1
2020-08-12 19:7:45.0120,-0.35,-0.38,0.12
2020-08-12 19:7:45.1110,-0.82,-0.25,0.23
2020-08-12 19:7:45.2100,-0.39,-0.2,0.14
2020-08-12 19:7:45.3100,-0.41,-0.11,0.03
2020-08-12 19:7:45.4090,-0.13,-0.0,0.18
2020-08-12 19:7:45.5080,-0.13,-0.04,0.03
2020-08-12 19:7:45.6080,0.05,-0.03,-0.1
2020-08-12 19:7:45.7070,-0.04,-0.01,-0.01
2020-08-12 19:7:45.8060,0.01,-0.01,0.0
2020-08-12 19:7:45.9050,0.13,-0.03,-0.01
2020-08-12 19:7:46.0050,0.04,-0.06,0.08
2020-08-12 19:7:46.1040,0.15,-0.32,0.09
2020-08-12 19:7:46.2030,0.44,-0.45,0.04
2020-08-12 19:7:46.3020,0.21,-0.16,0.14
2020-08-12 19:7:46.4020,0.44,0.21,-0.17
2020-08-12 19:7:46.5010,0.17,0.29,-0.03
2020-08-12 19:7:46.6000,0.11,0.24,-0.04
2020-08-12 19:7:46.6990,-0.32,-0.3,0.06
2020-08-12 19:7:46.7990,-0.84,-0.21,0.24
2020-08-12 19:7:46.8980,-0.75,-0.2,-0.04
2020-08-12 19:7:46.9970,-0.33,-0.22,-0.07
2020-08-12 19:7:47.0970,-0.58,-0.05,0.35
2020-08-12 19:7:47.1960,0.13,0.08,-0.06
2020-08-12 19:7:47.2950,-0.01,0.0,0.01
2020-08-12 19:7:47.3950,-0.02,0.01,0.04
2020-08-12 19:7:47.4940,-0.02,-0.06,-0.08
2020-08-12 19:7:47.5930,-0.06,-0.05,-0.03
2020-08-12 19:7:47.6920,0.18,-0.07,0.05
2020-08-12 19:7:47.7920,0.19,-0.13,0.12
2020-08-12 19:7:47.8910,0.5,-0.46,0.06
2020-08-12 19:7:47.9900,0.38,-0.55,0.25
2020-08-12 19:7:48.0890,0.49,-0.13,0.17
2020-08-12 19:7:48.1890,0.53,0.43,-0.26
2020-08-12 19:7:48.2880,0.1,0.05,-0.26
2020-08-12 19:7:48.3870,-0.81,-0.74,0.24
2020-08-12 19:7:48.4860,-1.12,-0.18,0.12
2020-08-12 19:7:48.5860,-0.38,-0.17,-0.27
2020-08-12 19:7:48.6850,-0.61,-0.06,0.3
2020-08-12 19:7:48.7840,0.25,-0.02,0.0
2020-08-12 19:7:48.8840,-0.0,-0.01,-0.05
2020-08-12 19:7:48.9830,-0.14,0.04,-0.03
2020-08-12 19:7:49.0820,-0.03,-0.03,-0.06
2020-08-12 19:7:49.1810,0.17,-0.04,-0.02
2020-08-12 19:7:49.2810,0.08,-0.21,-0.0
2020-08-12 19:7:49.3800,0.47,-0.32,0.1
2020-08-12 19:7:49.4790,0.23,-0.31,0.08
2020-08-12 19:7:49.5790,-0.11,-0.21,0.3
2020-08-12 19:7:49.6780,0.61,0.32,-0.29
2020-08-12 19:7:49.7770,0.24,0.09,-0.0
2020-08-12 19:7:49.8760,-0.16,-0.05,-0.08
2020-08-12 19:7:49.9760,-0.82,-0.67,0.14
2020-08-12 19:7:50.0750,-1.22,-0.22,0.24
2020-08-12 19:7:50.1740,-0.28,-0.06,-0.07
2020-08-12 19:7:50.2730,-0.44,-0.08,0.3
2020-08-12 19:7:50.3730,-0.13,0.02,0.06
2020-08-12 19:7:50.4720,0.08,-0.04,-0.03
2020-08-12 19:7:50.5710,-0.04,-0.02,-0.01
2020-08-12 19:7:50.6710,-0.06,-0.01,-0.01
2020-08-12 19:7:50.7700,0.04,-0.01,-0.04
2020-08-12 19:7:50.8690,0.09,-0.03,0.0
2020-08-12 19:7:50.9690,0.07,-0.15,0.09
2020-08-12 19:7:51.0680,0.36,-0.38,-0.0
2020-08-12 19:7:51.1670,0.22,-0.39,0.15
2020-08-12 19:7:51.2660,0.01,-0.12,0.11
2020-08-12 19:7:51.3650,0.49,0.29,-0.26
2020-08-12 19:7:51.4650,0.3,0.28,0.04
2020-08-12 19:7:51.5640,0.03,-0.06,-0.0
2020-08-12 19:7:51.6630,-1.01,-0.73,0.17
2020-08-12 19:7:51.7630,-1.13,-0.21,0.01
2020-08-12 19:7:51.8620,-0.58,-0.55,0.03
2020-08-12 19:7:51.9610,-0.53,0.06,0.16
2020-08-12 19:7:52.0600,0.01,-0.0,-0.14
2020-08-12 19:7:52.1600,-0.04,-0.03,0.03
2020-08-12 19:7:52.2590,0.02,0.02,0.01
2020-08-12 19:7:52.3580,-0.03,-0.01,0.02
2020-08-12 19:7:52.4570,0.14,0.02,-0.01
2020-08-12 19:7:52.5570,0.05,-0.06,-0.07
2020-08-12 19:7:52.6560,0.1,-0.29,0.12
2020-08-12 19:7:52.7550,0.46,-0.38,0.11
2020-08-12 19:7:52.8540,0.37,-0.43,0.23
2020-08-12 19:7:52.9540,0.5,0.12,0.19
2020-08-12 19:7:53.0530,0.37,0.28,-0.16
2020-08-12 19:7:53.1520,0.06,0.07,0.0
2020-08-12 19:7:53.2520,-0.27,-0.25,0.1
2020-08-12 19:7:53.3510,-1.12,-0.27,0.25
2020-08-12 19:7:53.4500,-0.22,-0.49,0.11
2020-08-12 19:7:53.5490,-0.01,0.37,-0.06
2020-08-12 19:7:53.6490,0.2,-0.11,-0.31
2020-08-12 19:7:53.7480,-0.03,0.02,0.02
2020-08-12 19:7:53.8470,-0.07,0.02,0.05
2020-08-12 19:7:53.9460,0.02,-0.01,-0.01
2020-08-12 19:7:54.0460,-0.01,0.03,-0.02
2020-08-12 19:7:54.1450,0.11,-0.1,-0.01
2020-08-12 19:7:54.2440,0.16,-0.22,0.03
2020-08-12 19:7:54.3430,0.49,-0.46,0.16
2020-08-12 19:7:54.4430,0.34,-0.47,0.25
2020-08-12 19:7:54.5420,0.39,0.04,0.13
2020-08-12 19:7:54.6410,0.49,0.22,-0.23
2020-08-12 19:7:54.7410,0.1,0.03,-0.03
2020-08-12 19:7:54.8400,-0.41,-0.31,0.1
2020-08-12 19:7:54.9390,-0.98,-0.25,0.14
2020-08-12 19:7:55.0380,-0.79,-0.17,0.1
2020-08-12 19:7:55.1380,-0.68,-0.29,0.36
2020-08-12 19:7:55.2370,-0.33,-0.05,0.13
2020-08-12 19:7:55.3360,-0.03,0.03,0.11
2020-08-12 19:7:55.4360,0.11,-0.02,-0.11
2020-08-12 19:7:55.5350,0.02,-0.02,-0.02
2020-08-12 19:7:55.6340,-0.03,-0.01,0.04
2020-08-12 19:7:55.7330,0.19,0.01,0.04
2020-08-12 19:7:55.8330,0.01,-0.12,0.08
2020-08-12 19:7:55.9320,0.31,-0.33,0.03
2020-08-12 19:7:56.0310,0.41,-0.38,0.14
2020-08-12 19:7:56.1300,0.31,-0.21,0.14
2020-08-12 19:7:56.2300,0.32,0.2,-0.17
2020-08-12 19:7:56.3290,0.42,0.31,-0.12
2020-08-12 19:7:56.4280,0.02,0.07,0.05
2020-08-12 19:7:56.5270,-0.74,-0.67,0.21
2020-08-12 19:7:56.6270,-1.01,-0.13,0.06
2020-08-12 19:7:56.7260,0.83,-0.42,-0.59
2020-08-12 19:7:56.8250,-0.42,0.17,0.23
2020-08-12 19:7:56.9250,0.21,-0.04,-0.12
2020-08-12 19:7:57.0240,-0.17,-0.01,0.06
2020-08-12 19:7:57.1230,-0.14,-0.01,-0.05
2020-08-12 19:7:57.2220,-0.07,-0.05,-0.01
2020-08-12 19:7:57.3220,0.16,-0.03,-0.01
2020-08-12 19:7:57.4210,-0.01,-0.2,0.01
2020-08-12 19:7:57.5200,0.39,-0.41,0.11
2020-08-12 19:7:57.6190,0.27,-0.46,0.11
2020-08-12 19:7:57.7190,0.14,-0.06,0.22
2020-08-12 19:7:57.8180,0.57,0.3,-0.22
2020-08-12 19:7:57.9170,0.05,0.13,0.05
2020-08-12 19:7:58.0170,-0.07,-0.26,0.01
2020-08-12 19:7:58.1160,-0.95,-0.29,0.26
2020-08-12 19:7:58.2150,-0.97,-0.48,-0.12
2020-08-12 19:7:58.3140,-0.51,-0.07,0.18
2020-08-12 19:7:58.4140,-0.05,-0.05,-0.01
2020-08-12 19:7:58.5130,-0.11,-0.0,0.09
2020-08-12 19:7:58.6120,-0.0,0.01,-0.06
2020-08-12 19:7:58.7120,0.06,-0.03,0.01
2020-08-12 19:7:58.8110,-0.04,-0.03,0.05
2020-08-12 19:7:58.9100,0.1,-0.15,-0.04
2020-08-12 19:7:59.0090,0.19,-0.54,0.04
2020-08-12 19:7:59.1080,0.59,-0.4,0.16
2020-08-12 19:7:59.2080,0.45,-0.02,0.14
2020-08-12 19:7:59.3070,0.38,0.34,-0.15
2020-08-12 19:7:59.4060,0.32,0.23,-0.13
2020-08-12 19:7:59.5060,-0.35,-0.37,-0.08
2020-08-12 19:7:59.6050,-1.14,-0.27,0.26
2020-08-12 19:7:59.7040,-0.86,-0.27,-0.02
2020-08-12 19:7:59.8030,-0.64,-0.22,0.34
2020-08-12 19:7:59.9030,-0.38,-0.16,0.11
2020-08-12 19:8:00.0020,-0.09,0.03,0.07
2020-08-12 19:8:00.1010,0.08,-0.01,-0.06
2020-08-12 19:8:00.2010,-0.01,0.01,-0.0
2020-08-12 19:8:00.3000,-0.03,-0.03,-0.02
2020-08-12 19:8:00.3990,0.18,-0.11,0.06
2020-08-12 19:8:00.4980,0.04,-0.27,-0.05
2020-08-12 19:8:00.5980,0.56,-0.54,0.12
2020-08-12 19:8:00.6970,0.47,-0.38,0.13
2020-08-12 19:8:00.7960,0.49,0.15,-0.17
2020-08-12 19:8:00.8950,0.32,0.18,-0.16
2020-08-12 19:8:00.9950,-0.1,0.08,-0.03
2020-08-12 19:8:01.0940,-0.79,-0.6,0.08
2020-08-12 19:8:01.1930,-1.15,-0.04,0.2
2020-08-12 19:8:01.2920,-0.0,-0.55,-0.62
2020-08-12 19:8:01.3920,-0.51,-0.06,0.28
2020-08-12 19:8:01.4910,0.16,-0.03,-0.07
2020-08-12 19:8:01.5900,-0.03,-0.04,0.01
2020-08-12 19:8:01.6900,-0.0,0.0,0.01
2020-08-12 19:8:01.7890,0.01,-0.06,-0.07
2020-08-12 19:8:01.8880,0.02,-0.04,-0.02
2020-08-12 19:8:01.9870,0.12,-0.2,-0.03
2020-08-12 19:8:02.0870,0.53,-0.51,0.12
2020-08-12 19:8:02.1860,0.32,-0.5,0.26
2020-08-12 19:8:02.2850,0.58,0.07,0.13
2020-08-12 19:8:02.3850,0.5,0.21,-0.19
2020-08-12 19:8:02.4840,0.06,0.2,-0.02
2020-08-12 19:8:02.5830,-0.4,-0.59,0.05
2020-08-12 19:8:02.6820,-1.0,-0.24,0.13
2020-08-12 19:8:02.7820,0.32,-0.31,-0.12
2020-08-12 19:8:02.8810,-0.48,-0.08,-0.06
2020-08-12 19:8:02.9800,0.03,-0.11,-0.15
2020-08-12 19:8:03.0790,-0.19,0.02,0.17
2020-08-12 19:8:03.1790,0.01,0.01,-0.02
2020-08-12 19:8:03.2780,-0.05,-0.02,-0.05
2020-08-12 19:8:03.3770,0.01,-0.04,-0.03
2020-08-12 19:8:03.4770,0.04,-0.05,0.01
2020-08-12 19:8:03.5760,0.18,-0.31,0.07
2020-08-12 19:8:03.6750,0.52,-0.49,0.15
2020-08-12 19:8:03.7740,0.5,-0.18,0.15
2020-08-12 19:8:03.8740,0.51,0.17,-0.12
2020-08-12 19:8:03.9730,0.36,0.18,-0.03
2020-08-12 19:8:04.0720,0.07,0.18,-0.14
2020-08-12 19:8:04.1710,-0.51,-0.5,0.05
2020-08-12 19:8:04.2710,-1.02,-0.03,0.03
2020-08-12 19:8:04.3700,0.99,-0.41,-0.48
2020-08-12 19:8:04.4690,-0.22,0.44,0.01
2020-08-12 19:8:04.5690,0.06,0.03,-0.19
2020-08-12 19:8:04.6680,-0.12,0.01,0.14
2020-08-12 19:8:04.7670,-0.18,0.01,0.03
2020-08-12 19:8:04.8660,0.0,-0.02,-0.01
2020-08-12 19:8:04.9660,0.12,-0.0,-0.02
2020-08-12 19:8:05.0650,0.13,-0.1,0.03
2020-08-12 19:8:05.1640,0.21,-0.33,0.11
2020-08-12 19:8:05.2630,0.43,-0.43,0.05
2020-08-12 19:8:05.3630,0.57,-0.23,0.2
2020-08-12 19:8:05.4620,0.39,0.22,-0.12
2020-08-12 19:8:05.5610,0.32,0.27,-0.18
2020-08-12 19:8:05.6600,-0.18,-0.05,0.01
2020-08-12 19:8:05.7600,-0.88,-0.57,0.21
2020-08-12 19:8:05.8590,-1.0,-0.25,-0.01
2020-08-12 19:8:05.9580,-0.68,-0.47,-0.16
2020-08-12 19:8:06.0580,-0.51,-0.07,0.21
2020-08-12 19:8:06.1570,0.02,0.1,-0.0
2020-08-12 19:8:06.2560,-0.08,0.0,-0.02
2020-08-12 19:8:06.3550,-0.1,-0.02,0.1
2020-08-12 19:8:06.4550,0.17,0.08,0.05
2020-08-12 19:8:06.5540,0.04,-0.06,-0.01
2020-08-12 19:8:06.6530,0.13,-0.15,-0.01
2020-08-12 19:8:06.7520,0.44,-0.5,0.02
2020-08-12 19:8:06.8520,0.3,-0.34,0.26
2020-08-12 19:8:06.9510,0.31,0.01,0.14
2020-08-12 19:8:07.0500,0.52,0.3,-0.13
2020-08-12 19:8:07.1490,0.12,0.08,-0.08
2020-08-12 19:8:07.2490,-0.35,-0.52,-0.05
2020-08-12 19:8:07.3480,-1.11,-0.02,0.26
2020-08-12 19:8:07.4470,0.77,-0.33,-0.11
2020-08-12 19:8:07.5470,-0.46,0.03,0.08
2020-08-12 19:8:07.6460,-0.02,-0.16,-0.05
2020-08-12 19:8:07.7450,-0.21,-0.02,0.15
2020-08-12 19:8:07.8440,-0.04,0.01,-0.05
2020-08-12 19:8:07.9440,-0.05,-0.03,-0.04
2020-08-12 19:8:08.0430,0.15,-0.03,-0.04
2020-08-12 19:8:08.1420,0.23,-0.11,0.11
2020-08-12 19:8:08.2420,0.41,-0.47,0.02
2020-08-12 19:8:08.3410,0.41,-0.52,0.17
2020-08-12 19:8:08.4400,0.17,-0.01,0.27
2020-08-12 19:8:08.5390,0.67,0.42,-0.18
2020-08-12 19:8:08.6390,0.08,0.04,-0.03
2020-08-12 19:8:08.7380,-0.54,-0.68,-0.01
2020-08-12 19:8:08.8370,-1.06,-0.17,0.12
2020-08-12 19:8:08.9370,0.96,-0.47,-0.46
2020-08-12 19:8:09.0360,-0.58,0.03,0.2
2020-08-12 19:8:09.1350,0.15,-0.0,-0.17
2020-08-12 19:8:09.2340,-0.23,0.01,0.02
2020-08-12 19:8:09.3340,-0.09,0.0,0.03
2020-08-12 19:8:09.4330,-0.06,0.02,-0.01
2020-08-12 19:8:09.5320,0.28,0.01,-0.03
2020-08-12 19:8:09.6310,0.2,-0.44,0.08
2020-08-12 19:8:09.7310,0.66,-0.6,0.11
2020-08-12 19:8:09.8300,0.12,0.03,0.41
2020-08-12 19:8:09.9290,0.38,0.44,-0.07
2020-08-12 19:8:10.0280,0.34,0.42,-0.11
2020-08-12 19:8:10.1280,-0.1,-0.12,-0.06
2020-08-12 19:8:10.2270,-0.74,-0.88,0.08
2020-08-12 19:8:10.3260,-0.95,-0.23,0.09
2020-08-12 19:8:10.4260,-0.52,-0.22,0.19
2020-08-12 19:8:10.5250,-0.46,-0.03,0.3
2020-08-12 19:8:10.6240,0.01,0.06,-0.04
2020-08-12 19:8:10.7230,-0.03,0.01,0.05
2020-08-12 19:8:10.8230,-0.04,-0.01,0.05
2020-08-12 19:8:10.9220,0.01,-0.02,0.0
2020-08-12 19:8:11.0210,0.15,-0.07,-0.01
2020-08-12 19:8:11.1210,0.07,-0.24,0.03
2020-08-12 19:8:11.2200,0.6,-0.5,0.12
2020-08-12 19:8:11.3190,0.45,-0.28,0.2
2020-08-12 19:8:11.4180,0.62,0.14,0.0
2020-08-12 19:8:11.5170,0.43,0.23,-0.14
2020-08-12 19:8:11.6170,-0.02,0.09,-0.09
2020-08-12 19:8:11.7160,-0.61,-0.62,0.04
2020-08-12 19:8:11.8150,-1.18,-0.15,0.2
2020-08-12 19:8:11.9150,0.77,-0.48,-0.51
2020-08-12 19:8:12.0140,-0.38,0.06,0.11
2020-08-12 19:8:12.1130,0.13,0.0,-0.15
2020-08-12 19:8:12.2120,-0.12,0.04,0.13
2020-08-12 19:8:12.3120,-0.13,0.0,-0.05
2020-08-12 19:8:12.4110,0.05,-0.02,-0.06
2020-08-12 19:8:12.5100,-0.04,-0.05,0.01
2020-08-12 19:8:12.6090,0.1,-0.14,0.04
2020-08-12 19:8:12.7090,0.36,-0.38,0.16
2020-08-12 19:8:12.8080,0.58,-0.54,0.1
2020-08-12 19:8:12.9070,0.12,-0.07,0.17
2020-08-12 19:8:13.0070,0.58,0.27,-0.22
2020-08-12 19:8:13.1060,0.02,0.05,-0.0
2020-08-12 19:8:13.2050,-0.28,-0.24,-0.12
2020-08-12 19:8:13.3050,-1.01,-0.47,0.07
2020-08-12 19:8:13.4040,-1.24,-0.1,0.41
2020-08-12 19:8:13.5030,-0.27,-0.49,-0.2
2020-08-12 19:8:13.6020,-0.48,0.0,0.35
2020-08-12 19:8:13.7010,0.01,-0.01,-0.08
2020-08-12 19:8:13.8010,-0.03,-0.01,-0.02
2020-08-12 19:8:13.9000,-0.04,-0.0,-0.01
2020-08-12 19:8:13.9990,0.08,-0.02,-0.03
2020-08-12 19:8:14.0990,0.06,-0.04,-0.03
2020-08-12 19:8:14.1980,0.05,-0.19,0.1
2020-08-12 19:8:14.2970,0.54,-0.46,0.13
2020-08-12 19:8:14.3960,0.48,-0.43,0.3
2020-08-12 19:8:14.4960,0.62,0.2,0.21
2020-08-12 19:8:14.5950,0.69,0.13,-0.3
2020-08-12 19:8:14.6940,0.02,0.01,-0.05
2020-08-12 19:8:14.7940,-0.78,-0.46,0.17
2020-08-12 19:8:14.8930,-1.03,-0.14,0.14
2020-08-12 19:8:14.9920,1.58,-0.33,-0.41
2020-08-12 19:8:15.0910,-0.27,0.02,0.18
2020-08-12 19:8:15.1910,0.11,-0.12,-0.21
2020-08-12 19:8:15.2900,-0.18,-0.03,0.06
2020-08-12 19:8:15.3890,-0.05,0.01,0.02
2020-08-12 19:8:15.4880,0.08,0.01,-0.04
2020-08-12 19:8:15.5890,0.0,-0.05,-0.01
2020-08-12 19:8:15.6870,0.06,-0.1,0.04
2020-08-12 19:8:15.7860,0.29,-0.38,0.1
2020-08-12 19:8:15.8850,0.33,-0.39,0.12
2020-08-12 19:8:15.9850,0.3,0.0,0.15
2020-08-12 19:8:16.0840,0.63,0.3,-0.27
2020-08-12 19:8:16.1830,0.14,0.01,0.03
2020-08-12 19:8:16.2830,-0.01,-0.25,-0.09
2020-08-12 19:8:16.3820,-1.07,-0.56,0.2
2020-08-12 19:8:16.4810,-0.95,-0.21,0.15
2020-08-12 19:8:16.5800,-0.67,-0.33,0.0
2020-08-12 19:8:16.6800,-0.43,0.1,0.28
2020-08-12 19:8:16.7790,0.12,0.02,-0.09
2020-08-12 19:8:16.8780,-0.05,-0.04,-0.0
2020-08-12 19:8:16.9770,-0.08,-0.0,0.04
2020-08-12 19:8:17.0770,-0.03,-0.06,-0.08
2020-08-12 19:8:17.1760,0.08,-0.08,0.05
2020-08-12 19:8:17.2750,0.09,-0.3,0.04
2020-08-12 19:8:17.3750,0.54,-0.55,0.14
2020-08-12 19:8:17.4740,0.63,-0.35,0.29
2020-08-12 19:8:17.5730,0.58,0.27,-0.03
2020-08-12 19:8:17.6720,0.49,0.28,-0.17
2020-08-12 19:8:17.7720,-0.15,0.06,-0.08
2020-08-12 19:8:17.8710,-0.96,-0.74,0.1
2020-08-12 19:8:17.9700,-1.04,-0.12,0.25
2020-08-12 19:8:18.0700,-0.4,-0.31,-0.18
2020-08-12 19:8:18.1690,-0.48,-0.03,0.31
2020-08-12 19:8:18.2680,0.07,0.05,-0.08
2020-08-12 19:8:18.3670,-0.1,0.01,0.05
2020-08-12 19:8:18.4670,-0.0,0.01,-0.03
2020-08-12 19:8:18.5660,0.01,-0.04,-0.01
2020-08-12 19:8:18.6650,0.18,-0.01,-0.03
2020-08-12 19:8:18.7640,0.11,-0.16,0.01
2020-08-12 19:8:18.8640,0.33,-0.56,0.15
2020-08-12 19:8:18.9630,0.39,-0.5,0.28
2020-08-12 19:8:19.0620,0.74,0.07,0.05
2020-08-12 19:8:19.1610,0.59,0.25,-0.25
2020-08-12 19:8:19.2610,-0.0,-0.17,-0.06
2020-08-12 19:8:19.3600,-0.58,-0.7,0.25
2020-08-12 19:8:19.4590,-0.97,-0.07,0.1
2020-08-12 19:8:19.5590,1.08,-0.46,-0.18
2020-08-12 19:8:19.6580,-0.3,0.49,0.18
2020-08-12 19:8:19.7570,0.02,0.02,-0.26
2020-08-12 19:8:19.8560,-0.19,-0.0,0.18
2020-08-12 19:8:19.9560,0.04,0.01,-0.07
2020-08-12 19:8:20.0550,-0.07,-0.01,-0.06
2020-08-12 19:8:20.1540,-0.04,-0.1,0.0
2020-08-12 19:8:20.2530,0.22,-0.09,0.01
2020-08-12 19:8:20.3530,0.35,-0.53,0.06
2020-08-12 19:8:20.4520,0.3,-0.53,0.27
2020-08-12 19:8:20.5510,0.11,-0.04,0.08
2020-08-12 19:8:20.6500,0.46,0.29,-0.12
2020-08-12 19:8:20.7500,0.11,0.11,-0.06
2020-08-12 19:8:20.8490,-0.31,-0.41,-0.05
2020-08-12 19:8:20.9480,-1.09,-0.15,0.06
2020-08-12 19:8:21.0480,0.63,-0.23,0.02
2020-08-12 19:8:21.1470,-0.4,-0.11,-0.02
2020-08-12 19:8:21.2460,-0.03,-0.01,0.04
2020-08-12 19:8:21.3450,-0.24,-0.0,0.02
2020-08-12 19:8:21.4450,-0.08,0.02,0.01
2020-08-12 19:8:21.5440,-0.03,0.01,0.01
2020-08-12 19:8:21.6430,0.03,-0.06,0.02
2020-08-12 19:8:21.7430,0.15,-0.23,0.06
2020-08-12 19:8:21.8420,0.49,-0.51,0.16
2020-08-12 19:8:21.9410,0.28,-0.52,0.41
2020-08-12 19:8:22.0400,0.57,0.24,0.17
2020-08-12 19:8:22.1400,0.57,0.28,-0.21
2020-08-12 19:8:22.2390,-0.02,-0.03,0.09
2020-08-12 19:8:22.3380,-0.38,-0.5,-0.03
2020-08-12 19:8:22.4370,-1.07,-0.11,0.13
2020-08-12 19:8:22.5370,-0.67,-0.17,0.17
2020-08-12 19:8:22.6360,-0.26,-0.19,0.26
2020-08-12 19:8:22.7350,-0.34,-0.12,0.06
2020-08-12 19:8:22.8340,-0.14,-0.01,0.06
2020-08-12 19:8:22.9340,0.17,-0.08,-0.18
2020-08-12 19:8:23.0330,0.02,-0.02,0.01
2020-08-12 19:8:23.1320,-0.06,-0.06,-0.02
2020-08-12 19:8:23.2320,0.07,-0.09,0.09
2020-08-12 19:8:23.3310,0.29,-0.41,0.09
2020-08-12 19:8:23.4300,0.56,-0.49,0.23
2020-08-12 19:8:23.5290,0.25,-0.04,0.21
2020-08-12 19:8:23.6290,0.55,0.28,-0.23
2020-08-12 19:8:23.7280,0.1,0.14,-0.03
2020-08-12 19:8:23.8270,-0.14,-0.19,0.06
2020-08-12 19:8:23.9260,-1.25,-0.6,0.39
2020-08-12 19:8:24.0260,-0.95,-0.42,-0.27
2020-08-12 19:8:24.1250,-0.46,-0.0,0.35
2020-08-12 19:8:24.2240,-0.03,-0.0,0.05
2020-08-12 19:8:24.3230,-0.02,0.01,0.06
2020-08-12 19:8:24.4230,-0.06,0.03,-0.03
2020-08-12 19:8:24.5220,-0.05,-0.04,0.03
2020-08-12 19:8:24.6210,-0.05,-0.04,0.03
2020-08-12 19:8:24.7210,0.11,-0.08,0.04
2020-08-12 19:8:24.8200,0.16,-0.33,0.13
2020-08-12 19:8:24.9190,0.64,-0.47,0.1
2020-08-12 19:8:25.0180,0.61,-0.11,0.14
2020-08-12 19:8:25.1180,0.47,0.2,-0.11
2020-08-12 19:8:25.2170,0.29,0.32,-0.09
2020-08-12 19:8:25.3160,-0.07,-0.1,-0.12
2020-08-12 19:8:25.4160,-1.01,-0.84,0.26
2020-08-12 19:8:25.5150,-1.02,-0.31,-0.05
2020-08-12 19:8:25.6140,-0.65,-0.27,0.41
2020-08-12 19:8:25.7130,-0.36,-0.16,0.1
2020-08-12 19:8:25.8130,-0.09,-0.01,0.07
2020-08-12 19:8:25.9120,0.11,-0.02,-0.06
2020-08-12 19:8:26.0110,0.04,-0.0,-0.01
2020-08-12 19:8:26.1100,-0.05,0.01,0.02
2020-08-12 19:8:26.2100,-0.09,-0.08,0.0
2020-08-12 19:8:26.3090,0.15,-0.17,0.01
2020-08-12 19:8:26.4080,0.53,-0.49,0.09
2020-08-12 19:8:26.5080,0.45,-0.48,0.31
2020-08-12 19:8:26.6070,0.82,0.11,0.1
2020-08-12 19:8:26.7060,0.54,0.24,-0.14
2020-08-12 19:8:26.8050,0.08,0.1,0.03
2020-08-12 19:8:26.9050,-0.73,-0.55,0.2
2020-08-12 19:8:27.0040,-1.31,-0.1,0.05
2020-08-12 19:8:27.1030,0.53,-0.69,-0.59
2020-08-12 19:8:27.2020,-0.33,0.23,0.47
2020-08-12 19:8:27.3020,0.14,-0.01,-0.23
2020-08-12 19:8:27.4010,-0.22,0.04,0.16
2020-08-12 19:8:27.5000,-0.12,0.01,0.06
2020-08-12 19:8:27.5990,-0.06,-0.05,0.02
2020-08-12 19:8:27.6990,0.2,-0.01,0.01
2020-08-12 19:8:27.7980,0.08,-0.25,0.08
2020-08-12 19:8:27.8980,0.44,-0.53,0.09
2020-08-12 19:8:27.9970,0.66,-0.39,0.18
2020-08-12 19:8:28.0960,0.61,0.17,0.09
2020-08-12 19:8:28.1950,0.48,0.32,-0.22
2020-08-12 19:8:28.2940,0.04,-0.07,-0.12
2020-08-12 19:8:28.3940,-0.7,-0.6,0.12
2020-08-12 19:8:28.4930,-1.24,-0.14,0.1
2020-08-12 19:8:28.5920,-0.27,-0.01,-0.01
2020-08-12 19:8:28.6910,-0.04,-0.12,0.02
2020-08-12 19:8:28.7910,-0.19,-0.0,0.11
2020-08-12 19:8:28.8900,-0.05,-0.01,0.03
2020-08-12 19:8:28.9890,-0.06,0.02,-0.02
2020-08-12 19:8:29.0890,-0.07,-0.04,-0.03
2020-08-12 19:8:29.1880,0.06,-0.04,0.02
2020-08-12 19:8:29.2870,0.19,-0.21,0.07
2020-08-12 19:8:29.3860,0.52,-0.49,0.05
2020-08-12 19:8:29.4860,0.5,-0.36,0.32
2020-08-12 19:8:29.5850,0.7,0.27,0.08
2020-08-12 19:8:29.6840,0.51,0.23,-0.2
2020-08-12 19:8:29.7840,-0.16,-0.15,-0.13
2020-08-12 19:8:29.8830,-0.85,-0.57,0.15
2020-08-12 19:8:29.9820,-0.98,-0.14,0.12
2020-08-12 19:8:30.0810,0.62,-0.51,-0.62
2020-08-12 19:8:30.1810,-0.31,0.25,0.25
2020-08-12 19:8:30.2800,0.26,-0.04,-0.16
2020-08-12 19:8:30.3790,-0.13,0.02,-0.0
2020-08-12 19:8:30.4780,0.02,-0.01,-0.03
2020-08-12 19:8:30.5780,-0.1,0.02,-0.02
2020-08-12 19:8:30.6770,-0.01,-0.03,0.0
2020-08-12 19:8:30.7760,0.16,-0.07,0.08
2020-08-12 19:8:30.8750,0.22,-0.33,0.03
2020-08-12 19:8:30.9750,0.59,-0.34,0.18
2020-08-12 19:8:31.0740,0.52,-0.21,0.25
2020-08-12 19:8:31.1730,0.65,0.02,-0.1
2020-08-12 19:8:31.2730,0.52,0.28,-0.11
2020-08-12 19:8:31.3720,-0.02,0.06,-0.07
2020-08-12 19:8:31.4710,-0.78,-0.76,0.17
2020-08-12 19:8:31.5700,-1.33,-0.13,0.14
2020-08-12 19:8:31.6700,-0.57,-0.37,-0.56
2020-08-12 19:8:31.7690,-0.35,-0.13,0.27
2020-08-12 19:8:31.8680,0.11,0.02,-0.11
2020-08-12 19:8:31.9680,-0.15,0.02,0.09
2020-08-12 19:8:32.0670,0.01,-0.02,-0.06
2020-08-12 19:8:32.1660,0.02,-0.01,0.01
2020-08-12 19:8:32.2650,0.07,-0.06,0.04
2020-08-12 19:8:32.3650,0.05,-0.08,0.01
2020-08-12 19:8:32.4640,0.4,-0.35,0.11
2020-08-12 19:8:32.5630,0.3,-0.38,0.28
2020-08-12 19:8:32.6620,0.11,-0.04,0.19
2020-08-12 19:8:32.7620,0.5,0.39,-0.21
2020-08-12 19:8:32.8610,-0.02,0.13,0.01
2020-08-12 19:8:32.9600,-0.12,-0.27,-0.11
2020-08-12 19:8:33.0590,-1.26,-0.43,0.42
2020-08-12 19:8:33.1590,-0.93,-0.34,0.07
2020-08-12 19:8:33.2580,-0.23,-0.04,-0.23
2020-08-12 19:8:33.3570,-0.25,-0.13,0.2
2020-08-12 19:8:33.4560,-0.05,0.0,0.14
2020-08-12 19:8:33.5560,0.03,-0.04,-0.19
2020-08-12 19:8:33.6550,0.02,0.02,0.03
2020-08-12 19:8:33.7540,-0.14,-0.05,-0.05
2020-08-12 19:8:33.8540,0.07,-0.06,0.05
2020-08-12 19:8:33.9530,0.08,-0.12,0.05
2020-08-12 19:8:34.0520,0.36,-0.39,-0.0
2020-08-12 19:8:34.1520,0.28,-0.43,0.17
2020-08-12 19:8:34.2510,0.09,-0.01,0.14
2020-08-12 19:8:34.3500,0.47,0.37,-0.1
2020-08-12 19:8:34.4490,0.23,0.1,-0.07
2020-08-12 19:8:34.5490,-0.28,-0.55,-0.08
2020-08-12 19:8:34.6480,-1.19,-0.2,0.11
2020-08-12 19:8:34.7470,-0.25,-0.16,0.09
2020-08-12 19:8:34.8460,-0.43,-0.37,0.15
2020-08-12 19:8:34.9460,-0.35,-0.17,0.11
2020-08-12 19:8:35.0450,-0.07,0.02,0.04
2020-08-12 19:8:35.1440,0.03,-0.01,-0.04
2020-08-12 19:8:35.2430,-0.12,-0.03,0.01
2020-08-12 19:8:35.3430,0.02,-0.02,0.06
2020-08-12 19:8:35.4420,0.14,-0.07,0.04
2020-08-12 19:8:35.5410,0.07,-0.29,-0.06
2020-08-12 19:8:35.6410,0.5,-0.49,0.13
2020-08-12 19:8:35.7400,0.4,-0.3,0.33
2020-08-12 19:8:35.8390,0.59,0.21,-0.11
2020-08-12 19:8:35.9380,0.47,0.17,-0.11
2020-08-12 19:8:36.0380,-0.13,-0.03,0.03
2020-08-12 19:8:36.1370,-0.78,-0.53,0.14
2020-08-12 19:8:36.2360,-1.01,-0.1,-0.01
2020-08-12 19:8:36.3350,0.68,-0.28,-0.07
2020-08-12 19:8:36.4350,-0.24,0.01,-0.13
2020-08-12 19:8:36.5340,-0.05,-0.0,-0.02
2020-08-12 19:8:36.6330,-0.24,0.01,0.22
2020-08-12 19:8:36.7330,0.02,-0.07,-0.12
2020-08-12 19:8:36.8320,-0.02,0.01,-0.02
2020-08-12 19:8:36.9310,-0.02,-0.03,-0.02
2020-08-12 19:8:37.0300,0.05,-0.06,0.02
2020-08-12 19:8:37.1290,0.06,-0.22,0.01
2020-08-12 19:8:37.2290,0.57,-0.55,0.07
2020-08-12 19:8:37.3280,0.5,-0.41,0.24
2020-08-12 19:8:37.4270,0.6,0.19,0.1
2020-08-12 19:8:37.5270,0.35,0.26,-0.15
2020-08-12 19:8:37.6260,0.08,0.09,-0.08
2020-08-12 19:8:37.7250,-0.45,-0.45,0.06
2020-08-12 19:8:37.8250,-1.0,-0.03,0.33
2020-08-12 19:8:37.9240,1.79,-0.5,-0.6
2020-08-12 19:8:38.0230,-0.4,0.12,0.26
2020-08-12 19:8:38.1220,0.0,-0.1,-0.18
2020-08-12 19:8:38.2220,-0.34,0.02,0.2
2020-08-12 19:8:38.3210,0.0,0.03,-0.06
2020-08-12 19:8:38.4200,0.04,-0.01,-0.04
2020-08-12 19:8:38.5200,0.06,-0.03,-0.08
2020-08-12 19:8:38.6190,0.0,-0.11,0.05
2020-08-12 19:8:38.7180,0.26,-0.34,0.08
2020-08-12 19:8:38.8170,0.55,-0.42,0.03
2020-08-12 19:8:38.9170,0.24,-0.17,0.22
2020-08-12 19:8:39.0160,0.44,0.25,-0.17
2020-08-12 19:8:39.1150,0.29,0.24,-0.08
2020-08-12 19:8:39.2140,-0.09,-0.13,-0.07
2020-08-12 19:8:39.3140,-0.97,-0.65,0.18
2020-08-12 19:8:39.4130,-1.08,-0.18,0.23
2020-08-12 19:8:39.5120,-0.73,-0.18,-0.06
2020-08-12 19:8:39.6110,-0.1,0.16,0.27
2020-08-12 19:8:39.7110,-0.06,0.0,0.02
2020-08-12 19:8:39.8100,-0.01,-0.03,-0.03
2020-08-12 19:8:39.9090,0.05,-0.01,-0.02
2020-08-12 19:8:40.0080,-0.11,-0.02,-0.01
2020-08-12 19:8:40.1080,0.08,-0.06,-0.0
2020-08-12 19:8:40.2070,0.07,-0.16,0.03
2020-08-12 19:8:40.3060,0.34,-0.36,0.09
2020-08-12 19:8:40.4050,0.34,-0.41,0.2
2020-08-12 19:8:40.5050,-0.0,0.0,0.2
2020-08-12 19:8:40.6040,0.6,0.3,-0.2
2020-08-12 19:8:40.7030,0.03,0.02,-0.04
2020-08-12 19:8:40.8030,-0.12,-0.3,-0.09
2020-08-12 19:8:40.9020,-0.96,-0.43,0.16
2020-08-12 19:8:41.0010,-0.95,-0.13,0.13
2020-08-12 19:8:41.1010,-0.23,-0.44,-0.48
2020-08-12 19:8:41.2000,-0.41,0.17,0.32
2020-08-12 19:8:41.2990,0.16,-0.01,-0.13
2020-08-12 19:8:41.3980,-0.04,-0.04,0.01
2020-08-12 19:8:41.4980,-0.01,-0.01,0.03
2020-08-12 19:8:41.5970,-0.06,0.07,0.01
2020-08-12 19:8:41.6960,0.01,0.01,0.02
2020-08-12 19:8:41.7950,0.1,-0.05,-0.02
2020-08-12 19:8:41.8950,-0.05,-0.13,0.0
2020-08-12 19:8:41.9940,0.36,-0.45,0.09
2020-08-12 19:8:42.0930,0.28,-0.55,0.18
2020-08-12 19:8:42.1920,0.12,-0.01,0.21
2020-08-12 19:8:42.2920,0.49,0.18,-0.25
2020-08-12 19:8:42.3910,0.01,0.16,0.08
2020-08-12 19:8:42.4900,-0.5,-0.33,0.19
2020-08-12 19:8:42.5900,-0.83,-0.22,0.16
2020-08-12 19:8:42.6890,-0.8,-0.13,-0.06
2020-08-12 19:8:42.7880,-0.53,-0.63,-0.24
2020-08-12 19:8:42.8870,-0.47,0.15,0.3
2020-08-12 19:8:42.9870,0.09,0.07,-0.13
2020-08-12 19:8:43.0860,-0.12,0.01,0.04
2020-08-12 19:8:43.1850,-0.03,0.02,-0.01
2020-08-12 19:8:43.2850,-0.12,-0.08,-0.08
2020-08-12 19:8:43.3840,0.03,-0.07,-0.0
2020-08-12 19:8:43.4830,0.05,-0.11,0.05
2020-08-12 19:8:43.5820,0.28,-0.31,0.02
2020-08-12 19:8:43.6810,0.39,-0.46,0.15
2020-08-12 19:8:43.7810,0.16,-0.0,0.23
2020-08-12 19:8:43.8800,0.46,0.31,-0.1
2020-08-12 19:8:43.9790,0.29,0.16,-0.09
2020-08-12 19:8:44.0790,-0.08,-0.2,0.02
2020-08-12 19:8:44.1780,-1.09,-0.55,0.16
2020-08-12 19:8:44.2770,-0.87,-0.23,-0.02
2020-08-12 19:8:44.3760,-0.55,-0.21,-0.05
2020-08-12 19:8:44.4760,-0.22,-0.11,0.28
2020-08-12 19:8:44.5750,0.11,0.03,-0.0
2020-08-12 19:8:44.6740,-0.09,-0.02,0.02
2020-08-12 19:8:44.7740,-0.05,0.0,-0.02
2020-08-12 19:8:44.8730,0.03,-0.05,-0.06
2020-08-12 19:8:44.9720,-0.12,-0.06,0.05
2020-08-12 19:8:45.0710,0.06,-0.19,0.07
2020-08-12 19:8:45.1710,0.51,-0.5,0.02
2020-08-12 19:8:45.2700,0.36,-0.5,0.36
2020-08-12 19:8:45.3690,0.4,0.0,0.16
2020-08-12 19:8:45.4680,0.39,0.35,-0.08
2020-08-12 19:8:45.5680,0.1,0.07,-0.12
2020-08-12 19:8:45.6670,-0.58,-0.54,0.17
2020-08-12 19:8:45.7660,-1.07,-0.09,0.13
2020-08-12 19:8:45.8660,1.13,-0.31,-0.45
2020-08-12 19:8:45.9650,-0.39,0.13,0.14
2020-08-12 19:8:46.0640,-0.01,-0.05,-0.25
2020-08-12 19:8:46.1630,-0.16,0.03,0.15
2020-08-12 19:8:46.2630,-0.13,0.01,0.02
2020-08-12 19:8:46.3620,-0.0,-0.03,-0.01
2020-08-12 19:8:46.4610,0.15,-0.02,0.01
2020-08-12 19:8:46.5600,0.04,-0.17,0.1
2020-08-12 19:8:46.6600,0.4,-0.41,0.02
2020-08-12 19:8:46.7590,0.29,-0.36,0.24
2020-08-12 19:8:46.8580,-0.01,0.05,0.24
2020-08-12 19:8:46.9570,0.57,0.34,-0.19
2020-08-12 19:8:47.0570,0.11,0.05,-0.07
2020-08-12 19:8:47.1560,-0.2,-0.31,-0.02
2020-08-12 19:8:47.2550,-1.14,-0.35,0.39
2020-08-12 19:8:47.3540,-0.81,-0.33,-0.14
2020-08-12 19:8:47.4540,-0.32,-0.32,0.32
2020-08-12 19:8:47.5530,-0.34,-0.06,0.13
2020-08-12 19:8:47.6520,-0.05,0.03,-0.01
2020-08-12 19:8:47.7520,-0.04,-0.01,0.05
2020-08-12 19:8:47.8510,0.03,0.01,-0.01
2020-08-12 19:8:47.9500,-0.1,0.0,-0.01
2020-08-12 19:8:48.0490,-0.02,-0.01,-0.01
2020-08-12 19:8:48.1490,-0.03,-0.03,0.02
2020-08-12 19:8:48.2480,0.1,-0.21,0.06
2020-08-12 19:8:48.3470,0.25,-0.31,0.07
2020-08-12 19:8:48.4470,0.35,-0.32,0.19
2020-08-12 19:8:48.5460,0.2,0.05,0.22
2020-08-12 19:8:48.6450,0.39,0.35,-0.16
2020-08-12 19:8:48.7440,0.21,0.12,-0.04
2020-08-12 19:8:48.8440,-0.18,-0.19,-0.03
2020-08-12 19:8:48.9430,-0.92,-0.47,0.05
2020-08-12 19:8:49.0420,-0.94,-0.42,0.1
2020-08-12 19:8:49.1420,-0.15,-0.04,-0.03
2020-08-12 19:8:49.2410,-0.22,-0.42,0.13
2020-08-12 19:8:49.3400,-0.12,-0.02,0.07
2020-08-12 19:8:49.4390,-0.01,-0.02,-0.11
2020-08-12 19:8:49.5390,-0.12,0.0,-0.02
2020-08-12 19:8:49.6380,-0.07,-0.01,0.04
2020-08-12 19:8:49.7370,0.09,0.03,0.05
2020-08-12 19:8:49.8360,0.15,-0.25,0.11
2020-08-12 19:8:49.9360,0.5,-0.58,0.08
2020-08-12 19:8:50.0350,0.41,-0.38,0.29
2020-08-12 19:8:50.1340,0.75,0.25,0.15
2020-08-12 19:8:50.2330,0.66,0.25,-0.22
2020-08-12 19:8:50.3330,-0.12,-0.21,0.02
2020-08-12 19:8:50.4320,-1.07,-0.5,0.28
2020-08-12 19:8:50.5310,-1.0,-0.07,-0.05
2020-08-12 19:8:50.6310,0.21,-0.6,-0.17
2020-08-12 19:8:50.7300,-0.4,0.16,0.26
2020-08-12 19:8:50.8290,0.14,0.05,-0.15
2020-08-12 19:8:50.9280,-0.1,-0.02,0.0
2020-08-12 19:8:51.0280,-0.09,0.01,0.0
2020-08-12 19:8:51.1270,-0.04,0.0,-0.0
2020-08-12 19:8:51.2260,0.08,-0.03,0.0
2020-08-12 19:8:51.3250,0.05,-0.17,-0.02
2020-08-12 19:8:51.4250,0.26,-0.33,0.12
2020-08-12 19:8:51.5240,0.4,-0.37,0.26
2020-08-12 19:8:51.6230,0.13,0.04,0.22
2020-08-12 19:8:51.7220,0.61,0.31,-0.25
2020-08-12 19:8:51.8220,0.04,0.01,-0.02
2020-08-12 19:8:51.9210,-0.1,-0.24,-0.1
2020-08-12 19:8:52.0200,-1.22,-0.31,0.51
2020-08-12 19:8:52.1200,-0.44,-0.61,-0.05
2020-08-12 19:8:52.2190,-0.37,0.48,-0.0
2020-08-12 19:8:52.3180,0.34,-0.06,-0.24
2020-08-12 19:8:52.4170,-0.09,-0.02,0.12
2020-08-12 19:8:52.5170,-0.17,0.01,-0.02
2020-08-12 19:8:52.6160,-0.01,-0.02,0.01
2020-08-12 19:8:52.7150,-0.07,-0.05,0.02
2020-08-12 19:8:52.8150,0.21,-0.03,-0.01
2020-08-12 19:8:52.9140,0.23,-0.29,0.1
2020-08-12 19:8:53.0130,0.53,-0.43,-0.03
2020-08-12 19:8:53.1120,0.34,-0.04,0.21
2020-08-12 19:8:53.2120,0.55,0.27,-0.22
2020-08-12 19:8:53.3110,0.16,0.04,-0.04
2020-08-12 19:8:53.4100,0.02,-0.11,-0.2
2020-08-12 19:8:53.5090,-1.05,-0.67,0.15
2020-08-12 19:8:53.6090,-0.96,-0.04,0.18
2020-08-12 19:8:53.7080,-0.49,-0.62,0.17
2020-08-12 19:8:53.8070,-0.35,-0.02,0.16
2020-08-12 19:8:53.9060,0.05,0.01,-0.03
2020-08-12 19:8:54.0060,0.06,-0.03,-0.07
2020-08-12 19:8:54.1050,-0.04,-0.02,-0.07
2020-08-12 19:8:54.2040,-0.05,-0.01,-0.0
2020-08-12 19:8:54.3040,0.01,-0.04,0.02
2020-08-12 19:8:54.4030,-0.02,-0.12,0.04
2020-08-12 19:8:54.5020,0.33,-0.45,0.07
2020-08-12 19:8:54.6010,0.31,-0.44,0.01
2020-08-12 19:8:54.7010,0.31,0.03,0.37
2020-08-12 19:8:54.8000,0.63,0.24,-0.21
2020-08-12 19:8:54.8990,0.11,-0.01,0.06
2020-08-12 19:8:54.9980,-0.36,-0.34,0.12
2020-08-12 19:8:55.0980,-1.05,-0.17,0.14
2020-08-12 19:8:55.1970,-0.65,-0.14,-0.29
2020-08-12 19:8:55.2960,-0.54,-0.48,0.22
2020-08-12 19:8:55.3960,-0.3,0.14,0.22
2020-08-12 19:8:55.4950,0.08,-0.02,-0.09
2020-08-12 19:8:55.5940,-0.08,-0.01,-0.04
2020-08-12 19:8:55.6930,-0.01,0.0,-0.03
2020-08-12 19:8:55.7930,0.0,-0.01,-0.04
2020-08-12 19:8:55.8920,-0.02,-0.02,-0.04
2020-08-12 19:8:55.9910,-0.06,-0.01,0.01
2020-08-12 19:8:56.0900,0.03,-0.05,0.02
2020-08-12 19:8:56.1900,0.27,-0.31,0.04
2020-08-12 19:8:56.2890,0.11,-0.04,0.04
2020-08-12 19:8:56.3880,0.16,-0.13,0.18
2020-08-12 19:8:56.4880,0.29,0.17,-0.16
2020-08-12 19:8:56.5870,0.1,0.13,-0.06
2020-08-12 19:8:56.6860,0.07,0.2,-0.15
2020-08-12 19:8:56.7850,-0.7,-0.06,0.24
2020-08-12 19:8:56.8850,-0.83,-0.08,0.19
2020-08-12 19:8:56.9840,0.26,-0.28,-0.27
2020-08-12 19:8:57.0830,-0.13,0.03,0.28
2020-08-12 19:8:57.1820,-0.17,0.0,0.14
2020-08-12 19:8:57.2820,-0.03,-0.01,-0.06
2020-08-12 19:8:57.3810,0.12,-0.04,-0.03
2020-08-12 19:8:57.4800,-0.07,-0.02,0.04
2020-08-12 19:8:57.5800,-0.14,-0.01,-0.01
2020-08-12 19:8:57.6790,-0.06,0.06,0.01
2020-08-12 19:8:57.7780,-0.04,-0.0,0.0
2020-08-12 19:8:57.8770,0.05,0.03,-0.02
2020-08-12 19:8:57.9770,-0.12,-0.01,-0.05
2020-08-12 19:8:58.0760,0.02,0.01,-0.03
2020-08-12 19:8:58.1750,-0.03,-0.01,-0.02
2020-08-12 19:8:58.2740,-0.08,0.01,0.0
2020-08-12 19:8:58.3740,-0.02,-0.0,-0.04
2020-08-12 19:8:58.4730,-0.05,0.02,-0.05
2020-08-12 19:8:58.5720,-0.04,-0.01,-0.0
2020-08-12 19:8:58.6720,-0.0,0.0,-0.01
2020-08-12 19:8:58.7710,-0.05,-0.0,0.01
2020-08-12 19:8:58.8700,-0.01,0.01,-0.0
2020-08-12 19:8:58.9690,-0.03,0.0,-0.02
2020-08-12 19:8:59.0690,-0.02,0.0,-0.01
2020-08-12 19:8:59.1680,-0.05,0.03,-0.04
2020-08-12 19:8:59.2670,-0.01,0.02,-0.01
2020-08-12 19:8:59.3670,-0.01,-0.02,0.01
