time,ax,ay,az
2020-08-12 20:10:10.6030,0.02,-0.02,0.04
2020-08-12 20:10:10.7030,-0.01,-0.02,-0.01
2020-08-12 20:10:10.8020,0.0,-0.01,-0.01
2020-08-12 20:10:10.9010,-0.0,-0.0,0.01
2020-08-12 20:10:11.0010,0.0,0.0,-0.01
2020-08-12 20:10:11.0990,-0.0,-0.01,0.0
2020-08-12 20:10:11.1990,0.0,-0.01,0.0
2020-08-12 20:10:11.2990,0.0,-0.0,0.0
2020-08-12 20:10:11.3970,-0.0,0.0,0.0
2020-08-12 20:10:11.4970,-0.0,0.0,-0.0
2020-08-12 20:10:11.5970,0.02,-0.01,0.0
2020-08-12 20:10:11.6960,-0.01,-0.01,0.0
2020-08-12 20:10:11.7940,-0.01,0.0,0.01
2020-08-12 20:10:11.8940,-0.02,0.02,0.01
2020-08-12 20:10:11.9930,-0.0,0.01,0.01
2020-08-12 20:10:12.0920,0.02,-0.01,-0.01
2020-08-12 20:10:12.1920,0.02,-0.0,-0.0
2020-08-12 20:10:12.2910,-0.0,0.02,0.04
2020-08-12 20:10:12.3900,-0.05,-0.0,-0.03
2020-08-12 20:10:12.4900,0.05,0.01,-0.01
2020-08-12 20:10:12.5880,0.12,-0.03,-0.04
2020-08-12 20:10:12.6880,0.01,-0.01,-0.04
2020-08-12 20:10:12.7880,-0.02,0.01,-0.0
2020-08-12 20:10:12.8870,0.01,0.01,-0.0
2020-08-12 20:10:12.9860,0.05,-0.01,-0.02
2020-08-12 20:10:13.0850,-0.02,0.01,-0.01
2020-08-12 20:10:13.1850,-0.03,-0.01,0.02
2020-08-12 20:10:13.2840,-0.02,-0.01,0.01
2020-08-12 20:10:13.3830,0.03,0.0,0.02
2020-08-12 20:10:13.4830,-0.05,0.04,-0.06
2020-08-12 20:10:13.5820,-0.01,-0.01,-0.04
2020-08-12 20:10:13.6810,0.02,0.01,0.08
2020-08-12 20:10:13.7800,0.02,-0.03,-0.01
2020-08-12 20:10:13.8790,0.02,-0.03,0.02
2020-08-12 20:10:13.9780,0.19,-0.1,0.02
2020-08-12 20:10:14.0780,0.71,-0.95,-0.03
2020-08-12 20:10:14.1780,0.09,0.13,0.02
2020-08-12 20:10:14.2760,0.64,0.76,-0.29
2020-08-12 20:10:14.3760,0.02,0.35,-0.17
2020-08-12 20:10:14.4750,-0.3,0.06,-0.02
2020-08-12 20:10:14.5740,-0.21,-0.03,0.02
2020-08-12 20:10:14.6730,-0.26,-0.08,0.06
2020-08-12 20:10:14.7730,0.85,-0.3,0.65
2020-08-12 20:10:14.8720,0.43,-0.16,-0.15
2020-08-12 20:10:14.9710,0.21,-0.16,-0.24
2020-08-12 20:10:15.0700,-0.03,-0.03,-0.0
2020-08-12 20:10:15.1700,0.02,0.02,0.05
2020-08-12 20:10:15.2690,-0.01,-0.03,-0.01
2020-08-12 20:10:15.3690,0.0,-0.01,0.02
2020-08-12 20:10:15.4680,0.01,0.01,-0.0
2020-08-12 20:10:15.5670,-0.03,-0.0,0.01
2020-08-12 20:10:15.6660,0.06,-0.09,0.06
2020-08-12 20:10:15.7650,-0.07,-0.4,-0.05
2020-08-12 20:10:15.8650,0.26,-0.42,0.22
2020-08-12 20:10:15.9640,0.38,-0.31,-0.0
2020-08-12 20:10:16.0640,0.46,0.0,-0.08
2020-08-12 20:10:16.1620,0.13,0.16,-0.04
2020-08-12 20:10:16.2620,0.18,0.49,-0.29
2020-08-12 20:10:16.3610,-0.2,0.35,-0.12
2020-08-12 20:10:16.4600,-0.3,0.01,0.14
2020-08-12 20:10:16.5600,-0.34,-0.17,0.11
2020-08-12 20:10:16.6590,-0.54,-0.15,0.16
2020-08-12 20:10:16.7580,-0.63,0.13,-0.09
2020-08-12 20:10:16.8570,0.19,-0.02,-0.15
2020-08-12 20:10:16.9570,-0.0,-0.01,0.03
2020-08-12 20:10:17.0560,0.0,0.0,-0.0
2020-08-12 20:10:17.1550,-0.0,-0.0,0.02
2020-08-12 20:10:17.2540,-0.01,-0.02,0.02
2020-08-12 20:10:17.3540,0.02,0.01,-0.01
2020-08-12 20:10:17.4530,-0.0,-0.01,-0.02
2020-08-12 20:10:17.5530,0.02,-0.03,-0.02
2020-08-12 20:10:17.6520,0.04,-0.1,0.0
2020-08-12 20:10:17.7500,0.51,-0.7,0.04
2020-08-12 20:10:17.8510,0.01,-0.24,0.28
2020-08-12 20:10:17.9500,0.57,0.1,-0.11
2020-08-12 20:10:18.0490,0.08,-0.07,-0.01
2020-08-12 20:10:18.1480,-0.11,0.06,-0.02
2020-08-12 20:10:18.2470,-0.01,0.46,-0.09
2020-08-12 20:10:18.3460,0.03,0.41,-0.06
2020-08-12 20:10:18.4460,-0.06,0.19,0.01
2020-08-12 20:10:18.5450,-0.12,-0.14,-0.04
2020-08-12 20:10:18.6450,-0.48,-0.16,0.1
2020-08-12 20:10:18.7440,0.53,-2.24,-0.4
2020-08-12 20:10:18.8430,-0.28,0.14,0.31
2020-08-12 20:10:18.9420,-0.07,0.05,0.05
2020-08-12 20:10:19.0410,-0.25,-0.12,-0.13
2020-08-12 20:10:19.1410,0.01,-0.01,0.02
2020-08-12 20:10:19.2400,0.01,0.0,0.04
2020-08-12 20:10:19.3390,-0.03,0.0,0.01
2020-08-12 20:10:19.4390,0.01,-0.0,-0.02
2020-08-12 20:10:19.5380,0.06,-0.03,0.03
2020-08-12 20:10:19.6370,0.12,-0.24,0.03
2020-08-12 20:10:19.7370,0.71,-0.54,-0.11
2020-08-12 20:10:19.8360,0.13,-0.39,0.2
2020-08-12 20:10:19.9350,0.47,0.16,0.0
2020-08-12 20:10:20.0340,0.51,0.51,-0.25
2020-08-12 20:10:20.1330,0.18,0.39,-0.16
2020-08-12 20:10:20.2320,-0.2,-0.21,-0.18
2020-08-12 20:10:20.3320,-0.62,-0.33,0.29
2020-08-12 20:10:20.4310,-0.56,-0.0,0.18
2020-08-12 20:10:20.5310,0.23,-1.86,0.22
2020-08-12 20:10:20.6300,0.0,-0.11,0.28
2020-08-12 20:10:20.7290,-0.09,0.03,-0.13
2020-08-12 20:10:20.8280,-0.02,-0.05,0.01
2020-08-12 20:10:20.9270,0.03,-0.01,0.01
2020-08-12 20:10:21.0270,-0.01,0.0,0.01
2020-08-12 20:10:21.1260,0.01,-0.02,-0.04
2020-08-12 20:10:21.2250,0.02,-0.01,0.02
2020-08-12 20:10:21.3250,0.08,-0.09,0.02
2020-08-12 20:10:21.4240,0.23,-0.43,-0.02
2020-08-12 20:10:21.5230,0.56,-0.5,0.17
2020-08-12 20:10:21.6220,-0.05,-0.19,0.13
2020-08-12 20:10:21.7210,0.19,0.03,0.03
2020-08-12 20:10:21.8210,0.36,0.45,-0.27
2020-08-12 20:10:21.9200,0.1,0.41,-0.19
2020-08-12 20:10:22.0190,-0.04,0.24,-0.26
2020-08-12 20:10:22.1190,-0.58,-0.13,0.23
2020-08-12 20:10:22.2180,-0.63,-0.21,0.22
2020-08-12 20:10:22.3180,-0.19,-1.69,-0.25
2020-08-12 20:10:22.4160,-0.0,0.09,0.36
2020-08-12 20:10:22.5160,-0.1,-0.02,0.06
2020-08-12 20:10:22.6150,-0.07,-0.04,-0.01
2020-08-12 20:10:22.7150,-0.03,-0.0,0.01
2020-08-12 20:10:22.8130,-0.0,0.01,0.03
2020-08-12 20:10:22.9130,-0.0,0.0,-0.01
2020-08-12 20:10:23.0120,0.03,0.01,-0.01
2020-08-12 20:10:23.1110,0.12,-0.09,-0.03
2020-08-12 20:10:23.2100,0.38,-0.47,0.01
2020-08-12 20:10:23.3100,0.35,-0.67,0.09
2020-08-12 20:10:23.4090,0.47,-0.13,0.03
2020-08-12 20:10:23.5090,0.28,0.1,-0.04
2020-08-12 20:10:23.6080,0.18,0.53,-0.13
2020-08-12 20:10:23.7070,0.14,0.77,-0.37
2020-08-12 20:10:23.8060,-0.29,-0.01,-0.02
2020-08-12 20:10:23.9060,-0.5,-0.38,0.35
2020-08-12 20:10:24.0050,1.53,-0.78,0.68
2020-08-12 20:10:24.1040,0.12,-0.04,0.46
2020-08-12 20:10:24.2040,-0.08,-0.0,-0.05
2020-08-12 20:10:24.3030,-0.1,0.0,0.01
2020-08-12 20:10:24.4020,-0.05,-0.01,-0.01
2020-08-12 20:10:24.5010,0.04,-0.01,0.01
2020-08-12 20:10:24.6000,-0.04,0.0,0.01
2020-08-12 20:10:24.6990,-0.01,-0.0,-0.01
2020-08-12 20:10:24.7990,0.02,-0.03,0.01
2020-08-12 20:10:24.8980,0.09,-0.16,-0.05
2020-08-12 20:10:24.9980,0.53,-0.85,-0.02
2020-08-12 20:10:25.0970,0.16,-0.01,0.1
2020-08-12 20:10:25.1960,0.33,0.24,-0.03
2020-08-12 20:10:25.2950,0.23,0.18,-0.08
2020-08-12 20:10:25.3950,-0.03,0.03,-0.09
2020-08-12 20:10:25.4940,-0.1,0.33,-0.23
2020-08-12 20:10:25.5930,-0.22,0.51,-0.02
2020-08-12 20:10:25.6920,-0.64,-0.29,0.22
2020-08-12 20:10:25.7910,2.57,-0.95,0.47
2020-08-12 20:10:25.8910,0.4,0.03,0.28
2020-08-12 20:10:25.9900,0.02,-0.07,-0.1
2020-08-12 20:10:26.0900,0.0,0.02,0.0
2020-08-12 20:10:26.1880,-0.02,0.02,0.01
2020-08-12 20:10:26.2880,-0.02,-0.02,0.0
2020-08-12 20:10:26.3880,-0.03,0.01,-0.01
2020-08-12 20:10:26.4860,-0.01,-0.01,-0.0
2020-08-12 20:10:26.5860,0.03,-0.04,-0.01
2020-08-12 20:10:26.6850,0.11,-0.19,-0.05
2020-08-12 20:10:26.7840,0.62,-0.72,-0.06
2020-08-12 20:10:26.8830,-0.01,-0.13,0.16
2020-08-12 20:10:26.9830,0.26,0.01,0.1
2020-08-12 20:10:27.0820,0.37,0.12,-0.16
2020-08-12 20:10:27.1810,0.34,0.43,-0.28
2020-08-12 20:10:27.2810,0.16,0.47,-0.33
2020-08-12 20:10:27.3800,-0.54,-0.26,0.21
2020-08-12 20:10:27.4790,-0.86,-0.58,0.21
2020-08-12 20:10:27.5780,-1.06,-0.52,-0.7
2020-08-12 20:10:27.6770,-0.28,0.17,0.06
2020-08-12 20:10:27.7770,-0.18,0.02,0.09
2020-08-12 20:10:27.8760,-0.06,-0.04,0.04
2020-08-12 20:10:27.9750,0.01,-0.0,0.03
2020-08-12 20:10:28.0740,0.02,0.01,0.03
2020-08-12 20:10:28.1740,0.08,-0.03,0.01
2020-08-12 20:10:28.2730,0.04,-0.04,0.04
2020-08-12 20:10:28.3720,0.08,-0.08,-0.0
2020-08-12 20:10:28.4720,0.18,-0.19,-0.01
2020-08-12 20:10:28.5710,0.56,-0.8,-0.03
2020-08-12 20:10:28.6710,-0.04,-0.19,0.22
2020-08-12 20:10:28.7690,0.22,0.15,0.05
2020-08-12 20:10:28.8690,0.35,0.29,-0.17
2020-08-12 20:10:28.9680,0.23,0.37,-0.07
2020-08-12 20:10:29.0670,0.2,0.25,-0.29
2020-08-12 20:10:29.1670,-0.33,-0.27,0.09
2020-08-12 20:10:29.2660,-0.62,-0.28,0.16
2020-08-12 20:10:29.3650,-0.35,-0.23,-0.18
2020-08-12 20:10:29.4640,-0.12,-0.07,-0.19
2020-08-12 20:10:29.5630,-0.22,-0.04,-0.09
2020-08-12 20:10:29.6630,-0.1,-0.03,0.02
2020-08-12 20:10:29.7620,-0.02,0.01,0.01
2020-08-12 20:10:29.8610,-0.09,-0.04,-0.02
2020-08-12 20:10:29.9600,0.01,0.05,0.04
2020-08-12 20:10:30.0600,0.05,-0.02,-0.0
2020-08-12 20:10:30.1590,0.05,0.02,-0.05
2020-08-12 20:10:30.2580,0.07,-0.09,0.07
2020-08-12 20:10:30.3580,0.16,-0.47,-0.03
2020-08-12 20:10:30.4570,0.44,-0.41,0.2
2020-08-12 20:10:30.5560,0.05,-0.34,0.11
2020-08-12 20:10:30.6560,0.32,0.19,-0.05
2020-08-12 20:10:30.7550,0.28,0.42,-0.21
2020-08-12 20:10:30.8540,0.47,0.73,-0.41
2020-08-12 20:10:30.9530,-0.13,-0.04,-0.27
2020-08-12 20:10:31.0530,-0.62,-0.46,0.46
2020-08-12 20:10:31.1520,-0.85,-0.45,0.11
2020-08-12 20:10:31.2510,-0.33,-0.11,-0.53
2020-08-12 20:10:31.3510,-0.17,0.02,-0.02
2020-08-12 20:10:31.4500,-0.04,-0.04,0.03
2020-08-12 20:10:31.5490,-0.03,-0.01,0.01
2020-08-12 20:10:31.6480,-0.02,0.01,-0.02
2020-08-12 20:10:31.7470,-0.0,-0.0,-0.01
2020-08-12 20:10:31.8470,-0.03,-0.01,0.01
2020-08-12 20:10:31.9460,-0.0,-0.01,-0.02
2020-08-12 20:10:32.0450,0.04,-0.02,-0.02
2020-08-12 20:10:32.1440,0.13,-0.18,0.02
2020-08-12 20:10:32.2440,0.63,-0.74,-0.01
2020-08-12 20:10:32.3430,0.1,-0.19,0.17
2020-08-12 20:10:32.4420,0.3,0.23,0.02
2020-08-12 20:10:32.5410,0.37,0.39,-0.18
2020-08-12 20:10:32.6410,0.13,0.29,-0.11
2020-08-12 20:10:32.7400,-0.2,0.16,-0.24
2020-08-12 20:10:32.8400,-0.4,0.05,0.02
2020-08-12 20:10:32.9390,-0.94,-0.36,0.3
2020-08-12 20:10:33.0380,-0.73,0.09,0.39
2020-08-12 20:10:33.1370,-0.22,0.07,0.06
2020-08-12 20:10:33.2370,-0.08,0.02,0.02
2020-08-12 20:10:33.3360,-0.07,-0.01,0.04
2020-08-12 20:10:33.4350,-0.01,0.0,0.04
2020-08-12 20:10:33.5340,-0.05,-0.01,0.03
2020-08-12 20:10:33.6340,-0.0,0.01,0.0
2020-08-12 20:10:33.7330,0.02,-0.0,0.02
2020-08-12 20:10:33.8320,0.02,-0.01,0.0
2020-08-12 20:10:33.9310,0.03,-0.07,-0.0
2020-08-12 20:10:34.0300,0.24,-0.47,0.03
2020-08-12 20:10:34.1300,0.68,-0.57,0.13
2020-08-12 20:10:34.2290,0.23,-0.24,0.09
2020-08-12 20:10:34.3280,0.39,0.28,-0.1
2020-08-12 20:10:34.4280,0.55,0.55,-0.26
2020-08-12 20:10:34.5270,0.29,0.58,-0.22
2020-08-12 20:10:34.6260,-0.64,0.0,0.2
2020-08-12 20:10:34.7250,-0.81,-0.68,0.47
2020-08-12 20:10:34.8250,0.33,-0.3,-0.54
2020-08-12 20:10:34.9240,-0.48,0.18,0.34
2020-08-12 20:10:35.0230,-0.24,-0.09,-0.07
2020-08-12 20:10:35.1230,-0.11,-0.01,0.02
2020-08-12 20:10:35.2220,-0.06,-0.0,0.02
2020-08-12 20:10:35.3210,-0.07,0.01,0.01
2020-08-12 20:10:35.4200,-0.08,-0.03,-0.01
2020-08-12 20:10:35.5190,-0.05,-0.02,0.01
2020-08-12 20:10:35.6190,-0.06,-0.01,0.0
2020-08-12 20:10:35.7180,-0.06,-0.02,0.01
2020-08-12 20:10:35.8170,0.05,-0.08,-0.03
2020-08-12 20:10:35.9170,0.14,-0.29,0.02
2020-08-12 20:10:36.0160,0.42,-0.4,-0.02
2020-08-12 20:10:36.1150,0.09,-0.3,0.2
2020-08-12 20:10:36.2140,0.33,-0.13,0.01
2020-08-12 20:10:36.3140,0.09,0.12,-0.04
2020-08-12 20:10:36.4130,0.74,0.85,-0.45
2020-08-12 20:10:36.5120,0.32,0.69,-0.4
2020-08-12 20:10:36.6120,-0.53,-0.65,0.04
2020-08-12 20:10:36.7110,-1.08,-0.69,0.17
2020-08-12 20:10:36.8100,-0.16,-0.23,0.35
2020-08-12 20:10:36.9090,-0.09,0.03,0.11
2020-08-12 20:10:37.0090,-0.12,-0.02,0.05
2020-08-12 20:10:37.1080,-0.13,-0.01,0.0
2020-08-12 20:10:37.2070,-0.04,-0.01,0.0
2020-08-12 20:10:37.3060,-0.04,0.0,-0.01
2020-08-12 20:10:37.4060,0.01,-0.01,-0.01
2020-08-12 20:10:37.5050,-0.12,-0.03,-0.0
2020-08-12 20:10:37.6040,-0.06,-0.03,0.01
2020-08-12 20:10:37.7030,-0.06,-0.02,0.03
2020-08-12 20:10:37.8030,-0.03,-0.05,-0.02
2020-08-12 20:10:37.9020,0.13,-0.28,0.04
2020-08-12 20:10:38.0010,0.41,-0.49,0.02
2020-08-12 20:10:38.1010,-0.06,-0.19,0.23
2020-08-12 20:10:38.2000,0.44,-0.0,-0.02
2020-08-12 20:10:38.2990,0.29,0.21,-0.19
2020-08-12 20:10:38.3980,0.34,0.48,-0.17
2020-08-12 20:10:38.4980,0.14,0.44,-0.18
2020-08-12 20:10:38.5970,-0.43,-0.27,0.17
2020-08-12 20:10:38.6960,-0.65,-0.3,0.33
2020-08-12 20:10:38.7950,-0.72,-0.2,-0.3
2020-08-12 20:10:38.8950,-0.48,0.1,0.06
2020-08-12 20:10:38.9940,-0.27,0.06,0.02
2020-08-12 20:10:39.0930,-0.13,-0.04,0.08
2020-08-12 20:10:39.1930,-0.06,-0.03,0.05
2020-08-12 20:10:39.2920,-0.07,-0.0,0.03
2020-08-12 20:10:39.3920,-0.03,0.01,0.0
2020-08-12 20:10:39.4910,-0.03,-0.03,-0.0
2020-08-12 20:10:39.5900,-0.02,0.01,0.0
2020-08-12 20:10:39.6890,0.04,-0.05,-0.01
2020-08-12 20:10:39.7880,0.15,-0.3,-0.0
2020-08-12 20:10:39.8880,0.52,-0.65,0.04
2020-08-12 20:10:39.9870,-0.12,-0.4,0.19
2020-08-12 20:10:40.0860,0.28,0.08,0.08
2020-08-12 20:10:40.1850,0.58,0.54,-0.28
2020-08-12 20:10:40.2840,0.28,0.51,-0.17
2020-08-12 20:10:40.3840,-0.11,0.14,-0.3
2020-08-12 20:10:40.4830,-0.73,-0.37,0.27
2020-08-12 20:10:40.5820,-0.78,-0.33,0.04
2020-08-12 20:10:40.6810,-0.31,-0.11,0.64
2020-08-12 20:10:40.7810,0.09,0.01,-0.05
2020-08-12 20:10:40.8800,-0.0,0.01,0.05
2020-08-12 20:10:40.9790,-0.06,-0.03,0.01
2020-08-12 20:10:41.0780,-0.02,0.02,0.0
2020-08-12 20:10:41.1780,-0.06,-0.02,0.02
2020-08-12 20:10:41.2770,-0.08,-0.05,-0.02
2020-08-12 20:10:41.3760,-0.01,-0.01,0.01
2020-08-12 20:10:41.4760,-0.0,-0.08,-0.04
2020-08-12 20:10:41.5750,0.11,-0.17,-0.04
2020-08-12 20:10:41.6740,0.43,-0.7,0.03
2020-08-12 20:10:41.7730,0.03,-0.17,0.13
2020-08-12 20:10:41.8730,0.29,-0.01,0.04
2020-08-12 20:10:41.9720,0.4,0.31,-0.2
2020-08-12 20:10:42.0710,0.37,0.47,-0.22
2020-08-12 20:10:42.1700,0.3,0.48,-0.28
2020-08-12 20:10:42.2700,-0.59,-0.3,0.15
2020-08-12 20:10:42.3690,-0.78,-0.31,0.45
2020-08-12 20:10:42.4680,1.06,-0.18,-0.31
2020-08-12 20:10:42.5670,-0.22,0.03,0.36
2020-08-12 20:10:42.6670,-0.14,-0.07,-0.04
2020-08-12 20:10:42.7660,-0.05,-0.01,0.0
2020-08-12 20:10:42.8650,0.01,0.0,-0.0
2020-08-12 20:10:42.9640,-0.02,-0.0,-0.01
2020-08-12 20:10:43.0640,-0.03,0.0,0.0
2020-08-12 20:10:43.1630,-0.03,0.01,-0.0
2020-08-12 20:10:43.2620,-0.01,-0.01,-0.0
2020-08-12 20:10:43.3620,0.0,-0.04,0.04
2020-08-12 20:10:43.4610,0.1,-0.28,-0.06
2020-08-12 20:10:43.5600,0.38,-0.44,0.09
2020-08-12 20:10:43.6600,0.31,-0.24,0.08
2020-08-12 20:10:43.7590,0.37,-0.09,-0.01
2020-08-12 20:10:43.8580,0.45,0.34,-0.16
2020-08-12 20:10:43.9570,0.43,0.49,-0.23
2020-08-12 20:10:44.0560,-0.05,0.4,-0.2
2020-08-12 20:10:44.1560,-0.49,-0.21,0.0
2020-08-12 20:10:44.2550,-0.71,-0.4,0.32
2020-08-12 20:10:44.3540,2.57,-0.37,0.36
2020-08-12 20:10:44.4530,0.1,0.08,0.29
2020-08-12 20:10:44.5530,-0.05,-0.07,-0.09
2020-08-12 20:10:44.6520,-0.04,-0.02,0.03
2020-08-12 20:10:44.7510,0.0,0.0,0.05
2020-08-12 20:10:44.8510,-0.02,0.01,0.03
2020-08-12 20:10:44.9500,-0.11,-0.05,0.03
2020-08-12 20:10:45.0490,-0.02,0.03,0.02
2020-08-12 20:10:45.1480,0.04,-0.03,0.02
2020-08-12 20:10:45.2480,0.05,-0.14,0.0
2020-08-12 20:10:45.3470,0.27,-0.38,-0.09
2020-08-12 20:10:45.4460,0.32,-0.61,0.25
2020-08-12 20:10:45.5460,0.25,-0.42,0.21
2020-08-12 20:10:45.6450,0.56,0.42,-0.2
2020-08-12 20:10:45.7440,0.57,0.59,-0.22
2020-08-12 20:10:45.8430,0.1,0.39,-0.14
2020-08-12 20:10:45.9430,-0.68,-0.27,0.03
2020-08-12 20:10:46.0420,-0.68,-0.3,0.31
2020-08-12 20:10:46.1410,-0.46,-0.38,-0.35
2020-08-12 20:10:46.2400,-0.43,0.08,0.13
2020-08-12 20:10:46.3400,-0.03,-0.06,-0.09
2020-08-12 20:10:46.4390,0.02,-0.01,-0.0
2020-08-12 20:10:46.5380,-0.05,-0.0,0.01
2020-08-12 20:10:46.6370,-0.04,-0.0,0.01
2020-08-12 20:10:46.7370,-0.05,0.0,0.01
2020-08-12 20:10:46.8360,-0.03,-0.01,0.01
2020-08-12 20:10:46.9350,-0.01,-0.05,-0.01
2020-08-12 20:10:47.0350,0.03,-0.12,-0.0
2020-08-12 20:10:47.1340,0.24,-0.33,-0.01
2020-08-12 20:10:47.2330,0.32,-0.49,0.15
2020-08-12 20:10:47.3330,0.08,-0.07,0.14
2020-08-12 20:10:47.4320,0.21,0.0,0.02
2020-08-12 20:10:47.5310,0.1,0.02,-0.06
2020-08-12 20:10:47.6300,0.35,0.64,-0.24
2020-08-12 20:10:47.7300,0.09,0.58,-0.34
2020-08-12 20:10:47.8290,-0.5,-0.51,0.24
2020-08-12 20:10:47.9280,-0.71,-0.44,0.54
2020-08-12 20:10:48.0270,0.23,-0.03,-0.06
2020-08-12 20:10:48.1270,-0.1,0.05,-0.04
2020-08-12 20:10:48.2260,-0.02,-0.08,-0.06
2020-08-12 20:10:48.3250,0.01,-0.04,0.01
2020-08-12 20:10:48.4240,0.0,-0.01,0.0
2020-08-12 20:10:48.5230,-0.0,0.04,0.03
2020-08-12 20:10:48.6230,-0.01,-0.02,0.0
2020-08-12 20:10:48.7220,0.0,0.03,0.03
2020-08-12 20:10:48.8210,-0.02,-0.01,-0.02
2020-08-12 20:10:48.9210,-0.04,-0.04,-0.02
2020-08-12 20:10:49.0200,0.02,-0.17,0.04
2020-08-12 20:10:49.1190,0.16,-0.29,-0.05
2020-08-12 20:10:49.2180,0.3,-0.26,0.26
2020-08-12 20:10:49.3170,0.01,-0.45,0.18
2020-08-12 20:10:49.4170,0.17,-0.13,0.02
2020-08-12 20:10:49.5160,0.29,0.27,-0.19
2020-08-12 20:10:49.6150,0.49,0.75,-0.34
2020-08-12 20:10:49.7150,0.09,0.37,-0.29
2020-08-12 20:10:49.8150,-0.26,-0.25,-0.04
2020-08-12 20:10:49.9140,-0.75,-0.61,0.38
2020-08-12 20:10:50.0130,2.27,-0.35,0.64
2020-08-12 20:10:50.1120,0.18,-0.07,0.17
2020-08-12 20:10:50.2110,0.04,-0.05,-0.1
2020-08-12 20:10:50.3100,0.0,-0.04,-0.0
2020-08-12 20:10:50.4100,-0.06,-0.0,-0.02
2020-08-12 20:10:50.5090,-0.03,-0.0,0.01
2020-08-12 20:10:50.6080,-0.04,0.01,0.0
2020-08-12 20:10:50.7070,-0.03,0.02,0.01
2020-08-12 20:10:50.8070,-0.04,-0.05,0.01
2020-08-12 20:10:50.9060,0.02,-0.08,0.0
2020-08-12 20:10:51.0060,0.2,-0.36,-0.12
2020-08-12 20:10:51.1040,0.38,-0.38,0.19
2020-08-12 20:10:51.2040,0.08,0.05,0.16
2020-08-12 20:10:51.3030,0.17,0.03,0.01
2020-08-12 20:10:51.4020,0.11,-0.06,-0.05
2020-08-12 20:10:51.5010,0.1,0.21,-0.11
2020-08-12 20:10:51.6010,0.12,0.38,-0.2
2020-08-12 20:10:51.7000,0.05,0.69,-0.21
2020-08-12 20:10:51.7990,-0.32,-0.23,0.02
2020-08-12 20:10:51.8990,-0.88,-0.46,0.32
2020-08-12 20:10:51.9980,-0.71,-0.14,0.23
2020-08-12 20:10:52.0970,-0.35,0.01,0.1
2020-08-12 20:10:52.1960,-0.14,0.01,0.09
2020-08-12 20:10:52.2960,-0.13,-0.03,0.03
2020-08-12 20:10:52.3950,-0.07,0.01,-0.0
2020-08-12 20:10:52.4940,0.03,0.02,0.02
2020-08-12 20:10:52.5940,0.08,0.0,-0.0
2020-08-12 20:10:52.6930,0.01,-0.03,-0.01
2020-08-12 20:10:52.7920,0.04,-0.04,0.01
2020-08-12 20:10:52.8910,-0.01,-0.12,0.05
2020-08-12 20:10:52.9900,0.14,-0.25,-0.12
2020-08-12 20:10:53.0950,0.44,-0.3,0.2
2020-08-12 20:10:53.1890,-0.27,-0.35,0.17
2020-08-12 20:10:53.2920,0.26,0.02,-0.02
2020-08-12 20:10:53.3870,0.24,0.19,-0.11
2020-08-12 20:10:53.4920,0.3,0.45,-0.24
2020-08-12 20:10:53.5860,0.02,0.47,-0.18
2020-08-12 20:10:53.6860,-0.33,-0.07,0.03
2020-08-12 20:10:53.7860,-0.53,-0.38,0.38
2020-08-12 20:10:53.8840,-0.77,-0.16,-0.02
2020-08-12 20:10:53.9830,-0.53,-0.09,0.49
2020-08-12 20:10:54.0830,-0.1,0.09,0.05
2020-08-12 20:10:54.1820,0.05,0.04,0.02
2020-08-12 20:10:54.2810,0.01,-0.01,-0.01
2020-08-12 20:10:54.3800,-0.05,-0.02,-0.01
2020-08-12 20:10:54.4800,-0.05,-0.02,0.0
2020-08-12 20:10:54.5790,-0.01,-0.01,0.01
2020-08-12 20:10:54.6780,0.02,-0.01,0.01
2020-08-12 20:10:54.7780,-0.01,-0.02,-0.02
2020-08-12 20:10:54.8770,0.07,-0.16,0.04
2020-08-12 20:10:54.9760,0.28,-0.46,-0.09
2020-08-12 20:10:55.0750,0.15,-0.3,0.14
2020-08-12 20:10:55.1750,0.4,-0.06,0.06
2020-08-12 20:10:55.2740,0.26,0.16,-0.08
2020-08-12 20:10:55.3730,0.15,0.23,-0.06
2020-08-12 20:10:55.4720,0.15,0.25,-0.21
2020-08-12 20:10:55.5720,-0.11,0.26,-0.29
2020-08-12 20:10:55.6710,-0.38,-0.1,0.07
2020-08-12 20:10:55.7710,-0.81,-0.53,0.38
2020-08-12 20:10:55.8700,0.46,-1.08,-1.1
2020-08-12 20:10:55.9690,-0.11,-0.02,0.19
2020-08-12 20:10:56.0680,-0.04,-0.03,0.01
2020-08-12 20:10:56.1680,-0.08,-0.03,0.02
2020-08-12 20:10:56.2670,-0.06,0.01,0.01
2020-08-12 20:10:56.3660,-0.07,-0.02,0.03
2020-08-12 20:10:56.4650,-0.0,-0.02,0.01
2020-08-12 20:10:56.5650,-0.02,-0.02,0.01
2020-08-12 20:10:56.6630,-0.04,-0.02,0.0
2020-08-12 20:10:56.7630,-0.02,-0.05,0.01
2020-08-12 20:10:56.8620,0.04,-0.22,-0.01
2020-08-12 20:10:56.9610,0.21,-0.36,0.01
2020-08-12 20:10:57.0610,0.31,-0.22,0.16
2020-08-12 20:10:57.1600,0.09,-0.11,0.08
2020-08-12 20:10:57.2590,0.17,0.15,-0.04
2020-08-12 20:10:57.3590,0.15,0.05,-0.04
2020-08-12 20:10:57.4580,0.16,0.38,-0.15
2020-08-12 20:10:57.5570,0.06,0.43,-0.11
2020-08-12 20:10:57.6560,-0.21,-0.02,0.04
2020-08-12 20:10:57.7550,-0.65,-0.36,0.26
2020-08-12 20:10:57.8550,-0.85,-0.47,-0.14
2020-08-12 20:10:57.9540,-0.47,-0.27,0.0
2020-08-12 20:10:58.0530,-0.02,0.0,-0.05
2020-08-12 20:10:58.1530,-0.05,-0.01,-0.0
2020-08-12 20:10:58.2520,-0.08,-0.04,-0.01
2020-08-12 20:10:58.3510,-0.05,-0.01,0.01
2020-08-12 20:10:58.4510,-0.04,-0.01,0.04
2020-08-12 20:10:58.5500,-0.01,0.0,0.01
2020-08-12 20:10:58.6490,0.02,-0.03,-0.04
2020-08-12 20:10:58.7480,0.03,-0.06,0.02
2020-08-12 20:10:58.8480,0.13,-0.24,0.02
2020-08-12 20:10:58.9470,0.33,-0.52,0.05
2020-08-12 20:10:59.0460,0.0,-0.47,0.23
2020-08-12 20:10:59.1450,0.22,0.1,0.11
2020-08-12 20:10:59.2440,0.46,0.51,-0.23
2020-08-12 20:10:59.3440,0.36,0.5,-0.27
2020-08-12 20:10:59.4430,-0.23,0.1,-0.38
2020-08-12 20:10:59.5420,-0.55,-0.16,0.18
2020-08-12 20:10:59.6420,-0.47,-0.3,0.2
2020-08-12 20:10:59.7410,1.81,-0.32,-0.0
2020-08-12 20:10:59.8400,-0.22,0.02,0.59
2020-08-12 20:10:59.9400,0.06,-0.04,-0.12
2020-08-12 20:11:00.0390,-0.0,-0.03,0.02
2020-08-12 20:11:00.1380,-0.0,-0.0,-0.02
2020-08-12 20:11:00.2370,-0.04,0.01,0.02
2020-08-12 20:11:00.3370,-0.01,-0.01,-0.0
2020-08-12 20:11:00.4360,-0.02,0.0,-0.01
2020-08-12 20:11:00.5350,0.02,-0.06,-0.02
2020-08-12 20:11:00.6340,0.07,-0.17,-0.01
2020-08-12 20:11:00.7340,0.36,-0.53,-0.04
2020-08-12 20:11:00.8330,0.33,-0.5,0.22
2020-08-12 20:11:00.9320,0.38,-0.02,0.17
2020-08-12 20:11:01.0320,0.32,0.24,-0.06
2020-08-12 20:11:01.1310,0.24,0.16,-0.14
2020-08-12 20:11:01.2300,-0.02,0.24,-0.12
2020-08-12 20:11:01.3290,-0.07,0.5,-0.19
2020-08-12 20:11:01.4280,-0.54,0.03,0.17
2020-08-12 20:11:01.5280,-0.72,-0.36,0.17
2020-08-12 20:11:01.6280,0.61,-1.2,-0.98
2020-08-12 20:11:01.7270,-0.21,-0.07,0.39
2020-08-12 20:11:01.8260,-0.12,-0.01,0.07
2020-08-12 20:11:01.9250,-0.06,-0.02,0.01
2020-08-12 20:11:02.0240,-0.06,0.02,-0.01
2020-08-12 20:11:02.1230,-0.02,-0.0,0.0
2020-08-12 20:11:02.2230,-0.04,0.0,0.01
2020-08-12 20:11:02.3220,-0.0,-0.02,-0.02
2020-08-12 20:11:02.4210,0.04,-0.05,0.01
2020-08-12 20:11:02.5210,0.24,-0.38,-0.02
2020-08-12 20:11:02.6200,0.79,-0.68,0.13
2020-08-12 20:11:02.7190,-0.15,-0.12,0.13
2020-08-12 20:11:02.8180,0.42,0.33,-0.03
2020-08-12 20:11:02.9180,0.45,0.58,-0.22
2020-08-12 20:11:03.0170,-0.01,0.44,-0.16
2020-08-12 20:11:03.1160,-0.38,-0.07,0.01
2020-08-12 20:11:03.2150,-0.81,-0.39,0.29
2020-08-12 20:11:03.3150,0.11,-0.24,-0.0
2020-08-12 20:11:03.4140,-0.05,0.05,0.11
2020-08-12 20:11:03.5130,-0.02,-0.04,-0.05
2020-08-12 20:11:03.6120,0.02,-0.01,-0.0
2020-08-12 20:11:03.7120,-0.02,-0.01,-0.0
2020-08-12 20:11:03.8110,-0.02,-0.01,-0.01
2020-08-12 20:11:03.9100,-0.01,-0.01,-0.0
2020-08-12 20:11:04.0100,0.02,-0.05,0.02
2020-08-12 20:11:04.1090,0.12,-0.2,-0.05
2020-08-12 20:11:04.2080,0.41,-0.59,0.05
2020-08-12 20:11:04.3070,0.32,-0.29,0.05
2020-08-12 20:11:04.4070,0.34,0.0,0.02
2020-08-12 20:11:04.5060,0.38,0.3,-0.12
2020-08-12 20:11:04.6050,0.3,0.49,-0.18
2020-08-12 20:11:04.7050,0.05,0.39,-0.22
2020-08-12 20:11:04.8040,-0.36,-0.02,0.11
2020-08-12 20:11:04.9030,-0.58,-0.35,0.3
2020-08-12 20:11:05.0020,-0.51,-0.31,-0.14
2020-08-12 20:11:05.1020,-0.16,0.06,0.15
2020-08-12 20:11:05.2010,-0.07,-0.04,-0.02
2020-08-12 20:11:05.3000,-0.07,-0.01,-0.01
2020-08-12 20:11:05.3990,-0.06,0.0,-0.01
2020-08-12 20:11:05.4990,-0.07,0.01,-0.01
2020-08-12 20:11:05.5980,-0.06,0.0,0.02
2020-08-12 20:11:05.6970,-0.02,-0.01,0.0
2020-08-12 20:11:05.7960,-0.02,-0.09,-0.02
2020-08-12 20:11:05.8950,0.11,-0.3,0.02
2020-08-12 20:11:05.9950,0.36,-0.59,0.05
2020-08-12 20:11:06.0940,0.0,-0.15,0.02
2020-08-12 20:11:06.1940,0.33,0.01,0.04
2020-08-12 20:11:06.2930,0.43,0.29,-0.17
2020-08-12 20:11:06.3920,0.2,0.36,-0.13
2020-08-12 20:11:06.4910,-0.04,0.34,-0.19
2020-08-12 20:11:06.5910,-0.34,0.15,-0.01
2020-08-12 20:11:06.6900,-0.5,-0.16,0.16
2020-08-12 20:11:06.7890,-1.0,-0.55,-0.01
2020-08-12 20:11:06.8880,-0.02,0.08,-0.13
2020-08-12 20:11:06.9880,-0.08,-0.07,-0.15
2020-08-12 20:11:07.0870,0.03,-0.01,-0.0
2020-08-12 20:11:07.1860,-0.03,0.0,0.02
2020-08-12 20:11:07.2860,-0.04,-0.01,0.02
2020-08-12 20:11:07.3850,-0.01,-0.01,-0.0
2020-08-12 20:11:07.4840,-0.0,0.02,0.01
2020-08-12 20:11:07.5830,0.07,-0.03,-0.01
2020-08-12 20:11:07.6820,0.08,-0.11,-0.01
2020-08-12 20:11:07.7820,0.33,-0.52,-0.01
2020-08-12 20:11:07.8810,0.12,-0.41,0.03
2020-08-12 20:11:07.9810,0.36,-0.12,0.0
2020-08-12 20:11:08.0790,0.34,0.16,-0.12
2020-08-12 20:11:08.1790,0.1,0.23,0.02
2020-08-12 20:11:08.2780,-0.05,0.41,-0.02
2020-08-12 20:11:08.3770,-0.02,0.54,-0.2
2020-08-12 20:11:08.4770,-0.24,0.11,-0.12
2020-08-12 20:11:08.5760,-0.67,-0.37,0.2
2020-08-12 20:11:08.6750,1.15,-1.18,-0.21
2020-08-12 20:11:08.7740,-0.1,0.03,0.3
2020-08-12 20:11:08.8740,-0.07,0.01,0.05
2020-08-12 20:11:08.9730,-0.08,-0.01,0.0
2020-08-12 20:11:09.0720,-0.09,-0.02,-0.02
2020-08-12 20:11:09.1720,-0.05,-0.01,0.02
2020-08-12 20:11:09.2710,-0.01,-0.0,-0.01
2020-08-12 20:11:09.3700,0.0,-0.02,-0.01
2020-08-12 20:11:09.4700,0.05,-0.12,0.02
2020-08-12 20:11:09.5690,0.29,-0.4,-0.07
2020-08-12 20:11:09.6680,0.49,-0.54,0.11
2020-08-12 20:11:09.7670,-0.08,-0.14,0.12
2020-08-12 20:11:09.8660,0.28,0.24,-0.02
2020-08-12 20:11:09.9660,0.13,0.31,-0.08
2020-08-12 20:11:10.0650,0.14,0.47,-0.17
2020-08-12 20:11:10.1640,0.03,0.48,-0.2
2020-08-12 20:11:10.2640,-0.27,-0.04,0.03
2020-08-12 20:11:10.3630,-0.72,-0.42,0.18
2020-08-12 20:11:10.4620,2.18,-0.6,0.56
2020-08-12 20:11:10.5610,0.1,0.05,0.4
2020-08-12 20:11:10.6610,0.07,-0.02,-0.11
2020-08-12 20:11:10.7600,0.04,-0.01,-0.01
2020-08-12 20:11:10.8590,-0.02,0.0,-0.03
2020-08-12 20:11:10.9590,0.0,-0.02,0.03
2020-08-12 20:11:11.0580,-0.0,-0.01,-0.01
2020-08-12 20:11:11.1570,-0.01,-0.05,-0.04
2020-08-12 20:11:11.2560,0.05,-0.1,-0.0
2020-08-12 20:11:11.3560,0.2,-0.32,0.03
2020-08-12 20:11:11.4550,0.53,-0.6,0.13
2020-08-12 20:11:11.5540,-0.02,-0.18,0.18
2020-08-12 20:11:11.6540,0.31,0.31,-0.05
2020-08-12 20:11:11.7530,0.27,0.3,-0.16
2020-08-12 20:11:11.8520,-0.04,0.37,0.03
2020-08-12 20:11:11.9510,-0.16,0.34,-0.17
2020-08-12 20:11:12.0500,-0.35,0.07,-0.0
2020-08-12 20:11:12.1500,-0.66,-0.33,0.32
2020-08-12 20:11:12.2490,2.65,-1.07,0.37
2020-08-12 20:11:12.3480,-0.02,0.03,0.5
2020-08-12 20:11:12.4470,0.02,-0.01,0.05
2020-08-12 20:11:12.5470,-0.03,-0.04,-0.03
2020-08-12 20:11:12.6460,-0.05,0.02,0.0
2020-08-12 20:11:12.7450,-0.01,-0.01,0.02
2020-08-12 20:11:12.8440,-0.03,-0.01,0.0
2020-08-12 20:11:12.9440,0.04,-0.02,0.0
2020-08-12 20:11:13.0430,0.04,-0.08,0.01
2020-08-12 20:11:13.1420,0.2,-0.4,-0.02
2020-08-12 20:11:13.2420,0.6,-0.42,0.06
2020-08-12 20:11:13.3410,-0.05,-0.23,0.12
2020-08-12 20:11:13.4400,0.22,0.18,-0.0
2020-08-12 20:11:13.5390,0.28,0.31,-0.1
2020-08-12 20:11:13.6390,0.41,0.52,-0.19
2020-08-12 20:11:13.7380,-0.09,0.42,-0.24
2020-08-12 20:11:13.8370,-0.41,-0.1,0.03
2020-08-12 20:11:13.9370,-0.76,-0.46,0.23
2020-08-12 20:11:14.0360,1.76,-0.34,0.23
2020-08-12 20:11:14.1350,-0.12,-0.04,0.36
2020-08-12 20:11:14.2340,-0.01,-0.0,-0.06
2020-08-12 20:11:14.3330,-0.01,-0.01,-0.03
2020-08-12 20:11:14.4330,-0.03,-0.01,-0.02
2020-08-12 20:11:14.5320,-0.02,-0.01,0.02
2020-08-12 20:11:14.6310,-0.03,-0.02,-0.0
2020-08-12 20:11:14.7300,-0.0,-0.0,0.0
2020-08-12 20:11:14.8300,0.04,-0.11,0.01
2020-08-12 20:11:14.9290,0.24,-0.5,-0.08
2020-08-12 20:11:15.0290,0.34,-0.53,0.13
2020-08-12 20:11:15.1280,-0.04,-0.22,0.22
2020-08-12 20:11:15.2270,0.42,0.3,-0.07
2020-08-12 20:11:15.3260,0.49,0.49,-0.25
2020-08-12 20:11:15.4250,0.11,0.4,-0.03
2020-08-12 20:11:15.5250,-0.24,-0.0,-0.11
2020-08-12 20:11:15.6240,-0.54,-0.31,0.2
2020-08-12 20:11:15.7240,-0.96,-0.32,0.06
2020-08-12 20:11:15.8230,-0.92,0.02,0.76
2020-08-12 20:11:15.9220,-0.28,-0.03,-0.03
2020-08-12 20:11:16.0210,-0.09,0.02,0.1
2020-08-12 20:11:16.1200,-0.13,0.0,0.03
2020-08-12 20:11:16.2200,-0.07,0.01,0.01
2020-08-12 20:11:16.3190,-0.04,0.0,0.01
2020-08-12 20:11:16.4180,-0.07,-0.0,-0.01
2020-08-12 20:11:16.5170,0.01,-0.04,-0.01
2020-08-12 20:11:16.6170,-0.01,-0.1,0.04
2020-08-12 20:11:16.7160,0.12,-0.38,-0.09
2020-08-12 20:11:16.8150,0.45,-0.52,0.23
2020-08-12 20:11:16.9140,-0.23,-0.38,0.17
2020-08-12 20:11:17.0140,0.24,0.19,0.03
2020-08-12 20:11:17.1130,0.52,0.47,-0.24
2020-08-12 20:11:17.2120,0.22,0.51,-0.23
2020-08-12 20:11:17.3120,-0.12,0.21,-0.16
2020-08-12 20:11:17.4110,-0.43,-0.17,0.14
2020-08-12 20:11:17.5100,-0.55,-0.19,0.32
2020-08-12 20:11:17.6100,-0.68,-0.19,-0.1
2020-08-12 20:11:17.7090,-0.3,-0.32,0.42
2020-08-12 20:11:17.8080,0.07,0.08,0.03
2020-08-12 20:11:17.9070,-0.04,-0.01,0.02
2020-08-12 20:11:18.0070,-0.03,-0.01,0.03
2020-08-12 20:11:18.1060,-0.03,0.01,0.0
2020-08-12 20:11:18.2050,-0.01,-0.02,-0.0
2020-08-12 20:11:18.3040,-0.01,-0.01,0.01
2020-08-12 20:11:18.4040,-0.01,-0.02,0.01
2020-08-12 20:11:18.5030,0.0,-0.05,0.01
2020-08-12 20:11:18.6020,0.11,-0.27,-0.0
2020-08-12 20:11:18.7010,0.47,-0.71,0.18
2020-08-12 20:11:18.8010,0.25,-0.09,0.01
2020-08-12 20:11:18.9000,0.23,0.06,-0.05
2020-08-12 20:11:18.9990,0.04,0.11,-0.03
2020-08-12 20:11:19.0980,0.25,0.47,-0.19
2020-08-12 20:11:19.1980,-0.07,0.39,-0.06
2020-08-12 20:11:19.2970,-0.23,0.09,-0.11
2020-08-12 20:11:19.3960,-0.41,-0.32,-0.02
2020-08-12 20:11:19.4960,-0.74,-0.32,0.29
2020-08-12 20:11:19.5950,-0.37,-0.78,-0.41
2020-08-12 20:11:19.6940,-0.07,-0.01,0.15
2020-08-12 20:11:19.7930,-0.07,-0.01,0.01
2020-08-12 20:11:19.8930,-0.11,-0.01,0.04
2020-08-12 20:11:19.9920,-0.07,-0.01,-0.02
2020-08-12 20:11:20.0910,0.01,-0.03,0.01
2020-08-12 20:11:20.1910,0.02,-0.04,-0.03
2020-08-12 20:11:20.2900,0.01,-0.03,0.0
2020-08-12 20:11:20.3890,0.01,-0.02,0.06
2020-08-12 20:11:20.4880,-0.06,-0.1,0.02
2020-08-12 20:11:20.5870,0.17,-0.45,-0.09
2020-08-12 20:11:20.6870,0.46,-0.41,0.15
2020-08-12 20:11:20.7860,-0.1,-0.31,0.28
2020-08-12 20:11:20.8850,0.34,0.13,0.06
2020-08-12 20:11:20.9850,0.16,0.11,0.04
2020-08-12 20:11:21.0840,0.18,0.46,-0.13
2020-08-12 20:11:21.1830,0.04,0.42,-0.24
2020-08-12 20:11:21.2820,-0.34,-0.0,-0.02
2020-08-12 20:11:21.3820,-0.4,-0.27,0.12
2020-08-12 20:11:21.4810,-0.71,-0.36,0.19
2020-08-12 20:11:21.5800,-0.13,-0.91,-0.51
2020-08-12 20:11:21.6800,0.01,-0.03,0.15
2020-08-12 20:11:21.7790,-0.15,-0.01,0.04
2020-08-12 20:11:21.8780,-0.02,0.01,0.06
2020-08-12 20:11:21.9770,-0.04,0.04,0.05
2020-08-12 20:11:22.0760,-0.06,-0.01,0.0
2020-08-12 20:11:22.1760,-0.01,-0.05,-0.04
2020-08-12 20:11:22.2750,-0.03,-0.03,0.0
2020-08-12 20:11:22.3740,-0.03,-0.05,-0.03
2020-08-12 20:11:22.4740,0.09,-0.23,-0.03
2020-08-12 20:11:22.5730,0.37,-0.53,-0.01
2020-08-12 20:11:22.6720,0.21,-0.35,0.15
2020-08-12 20:11:22.7710,0.41,-0.2,-0.05
2020-08-12 20:11:22.8710,0.29,0.25,-0.11
2020-08-12 20:11:22.9700,0.26,0.54,-0.12
2020-08-12 20:11:23.0690,0.03,0.53,-0.12
2020-08-12 20:11:23.1690,-0.46,0.07,-0.05
2020-08-12 20:11:23.2680,-0.65,-0.34,0.21
2020-08-12 20:11:23.3670,-0.83,-0.58,0.01
2020-08-12 20:11:23.4670,-0.08,-0.06,-0.19
2020-08-12 20:11:23.5660,-0.19,-0.05,-0.12
2020-08-12 20:11:23.6650,-0.05,-0.03,0.03
2020-08-12 20:11:23.7640,-0.06,0.01,0.04
2020-08-12 20:11:23.8640,-0.02,-0.01,0.02
2020-08-12 20:11:23.9630,-0.02,-0.02,0.01
2020-08-12 20:11:24.0620,-0.03,-0.0,0.01
2020-08-12 20:11:24.1610,0.0,-0.04,0.01
2020-08-12 20:11:24.2600,0.05,-0.19,0.07
2020-08-12 20:11:24.3600,0.38,-0.5,-0.08
2020-08-12 20:11:24.4590,0.24,-0.34,0.02
2020-08-12 20:11:24.5580,0.34,-0.09,0.08
2020-08-12 20:11:24.6570,0.37,0.2,-0.07
2020-08-12 20:11:24.7570,0.34,0.45,-0.16
2020-08-12 20:11:24.8560,0.05,0.52,-0.16
2020-08-12 20:11:24.9550,-0.45,-0.07,-0.09
2020-08-12 20:11:25.0540,-0.85,-0.39,0.29
2020-08-12 20:11:25.1540,1.1,-0.29,0.13
2020-08-12 20:11:25.2530,-0.23,0.05,0.24
2020-08-12 20:11:25.3520,-0.09,-0.04,-0.07
2020-08-12 20:11:25.4520,0.03,-0.0,0.04
2020-08-12 20:11:25.5510,-0.05,-0.0,0.02
2020-08-12 20:11:25.6500,-0.03,0.0,0.03
2020-08-12 20:11:25.7500,-0.0,0.0,-0.01
2020-08-12 20:11:25.8490,0.0,-0.01,0.02
2020-08-12 20:11:25.9480,0.01,-0.06,0.02
2020-08-12 20:11:26.0470,0.12,-0.23,-0.01
2020-08-12 20:11:26.1470,0.36,-0.54,-0.03
2020-08-12 20:11:26.2460,0.12,-0.25,0.12
2020-08-12 20:11:26.3450,0.09,-0.21,0.2
2020-08-12 20:11:26.4440,0.41,0.34,-0.16
2020-08-12 20:11:26.5440,0.48,0.52,-0.21
2020-08-12 20:11:26.6430,0.22,0.44,-0.2
2020-08-12 20:11:26.7420,-0.34,-0.32,-0.07
2020-08-12 20:11:26.8420,-0.86,-0.34,0.28
2020-08-12 20:11:26.9410,-0.67,-0.41,0.03
2020-08-12 20:11:27.0400,-0.03,-0.4,-0.23
2020-08-12 20:11:27.1390,-0.22,-0.03,-0.16
2020-08-12 20:11:27.2380,-0.05,-0.03,0.05
2020-08-12 20:11:27.3380,-0.07,-0.0,0.03
2020-08-12 20:11:27.4370,-0.05,0.02,0.04
2020-08-12 20:11:27.5360,-0.02,0.02,0.02
2020-08-12 20:11:27.6350,0.01,-0.01,0.03
2020-08-12 20:11:27.7350,0.02,-0.04,0.01
2020-08-12 20:11:27.8340,0.05,-0.08,-0.01
2020-08-12 20:11:27.9330,0.17,-0.29,-0.07
2020-08-12 20:11:28.0330,0.36,-0.3,0.13
2020-08-12 20:11:28.1320,-0.06,-0.36,0.22
2020-08-12 20:11:28.2310,0.3,-0.1,0.01
2020-08-12 20:11:28.3310,0.24,0.11,-0.05
2020-08-12 20:11:28.4300,0.39,0.59,-0.27
2020-08-12 20:11:28.5290,0.2,0.64,-0.5
2020-08-12 20:11:28.6280,-0.51,-0.22,0.09
2020-08-12 20:11:28.7280,-0.77,-0.55,0.54
2020-08-12 20:11:28.8270,2.0,-0.19,0.45
2020-08-12 20:11:28.9260,-0.01,0.05,0.43
2020-08-12 20:11:29.0250,0.0,-0.07,-0.18
2020-08-12 20:11:29.1250,0.03,-0.03,-0.03
2020-08-12 20:11:29.2240,0.03,-0.0,0.01
2020-08-12 20:11:29.3230,-0.07,-0.01,0.04
2020-08-12 20:11:29.4220,-0.08,-0.02,-0.02
2020-08-12 20:11:29.5220,-0.02,-0.06,0.03
2020-08-12 20:11:29.6210,0.05,-0.11,0.02
2020-08-12 20:11:29.7200,0.2,-0.35,-0.02
2020-08-12 20:11:29.8190,0.4,-0.49,0.14
2020-08-12 20:11:29.9190,-0.06,-0.07,0.17
2020-08-12 20:11:30.0180,0.15,0.05,0.05
2020-08-12 20:11:30.1170,0.25,0.27,-0.2
2020-08-12 20:11:30.2170,0.36,0.65,-0.25
2020-08-12 20:11:30.3160,0.0,0.47,-0.54
2020-08-12 20:11:30.4150,-0.69,-0.26,0.21
2020-08-12 20:11:30.5140,-0.84,-0.68,0.02
2020-08-12 20:11:30.6140,-0.06,0.03,0.57
2020-08-12 20:11:30.7130,-0.14,0.07,0.03
2020-08-12 20:11:30.8120,-0.03,0.01,0.06
2020-08-12 20:11:30.9110,-0.09,-0.02,0.03
2020-08-12 20:11:31.0110,-0.06,-0.0,0.02
2020-08-12 20:11:31.1100,-0.04,-0.0,0.0
2020-08-12 20:11:31.2090,-0.04,-0.0,0.01
2020-08-12 20:11:31.3080,0.05,-0.01,0.01
2020-08-12 20:11:31.4080,0.0,-0.05,0.04
2020-08-12 20:11:31.5070,0.05,-0.14,-0.06
2020-08-12 20:11:31.6060,0.26,-0.4,0.04
2020-08-12 20:11:31.7060,0.32,-0.45,0.14
2020-08-12 20:11:31.8050,-0.19,-0.34,0.15
2020-08-12 20:11:31.9040,0.43,0.24,-0.03
2020-08-12 20:11:32.0030,0.46,0.45,-0.15
2020-08-12 20:11:32.1030,-0.16,0.39,0.08
2020-08-12 20:11:32.2020,-0.28,0.07,-0.1
2020-08-12 20:11:32.3020,-0.55,-0.19,0.18
2020-08-12 20:11:32.4010,-0.85,-0.37,-0.05
2020-08-12 20:11:32.5000,-0.37,-0.37,0.35
2020-08-12 20:11:32.5990,0.04,0.04,-0.07
2020-08-12 20:11:32.6980,-0.12,-0.0,0.06
2020-08-12 20:11:32.7980,-0.07,-0.02,0.06
2020-08-12 20:11:32.8970,-0.06,-0.0,0.01
2020-08-12 20:11:32.9960,-0.03,-0.02,-0.01
2020-08-12 20:11:33.0960,-0.02,-0.01,-0.0
2020-08-12 20:11:33.1940,0.01,-0.05,0.02
2020-08-12 20:11:33.2940,0.09,-0.21,0.01
2020-08-12 20:11:33.3930,0.38,-0.61,0.01
2020-08-12 20:11:33.4920,0.29,-0.23,0.16
2020-08-12 20:11:33.5920,0.39,-0.14,0.08
2020-08-12 20:11:33.6910,0.39,0.38,-0.04
2020-08-12 20:11:33.7900,0.26,0.43,-0.19
2020-08-12 20:11:33.8890,-0.01,0.42,-0.13
2020-08-12 20:11:33.9890,-0.48,-0.08,0.15
2020-08-12 20:11:34.0880,-0.65,-0.39,0.02
2020-08-12 20:11:34.1870,0.08,-0.24,0.16
2020-08-12 20:11:34.2870,0.01,0.0,-0.05
2020-08-12 20:11:34.3860,0.01,-0.07,-0.18
2020-08-12 20:11:34.4850,0.0,-0.01,0.02
2020-08-12 20:11:34.5850,-0.03,0.04,0.02
2020-08-12 20:11:34.6840,-0.0,0.01,0.02
2020-08-12 20:11:34.7830,-0.04,-0.02,0.01
2020-08-12 20:11:34.8820,-0.05,0.01,0.04
2020-08-12 20:11:34.9820,0.06,-0.07,-0.02
2020-08-12 20:11:35.0810,0.12,-0.33,-0.04
2020-08-12 20:11:35.1800,0.65,-0.46,0.22
2020-08-12 20:11:35.2790,-0.08,-0.31,0.16
2020-08-12 20:11:35.3790,0.26,0.19,-0.04
2020-08-12 20:11:35.4780,0.47,0.33,-0.16
2020-08-12 20:11:35.5770,0.43,0.51,-0.21
2020-08-12 20:11:35.6760,-0.05,0.32,-0.22
2020-08-12 20:11:35.7760,-0.51,-0.25,0.22
2020-08-12 20:11:35.8750,-0.71,-0.53,0.13
2020-08-12 20:11:35.9740,2.03,-0.21,0.06
2020-08-12 20:11:36.0730,-0.78,-0.04,0.36
2020-08-12 20:11:36.1730,-0.2,-0.01,0.12
2020-08-12 20:11:36.2720,-0.08,-0.01,0.03
2020-08-12 20:11:36.3710,-0.06,0.01,-0.03
2020-08-12 20:11:36.4710,0.01,-0.03,-0.01
2020-08-12 20:11:36.5700,-0.02,-0.02,0.0
2020-08-12 20:11:36.6690,-0.02,-0.01,-0.01
2020-08-12 20:11:36.7680,0.01,-0.08,-0.0
2020-08-12 20:11:36.8680,0.14,-0.33,0.02
2020-08-12 20:11:36.9670,0.65,-0.36,0.08
2020-08-12 20:11:37.0660,-0.13,-0.55,0.1
2020-08-12 20:11:37.1660,0.28,0.11,0.07
2020-08-12 20:11:37.2650,0.34,0.33,-0.13
2020-08-12 20:11:37.3640,0.27,0.66,-0.27
2020-08-12 20:11:37.4630,-0.03,0.5,-0.4
2020-08-12 20:11:37.5620,-0.46,-0.12,0.05
2020-08-12 20:11:37.6620,-0.63,-0.5,0.41
2020-08-12 20:11:37.7610,2.16,-0.35,0.13
2020-08-12 20:11:37.8600,-0.65,-0.05,0.39
2020-08-12 20:11:37.9590,-0.23,-0.01,0.13
2020-08-12 20:11:38.0590,-0.09,-0.01,0.05
2020-08-12 20:11:38.1580,-0.09,0.01,-0.03
2020-08-12 20:11:38.2570,-0.02,0.0,-0.0
2020-08-12 20:11:38.3570,-0.06,-0.0,-0.06
2020-08-12 20:11:38.4560,0.01,-0.04,0.04
2020-08-12 20:11:38.5550,0.05,-0.15,0.02
2020-08-12 20:11:38.6550,0.38,-0.53,0.02
2020-08-12 20:11:38.7540,0.48,-0.32,0.09
2020-08-12 20:11:38.8530,0.52,0.04,-0.08
2020-08-12 20:11:38.9520,0.23,0.27,-0.06
2020-08-12 20:11:39.0510,-0.09,0.19,-0.09
2020-08-12 20:11:39.1510,0.11,0.59,-0.23
2020-08-12 20:11:39.2500,-0.14,0.32,-0.25
2020-08-12 20:11:39.3490,-0.41,-0.33,0.2
2020-08-12 20:11:39.4490,-0.8,-0.5,0.13
2020-08-12 20:11:39.5480,-0.55,-0.33,-0.1
2020-08-12 20:11:39.6470,-0.1,0.03,-0.07
2020-08-12 20:11:39.7460,-0.06,-0.03,0.09
2020-08-12 20:11:39.8450,-0.07,0.0,0.03
2020-08-12 20:11:39.9450,-0.05,0.01,0.02
2020-08-12 20:11:40.0440,-0.02,-0.02,-0.01
2020-08-12 20:11:40.1430,-0.04,-0.01,0.01
2020-08-12 20:11:40.2430,-0.03,-0.03,-0.01
2020-08-12 20:11:40.3420,0.07,-0.16,-0.01
2020-08-12 20:11:40.4410,0.28,-0.45,-0.02
2020-08-12 20:11:40.5410,0.21,-0.43,0.2
2020-08-12 20:11:40.6400,0.27,-0.1,0.13
2020-08-12 20:11:40.7390,0.34,0.21,-0.05
2020-08-12 20:11:40.8380,0.1,0.18,-0.08
2020-08-12 20:11:40.9380,0.05,0.37,-0.14
2020-08-12 20:11:41.0370,-0.22,0.27,-0.11
2020-08-12 20:11:41.1360,-0.56,-0.27,0.17
2020-08-12 20:11:41.2350,-0.87,-0.48,0.02
2020-08-12 20:11:41.3350,-0.5,-0.12,0.24
2020-08-12 20:11:41.4340,-0.25,0.07,0.1
2020-08-12 20:11:41.5330,-0.02,0.0,0.09
2020-08-12 20:11:41.6320,-0.1,-0.01,0.03
2020-08-12 20:11:41.7320,-0.05,-0.0,0.01
2020-08-12 20:11:41.8310,-0.03,-0.03,-0.01
2020-08-12 20:11:41.9300,-0.04,-0.0,-0.02
2020-08-12 20:11:42.0300,-0.04,-0.02,0.0
2020-08-12 20:11:42.1290,-0.01,-0.07,-0.01
2020-08-12 20:11:42.2280,0.14,-0.3,-0.02
2020-08-12 20:11:42.3270,0.46,-0.41,0.04
2020-08-12 20:11:42.4270,0.15,-0.23,0.12
2020-08-12 20:11:42.5260,0.41,0.06,-0.05
2020-08-12 20:11:42.6250,0.32,0.3,-0.08
2020-08-12 20:11:42.7240,0.22,0.29,-0.01
2020-08-12 20:11:42.8240,0.06,0.32,-0.07
2020-08-12 20:11:42.9230,-0.31,0.04,0.09
2020-08-12 20:11:43.0220,-0.58,-0.19,0.2
2020-08-12 20:11:43.1210,-1.04,-0.6,-0.07
2020-08-12 20:11:43.2210,-0.2,-0.32,-0.32
2020-08-12 20:11:43.3200,-0.16,-0.03,-0.17
2020-08-12 20:11:43.4190,-0.05,-0.02,0.06
2020-08-12 20:11:43.5190,-0.05,-0.01,0.01
2020-08-12 20:11:43.6180,-0.05,-0.0,0.04
2020-08-12 20:11:43.7170,-0.03,-0.02,0.02
2020-08-12 20:11:43.8160,-0.04,-0.01,0.01
2020-08-12 20:11:43.9160,-0.0,-0.05,0.03
2020-08-12 20:11:44.0150,0.11,-0.25,-0.05
2020-08-12 20:11:44.1140,0.25,-0.35,0.04
2020-08-12 20:11:44.2130,0.51,-0.41,0.19
2020-08-12 20:11:44.3130,-0.03,-0.37,0.32
2020-08-12 20:11:44.4120,0.52,0.48,-0.09
2020-08-12 20:11:44.5110,0.59,0.6,-0.25
2020-08-12 20:11:44.6100,0.19,0.32,-0.25
2020-08-12 20:11:44.7100,-0.5,-0.36,0.18
2020-08-12 20:11:44.8090,-0.68,-0.44,0.24
2020-08-12 20:11:44.9080,-1.29,-0.23,0.04
2020-08-12 20:11:45.0080,-0.17,-0.24,0.01
2020-08-12 20:11:45.1070,0.05,-0.01,-0.08
2020-08-12 20:11:45.2070,0.03,-0.03,0.04
2020-08-12 20:11:45.3050,-0.05,0.02,0.04
2020-08-12 20:11:45.4050,-0.07,-0.02,0.0
2020-08-12 20:11:45.5040,-0.04,0.0,0.02
2020-08-12 20:11:45.6030,-0.01,0.01,0.02
2020-08-12 20:11:45.7020,-0.01,-0.08,-0.02
2020-08-12 20:11:45.8020,0.13,-0.18,-0.01
2020-08-12 20:11:45.9010,0.58,-0.79,0.08
2020-08-12 20:11:46.0000,0.19,-0.34,0.08
2020-08-12 20:11:46.1000,0.43,0.07,-0.0
2020-08-12 20:11:46.1990,0.26,0.3,-0.11
2020-08-12 20:11:46.2980,0.22,0.47,-0.21
2020-08-12 20:11:46.3970,-0.32,0.46,-0.06
2020-08-12 20:11:46.4960,-0.42,-0.05,-0.01
2020-08-12 20:11:46.5960,-0.75,-0.46,0.33
2020-08-12 20:11:46.6950,2.19,-0.5,0.01
2020-08-12 20:11:46.7940,-0.28,0.01,0.52
2020-08-12 20:11:46.8940,-0.15,-0.01,0.09
2020-08-12 20:11:46.9930,-0.05,-0.01,0.04
2020-08-12 20:11:47.0920,-0.09,0.02,-0.0
2020-08-12 20:11:47.1920,-0.02,-0.0,-0.01
2020-08-12 20:11:47.2910,-0.0,-0.01,-0.03
2020-08-12 20:11:47.3900,-0.03,-0.07,0.04
2020-08-12 20:11:47.4890,0.04,-0.22,0.03
2020-08-12 20:11:47.5880,0.33,-0.48,-0.03
2020-08-12 20:11:47.6880,0.42,-0.45,0.14
2020-08-12 20:11:47.7870,0.39,-0.15,0.06
2020-08-12 20:11:47.8860,0.32,0.19,-0.16
2020-08-12 20:11:47.9860,0.26,0.62,-0.2
2020-08-12 20:11:48.0850,0.09,0.67,-0.16
2020-08-12 20:11:48.1840,-0.38,-0.2,-0.13
2020-08-12 20:11:48.2830,-0.78,-0.57,0.32
2020-08-12 20:11:48.3830,0.72,-0.17,0.31
2020-08-12 20:11:48.4820,-0.03,0.01,0.08
2020-08-12 20:11:48.5810,-0.07,-0.05,-0.09
2020-08-12 20:11:48.6800,-0.05,-0.03,-0.0
2020-08-12 20:11:48.7800,0.03,0.04,0.04
2020-08-12 20:11:48.8790,-0.01,-0.01,-0.01
2020-08-12 20:11:48.9780,-0.01,-0.02,0.01
2020-08-12 20:11:49.0780,-0.0,-0.01,0.01
2020-08-12 20:11:49.1770,-0.01,-0.05,-0.0
2020-08-12 20:11:49.2760,0.12,-0.3,0.01
2020-08-12 20:11:49.3760,0.42,-0.53,0.01
2020-08-12 20:11:49.4750,0.09,-0.23,0.04
2020-08-12 20:11:49.5740,0.43,0.11,0.02
2020-08-12 20:11:49.6730,0.27,0.15,-0.1
2020-08-12 20:11:49.7720,-0.02,0.26,-0.11
2020-08-12 20:11:49.8720,0.06,0.58,-0.21
2020-08-12 20:11:49.9710,-0.42,0.07,-0.02
2020-08-12 20:11:50.0700,-0.63,-0.61,0.22
2020-08-12 20:11:50.1690,1.18,-0.13,0.33
2020-08-12 20:11:50.2690,-0.04,0.02,0.21
2020-08-12 20:11:50.3680,-0.02,-0.05,-0.11
2020-08-12 20:11:50.4670,-0.06,-0.02,-0.02
2020-08-12 20:11:50.5660,-0.08,-0.01,0.01
2020-08-12 20:11:50.6660,-0.03,-0.02,0.02
2020-08-12 20:11:50.7650,-0.02,-0.0,-0.02
2020-08-12 20:11:50.8640,-0.03,-0.03,0.01
2020-08-12 20:11:50.9640,-0.03,-0.06,0.01
2020-08-12 20:11:51.0630,0.14,-0.24,0.01
2020-08-12 20:11:51.1620,0.52,-0.65,0.0
2020-08-12 20:11:51.2620,0.18,-0.28,0.12
2020-08-12 20:11:51.3610,0.44,-0.1,0.09
2020-08-12 20:11:51.4600,0.49,0.43,-0.12
2020-08-12 20:11:51.5590,0.11,0.36,-0.02
2020-08-12 20:11:51.6590,-0.37,0.22,-0.19
2020-08-12 20:11:51.7580,-0.12,0.51,-0.06
2020-08-12 20:11:51.8570,-0.4,-0.24,0.16
2020-08-12 20:11:51.9560,-1.26,-0.72,0.02
2020-08-12 20:11:52.0560,-0.22,-0.09,-0.09
2020-08-12 20:11:52.1550,-0.14,-0.05,-0.12
2020-08-12 20:11:52.2540,-0.06,-0.04,0.06
2020-08-12 20:11:52.3540,-0.06,0.0,0.03
2020-08-12 20:11:52.4530,-0.05,-0.01,-0.01
2020-08-12 20:11:52.5520,-0.05,-0.02,-0.0
2020-08-12 20:11:52.6510,-0.02,-0.01,0.01
2020-08-12 20:11:52.7500,0.01,-0.09,-0.0
2020-08-12 20:11:52.8500,0.13,-0.35,0.02
2020-08-12 20:11:52.9490,0.52,-0.5,0.1
2020-08-12 20:11:53.0480,-0.05,-0.19,0.19
2020-08-12 20:11:53.1470,0.31,0.09,0.05
2020-08-12 20:11:53.2470,0.18,0.26,-0.09
2020-08-12 20:11:53.3460,0.08,0.46,-0.16
2020-08-12 20:11:53.4450,-0.21,0.51,-0.21
2020-08-12 20:11:53.5450,-0.57,0.11,0.04
2020-08-12 20:11:53.6440,-0.63,-0.35,0.12
2020-08-12 20:11:53.7430,1.71,-1.05,-0.37
2020-08-12 20:11:53.8430,-0.04,0.05,0.45
2020-08-12 20:11:53.9420,-0.03,-0.04,-0.09
2020-08-12 20:11:54.0410,-0.02,-0.03,-0.02
2020-08-12 20:11:54.1400,-0.06,-0.01,0.01
2020-08-12 20:11:54.2400,-0.06,-0.0,0.0
2020-08-12 20:11:54.3390,0.0,-0.02,0.01
2020-08-12 20:11:54.4380,0.03,-0.01,0.02
2020-08-12 20:11:54.5370,0.04,-0.05,-0.01
2020-08-12 20:11:54.6370,0.03,-0.23,0.04
2020-08-12 20:11:54.7360,0.32,-0.51,-0.05
2020-08-12 20:11:54.8350,0.33,-0.45,0.27
2020-08-12 20:11:54.9340,0.49,-0.17,0.04
2020-08-12 20:11:55.0340,0.43,0.44,-0.11
2020-08-12 20:11:55.1330,0.17,0.37,-0.03
2020-08-12 20:11:55.2320,-0.1,0.42,-0.17
2020-08-12 20:11:55.3310,-0.15,0.27,-0.0
2020-08-12 20:11:55.4310,-0.66,-0.45,0.31
2020-08-12 20:11:55.5300,-1.0,-0.55,-0.03
2020-08-12 20:11:55.6290,-0.58,-0.21,-0.06
2020-08-12 20:11:55.7290,-0.04,0.0,-0.08
2020-08-12 20:11:55.8280,0.03,-0.03,0.04
2020-08-12 20:11:55.9270,-0.03,0.01,0.04
2020-08-12 20:11:56.0270,-0.01,-0.01,-0.01
2020-08-12 20:11:56.1260,-0.03,-0.0,0.01
2020-08-12 20:11:56.2250,-0.01,-0.02,0.01
2020-08-12 20:11:56.3240,0.02,-0.06,0.02
2020-08-12 20:11:56.4230,0.15,-0.28,-0.03
2020-08-12 20:11:56.5230,0.43,-0.57,0.05
2020-08-12 20:11:56.6220,-0.06,-0.38,0.22
2020-08-12 20:11:56.7210,0.38,0.19,0.05
2020-08-12 20:11:56.8200,0.38,0.36,-0.15
2020-08-12 20:11:56.9200,0.18,0.47,-0.13
2020-08-12 20:11:57.0190,-0.22,0.42,-0.29
2020-08-12 20:11:57.1180,-0.35,0.03,-0.02
2020-08-12 20:11:57.2170,-0.73,-0.57,0.29
2020-08-12 20:11:57.3170,2.18,-0.31,-0.11
2020-08-12 20:11:57.4160,-0.56,0.07,0.52
2020-08-12 20:11:57.5160,-0.23,-0.06,-0.02
2020-08-12 20:11:57.6150,-0.08,-0.04,0.06
2020-08-12 20:11:57.7140,-0.05,-0.0,0.03
2020-08-12 20:11:57.8130,-0.04,-0.01,0.0
2020-08-12 20:11:57.9120,-0.03,-0.0,0.0
2020-08-12 20:11:58.0120,0.02,-0.04,-0.01
2020-08-12 20:11:58.1110,0.03,-0.07,0.04
2020-08-12 20:11:58.2100,0.18,-0.38,-0.03
2020-08-12 20:11:58.3090,0.51,-0.45,0.11
2020-08-12 20:11:58.4090,-0.1,-0.34,0.3
2020-08-12 20:11:58.5080,0.26,0.08,0.04
2020-08-12 20:11:58.6070,0.35,0.44,-0.18
2020-08-12 20:11:58.7070,0.33,0.67,-0.24
2020-08-12 20:11:58.8060,-0.15,0.41,-0.22
2020-08-12 20:11:58.9050,-0.56,-0.24,0.18
2020-08-12 20:11:59.0040,-0.59,-0.58,0.15
2020-08-12 20:11:59.1040,1.63,-0.14,-0.07
2020-08-12 20:11:59.2030,-0.4,0.06,0.23
2020-08-12 20:11:59.3020,-0.1,-0.03,-0.09
2020-08-12 20:11:59.4010,-0.0,-0.01,0.03
2020-08-12 20:11:59.5010,-0.03,-0.01,-0.02
2020-08-12 20:11:59.6000,-0.03,-0.0,0.03
2020-08-12 20:11:59.6990,-0.03,-0.01,-0.0
2020-08-12 20:11:59.7990,-0.05,-0.0,0.01
2020-08-12 20:11:59.8980,-0.03,-0.05,0.01
2020-08-12 20:11:59.9980,0.06,-0.23,0.01
2020-08-12 20:12:00.0960,0.3,-0.41,0.02
2020-08-12 20:12:00.1950,0.41,-0.45,0.19
2020-08-12 20:12:00.2950,0.23,-0.11,0.19
2020-08-12 20:12:00.3940,0.22,0.16,-0.02
2020-08-12 20:12:00.4930,0.27,0.4,-0.12
2020-08-12 20:12:00.5930,0.05,0.37,-0.04
2020-08-12 20:12:00.6920,-0.21,0.26,-0.16
2020-08-12 20:12:00.7910,-0.41,-0.1,0.07
2020-08-12 20:12:00.8900,-0.8,-0.62,-0.07
2020-08-12 20:12:00.9900,-0.76,0.01,0.27
2020-08-12 20:12:01.0890,-0.31,-0.03,-0.08
2020-08-12 20:12:01.1880,-0.13,0.01,0.11
2020-08-12 20:12:01.2870,-0.09,0.02,0.02
2020-08-12 20:12:01.3870,-0.03,-0.01,0.01
2020-08-12 20:12:01.4860,-0.06,-0.0,0.04
2020-08-12 20:12:01.5850,-0.08,0.01,0.03
2020-08-12 20:12:01.6850,-0.04,-0.04,0.0
2020-08-12 20:12:01.7840,-0.08,-0.06,0.03
2020-08-12 20:12:01.8830,0.02,-0.29,0.07
2020-08-12 20:12:01.9820,0.42,-0.36,-0.06
2020-08-12 20:12:02.0820,0.23,-0.39,0.11
2020-08-12 20:12:02.1810,0.46,-0.03,-0.04
2020-08-12 20:12:02.2820,0.27,0.2,-0.11
2020-08-12 20:12:02.3790,0.18,0.3,-0.18
2020-08-12 20:12:02.4790,-0.13,0.62,-0.3
2020-08-12 20:12:02.5780,-0.55,0.06,0.07
2020-08-12 20:12:02.6770,-0.46,-0.28,0.26
2020-08-12 20:12:02.7760,2.27,-0.56,0.43
2020-08-12 20:12:02.8760,-0.27,0.0,0.53
2020-08-12 20:12:02.9750,-0.04,-0.03,-0.05
2020-08-12 20:12:03.0740,-0.01,-0.02,0.01
2020-08-12 20:12:03.1740,-0.06,-0.01,0.01
2020-08-12 20:12:03.2730,-0.02,-0.03,-0.0
2020-08-12 20:12:03.3720,0.0,0.0,0.01
2020-08-12 20:12:03.4710,0.01,-0.02,-0.03
2020-08-12 20:12:03.5710,0.03,-0.08,-0.02
2020-08-12 20:12:03.6700,0.14,-0.29,-0.05
2020-08-12 20:12:03.7690,0.61,-0.59,0.06
2020-08-12 20:12:03.8680,0.03,-0.33,0.14
2020-08-12 20:12:03.9680,0.29,0.05,0.03
2020-08-12 20:12:04.0670,0.24,0.31,-0.14
2020-08-12 20:12:04.1660,0.29,0.63,-0.14
2020-08-12 20:12:04.2660,-0.07,0.56,-0.08
2020-08-12 20:12:04.3650,-0.34,-0.01,-0.04
2020-08-12 20:12:04.4640,-0.61,-0.54,0.19
2020-08-12 20:12:04.5630,1.77,-0.41,0.6
2020-08-12 20:12:04.6630,-0.1,0.07,0.55
2020-08-12 20:12:04.7620,0.03,-0.02,-0.13
2020-08-12 20:12:04.8610,-0.02,-0.02,-0.03
2020-08-12 20:12:04.9600,-0.08,0.02,-0.01
2020-08-12 20:12:05.0600,-0.04,-0.02,0.01
2020-08-12 20:12:05.1590,-0.04,-0.01,0.02
2020-08-12 20:12:05.2580,-0.05,-0.01,0.01
2020-08-12 20:12:05.3570,-0.01,-0.05,0.0
2020-08-12 20:12:05.4570,0.1,-0.27,-0.01
2020-08-12 20:12:05.5560,0.5,-0.66,0.07
2020-08-12 20:12:05.6550,0.22,-0.19,0.1
2020-08-12 20:12:05.7540,0.45,0.05,-0.03
2020-08-12 20:12:05.8540,0.09,0.15,-0.05
2020-08-12 20:12:05.9530,0.11,0.49,-0.06
2020-08-12 20:12:06.0520,-0.06,0.56,-0.05
2020-08-12 20:12:06.1520,-0.17,0.24,-0.2
2020-08-12 20:12:06.2510,-0.42,-0.35,0.12
2020-08-12 20:12:06.3500,-0.76,-0.44,0.04
2020-08-12 20:12:06.4490,-0.37,-0.58,-0.26
2020-08-12 20:12:06.5490,-0.29,-0.02,-0.11
2020-08-12 20:12:06.6480,-0.09,0.01,0.11
2020-08-12 20:12:06.7470,-0.05,-0.0,0.03
2020-08-12 20:12:06.8470,-0.06,0.01,0.03
2020-08-12 20:12:06.9460,-0.01,-0.02,0.02
2020-08-12 20:12:07.0450,0.01,-0.02,-0.01
2020-08-12 20:12:07.1440,-0.04,-0.06,-0.02
2020-08-12 20:12:07.2430,0.02,-0.15,0.01
2020-08-12 20:12:07.3430,0.23,-0.4,-0.08
2020-08-12 20:12:07.4420,0.21,-0.53,0.13
2020-08-12 20:12:07.5410,-0.12,-0.24,0.15
2020-08-12 20:12:07.6400,0.11,0.16,0.08
2020-08-12 20:12:07.7400,0.31,0.36,-0.13
2020-08-12 20:12:07.8390,0.21,0.53,-0.18
2020-08-12 20:12:07.9380,-0.04,0.42,-0.15
2020-08-12 20:12:08.0380,-0.47,-0.16,0.25
2020-08-12 20:12:08.1370,-0.78,-0.61,0.19
2020-08-12 20:12:08.2360,1.42,-0.88,-0.88
2020-08-12 20:12:08.3360,-0.39,-0.08,0.35
2020-08-12 20:12:08.4350,-0.21,-0.01,0.12
2020-08-12 20:12:08.5340,-0.07,-0.0,0.05
2020-08-12 20:12:08.6330,-0.07,0.0,0.03
2020-08-12 20:12:08.7320,-0.05,-0.01,0.01
2020-08-12 20:12:08.8320,-0.04,-0.01,0.02
2020-08-12 20:12:08.9310,-0.03,-0.02,0.03
2020-08-12 20:12:09.0300,0.0,-0.01,0.01
2020-08-12 20:12:09.1300,0.04,-0.15,0.01
2020-08-12 20:12:09.2290,0.19,-0.37,-0.02
2020-08-12 20:12:09.3280,0.22,-0.38,0.03
2020-08-12 20:12:09.4270,0.02,-0.17,0.27
2020-08-12 20:12:09.5270,0.28,0.14,0.02
2020-08-12 20:12:09.6260,0.32,0.41,-0.17
2020-08-12 20:12:09.7250,0.32,0.56,-0.26
2020-08-12 20:12:09.8250,-0.01,0.31,-0.2
2020-08-12 20:12:09.9240,-0.6,-0.54,0.17
2020-08-12 20:12:10.0240,-1.27,-0.32,0.39
2020-08-12 20:12:10.1220,0.15,0.01,0.79
2020-08-12 20:12:10.2220,0.04,0.02,-0.12
2020-08-12 20:12:10.3210,-0.16,0.01,0.13
2020-08-12 20:12:10.4200,-0.08,-0.02,0.07
2020-08-12 20:12:10.5190,-0.06,0.01,0.03
2020-08-12 20:12:10.6190,-0.03,0.0,0.0
2020-08-12 20:12:10.7180,-0.04,-0.0,0.02
2020-08-12 20:12:10.8170,-0.05,-0.01,0.0
2020-08-12 20:12:10.9170,-0.01,-0.04,0.02
2020-08-12 20:12:11.0160,0.03,-0.09,0.0
2020-08-12 20:12:11.1150,0.25,-0.37,-0.06
2020-08-12 20:12:11.2140,0.59,-0.48,0.06
2020-08-12 20:12:11.3130,-0.15,-0.11,0.22
2020-08-12 20:12:11.4130,0.16,0.19,0.08
2020-08-12 20:12:11.5120,0.31,0.31,-0.07
2020-08-12 20:12:11.6110,0.14,0.47,-0.18
2020-08-12 20:12:11.7100,0.1,0.4,-0.27
2020-08-12 20:12:11.8100,-0.36,-0.12,0.1
2020-08-12 20:12:11.9090,-0.65,-0.32,0.34
2020-08-12 20:12:12.0080,-0.59,-0.4,-0.21
2020-08-12 20:12:12.1070,-0.33,-0.41,-0.0
2020-08-12 20:12:12.2070,0.12,0.04,-0.16
2020-08-12 20:12:12.3060,-0.0,-0.05,0.03
2020-08-12 20:12:12.4050,-0.09,-0.0,0.01
2020-08-12 20:12:12.5050,-0.03,-0.0,-0.01
2020-08-12 20:12:12.6040,0.01,0.01,-0.01
2020-08-12 20:12:12.7030,0.02,-0.0,0.01
2020-08-12 20:12:12.8030,-0.01,-0.04,0.01
2020-08-12 20:12:12.9020,0.08,-0.11,0.03
2020-08-12 20:12:13.0010,0.27,-0.48,-0.18
2020-08-12 20:12:13.1000,0.18,-0.48,0.2
2020-08-12 20:12:13.2000,-0.47,-0.33,0.19
2020-08-12 20:12:13.2990,0.29,0.1,0.03
2020-08-12 20:12:13.3980,0.29,0.38,-0.09
2020-08-12 20:12:13.4970,0.09,0.65,-0.12
2020-08-12 20:12:13.5970,-0.05,0.54,-0.34
2020-08-12 20:12:13.6960,-0.4,0.1,0.01
2020-08-12 20:12:13.7950,-0.49,-0.53,0.19
2020-08-12 20:12:13.8940,-0.23,-0.42,0.25
2020-08-12 20:12:13.9940,0.2,0.0,-0.27
2020-08-12 20:12:14.0930,0.15,-0.06,-0.29
2020-08-12 20:12:14.1920,0.01,-0.03,-0.03
2020-08-12 20:12:14.2910,-0.05,-0.03,-0.0
2020-08-12 20:12:14.3910,-0.02,0.0,-0.0
2020-08-12 20:12:14.4900,-0.04,0.0,-0.01
2020-08-12 20:12:14.5900,-0.04,-0.02,0.02
2020-08-12 20:12:14.6890,-0.03,-0.02,-0.01
2020-08-12 20:12:14.7880,-0.04,-0.08,0.01
2020-08-12 20:12:14.8870,0.22,-0.43,-0.07
2020-08-12 20:12:14.9860,0.51,-0.61,0.16
2020-08-12 20:12:15.0860,-0.1,-0.24,0.12
2020-08-12 20:12:15.1850,0.07,0.09,0.04
2020-08-12 20:12:15.2840,0.23,0.41,-0.11
2020-08-12 20:12:15.3830,0.38,0.69,-0.17
2020-08-12 20:12:15.4830,-0.05,0.47,-0.1
2020-08-12 20:12:15.5820,-0.52,-0.09,0.14
2020-08-12 20:12:15.6810,-0.53,-0.28,0.19
2020-08-12 20:12:15.7810,-0.51,-0.45,-0.13
2020-08-12 20:12:15.8800,-0.2,-0.41,-0.28
2020-08-12 20:12:15.9790,-0.02,0.07,-0.09
2020-08-12 20:12:16.0780,-0.08,-0.04,0.01
2020-08-12 20:12:16.1780,-0.06,-0.02,0.01
2020-08-12 20:12:16.2770,-0.09,0.0,0.03
2020-08-12 20:12:16.3760,-0.02,-0.0,0.03
2020-08-12 20:12:16.4750,-0.07,-0.02,0.0
2020-08-12 20:12:16.5750,0.02,-0.05,0.04
2020-08-12 20:12:16.6740,0.15,-0.25,-0.04
2020-08-12 20:12:16.7730,0.58,-0.82,0.16
2020-08-12 20:12:16.8720,-0.02,-0.27,0.06
2020-08-12 20:12:16.9720,0.36,0.17,-0.04
2020-08-12 20:12:17.0710,0.3,0.47,-0.04
2020-08-12 20:12:17.1700,0.12,0.48,-0.22
2020-08-12 20:12:17.2700,-0.22,0.39,-0.27
2020-08-12 20:12:17.3690,-0.41,-0.06,0.13
2020-08-12 20:12:17.4680,-0.83,-0.6,0.08
2020-08-12 20:12:17.5670,0.15,-1.13,-1.1
2020-08-12 20:12:17.6670,-0.37,-0.01,0.17
2020-08-12 20:12:17.7660,-0.22,0.0,0.11
2020-08-12 20:12:17.8650,-0.07,-0.03,0.03
2020-08-12 20:12:17.9640,-0.08,-0.0,0.01
2020-08-12 20:12:18.0640,-0.04,-0.01,0.01
2020-08-12 20:12:18.1630,0.01,-0.0,0.04
2020-08-12 20:12:18.2620,-0.0,-0.05,0.01
2020-08-12 20:12:18.3610,0.1,-0.19,-0.02
2020-08-12 20:12:18.4610,0.47,-0.76,0.12
2020-08-12 20:12:18.5600,0.09,-0.38,0.17
2020-08-12 20:12:18.6590,0.25,0.05,0.06
2020-08-12 20:12:18.7590,0.43,0.48,-0.14
2020-08-12 20:12:18.8580,0.4,0.72,-0.28
2020-08-12 20:12:18.9570,-0.27,0.31,-0.29
2020-08-12 20:12:19.0560,-0.57,-0.19,0.03
2020-08-12 20:12:19.1560,-0.81,-0.47,0.12
2020-08-12 20:12:19.2550,-0.24,-1.17,-0.68
2020-08-12 20:12:19.3540,0.05,-0.01,0.24
2020-08-12 20:12:19.4530,-0.1,-0.03,-0.05
2020-08-12 20:12:19.5530,-0.08,-0.04,0.01
2020-08-12 20:12:19.6520,-0.04,0.0,-0.02
2020-08-12 20:12:19.7510,-0.04,-0.01,0.01
2020-08-12 20:12:19.8500,-0.05,-0.01,0.01
2020-08-12 20:12:19.9500,-0.06,-0.03,0.01
2020-08-12 20:12:20.0490,0.0,-0.11,0.01
2020-08-12 20:12:20.1480,0.2,-0.36,-0.05
2020-08-12 20:12:20.2480,0.59,-0.56,0.05
2020-08-12 20:12:20.3470,-0.09,-0.18,0.09
2020-08-12 20:12:20.4460,0.22,0.33,-0.01
2020-08-12 20:12:20.5450,0.39,0.59,-0.19
2020-08-12 20:12:20.6450,0.11,0.6,-0.04
2020-08-12 20:12:20.7440,-0.2,-0.01,-0.1
2020-08-12 20:12:20.8430,-0.59,-0.24,0.26
2020-08-12 20:12:20.9430,-0.86,-0.51,-0.07
2020-08-12 20:12:21.0420,-0.5,-0.26,0.41
2020-08-12 20:12:21.1410,0.05,0.04,-0.02
2020-08-12 20:12:21.2400,-0.13,-0.01,0.06
2020-08-12 20:12:21.3400,-0.05,-0.02,0.03
2020-08-12 20:12:21.4390,-0.08,0.0,0.01
2020-08-12 20:12:21.5380,-0.03,-0.01,0.01
2020-08-12 20:12:21.6380,-0.01,-0.01,0.01
2020-08-12 20:12:21.7370,0.0,-0.02,-0.02
2020-08-12 20:12:21.8360,0.06,-0.11,-0.01
2020-08-12 20:12:21.9350,0.22,-0.34,0.0
2020-08-12 20:12:22.0340,0.34,-0.47,-0.01
2020-08-12 20:12:22.1340,0.02,-0.16,0.19
2020-08-12 20:12:22.2330,0.22,0.04,0.05
2020-08-12 20:12:22.3320,0.22,0.32,-0.01
2020-08-12 20:12:22.4310,0.3,0.54,-0.13
2020-08-12 20:12:22.5310,0.02,0.29,-0.29
2020-08-12 20:12:22.6300,-0.65,-0.34,0.17
2020-08-12 20:12:22.7290,-1.1,-0.51,0.19
2020-08-12 20:12:22.8280,-0.28,-0.28,0.42
2020-08-12 20:12:22.9280,0.11,-0.01,-0.11
2020-08-12 20:12:23.0270,0.05,-0.01,0.02
2020-08-12 20:12:23.1260,-0.12,0.01,0.06
2020-08-12 20:12:23.2260,-0.05,0.01,0.02
2020-08-12 20:12:23.3250,-0.05,-0.0,0.02
2020-08-12 20:12:23.4240,-0.0,-0.03,-0.01
2020-08-12 20:12:23.5240,0.0,-0.01,0.03
2020-08-12 20:12:23.6230,-0.01,-0.07,0.02
2020-08-12 20:12:23.7220,0.13,-0.31,-0.08
2020-08-12 20:12:23.8210,0.49,-0.4,0.14
2020-08-12 20:12:23.9200,0.06,-0.13,0.12
2020-08-12 20:12:24.0200,0.32,0.0,0.1
2020-08-12 20:12:24.1190,0.22,0.19,-0.04
2020-08-12 20:12:24.2180,0.29,0.42,-0.18
2020-08-12 20:12:24.3170,0.0,0.42,-0.04
2020-08-12 20:12:24.4170,-0.45,-0.17,0.28
2020-08-12 20:12:24.5160,-0.71,-0.62,0.13
2020-08-12 20:12:24.6150,1.69,-0.14,0.23
2020-08-12 20:12:24.7140,-0.41,0.08,0.25
2020-08-12 20:12:24.8140,-0.1,-0.06,-0.02
2020-08-12 20:12:24.9130,-0.04,-0.02,0.05
2020-08-12 20:12:25.0120,-0.04,0.01,0.01
2020-08-12 20:12:25.1120,-0.05,0.01,0.02
2020-08-12 20:12:25.2110,-0.03,0.0,0.01
2020-08-12 20:12:25.3100,0.03,-0.02,-0.02
2020-08-12 20:12:25.4100,0.07,-0.06,0.02
2020-08-12 20:12:25.5090,0.14,-0.31,0.0
2020-08-12 20:12:25.6080,0.56,-0.62,-0.05
2020-08-12 20:12:25.7070,0.04,-0.25,0.07
2020-08-12 20:12:25.8060,0.24,0.11,0.05
2020-08-12 20:12:25.9060,0.5,0.4,-0.17
2020-08-12 20:12:26.0050,0.33,0.59,-0.13
2020-08-12 20:12:26.1040,-0.16,0.27,-0.23
2020-08-12 20:12:26.2030,-0.75,-0.49,0.16
2020-08-12 20:12:26.3030,-1.03,-0.5,0.14
2020-08-12 20:12:26.4020,-0.35,-0.32,-0.05
2020-08-12 20:12:26.5010,0.05,-0.0,-0.09
2020-08-12 20:12:26.6010,0.05,-0.01,0.07
2020-08-12 20:12:26.7000,-0.07,0.02,0.03
2020-08-12 20:12:26.7990,-0.04,-0.02,0.02
2020-08-12 20:12:26.8980,-0.02,-0.01,0.05
2020-08-12 20:12:26.9980,-0.03,-0.0,0.02
2020-08-12 20:12:27.0970,-0.0,-0.05,0.02
2020-08-12 20:12:27.1960,0.04,-0.1,0.04
2020-08-12 20:12:27.2950,0.22,-0.52,-0.04
2020-08-12 20:12:27.3950,0.4,-0.5,0.0
2020-08-12 20:12:27.4940,-0.16,-0.23,0.26
2020-08-12 20:12:27.5930,0.36,0.46,-0.01
2020-08-12 20:12:27.6930,0.59,0.59,-0.29
2020-08-12 20:12:27.7920,0.13,0.18,-0.06
2020-08-12 20:12:27.8910,-0.54,-0.08,0.15
2020-08-12 20:12:27.9910,-0.72,-0.25,0.46
2020-08-12 20:12:28.0900,0.32,-0.11,-0.03
2020-08-12 20:12:28.1890,-0.32,-0.01,0.27
2020-08-12 20:12:28.2880,-0.08,-0.09,-0.16
2020-08-12 20:12:28.3870,-0.03,-0.03,0.03
2020-08-12 20:12:28.4870,-0.04,-0.01,-0.01
2020-08-12 20:12:28.5860,-0.1,0.01,-0.02
2020-08-12 20:12:28.6850,-0.03,0.01,-0.01
2020-08-12 20:12:28.7840,-0.02,-0.01,0.02
2020-08-12 20:12:28.8840,0.02,-0.07,-0.0
2020-08-12 20:12:28.9830,0.19,-0.34,-0.07
2020-08-12 20:12:29.0820,0.69,-0.44,0.07
2020-08-12 20:12:29.1810,-0.02,-0.29,0.08
2020-08-12 20:12:29.2810,0.31,0.1,0.02
2020-08-12 20:12:29.3800,0.18,0.24,-0.05
2020-08-12 20:12:29.4790,0.33,0.87,-0.27
2020-08-12 20:12:29.5790,-0.16,0.48,-0.18
2020-08-12 20:12:29.6780,-0.6,-0.35,0.19
2020-08-12 20:12:29.7770,-0.95,-1.28,-0.38
2020-08-12 20:12:29.8760,-0.22,-0.18,-0.43
2020-08-12 20:12:29.9760,-0.24,-0.06,-0.15
2020-08-12 20:12:30.0750,-0.02,-0.01,-0.0
2020-08-12 20:12:30.1750,-0.07,0.01,0.03
2020-08-12 20:12:30.2740,-0.02,-0.01,0.02
2020-08-12 20:12:30.3730,-0.01,-0.03,0.0
2020-08-12 20:12:30.4720,0.03,0.0,-0.02
2020-08-12 20:12:30.5710,0.05,-0.06,-0.04
2020-08-12 20:12:30.6710,0.22,-0.43,0.04
2020-08-12 20:12:30.7700,0.62,-0.66,-0.06
2020-08-12 20:12:30.8690,0.01,0.04,0.11
2020-08-12 20:12:30.9680,0.23,0.32,0.04
2020-08-12 20:12:31.0680,0.11,0.35,-0.06
2020-08-12 20:12:31.1670,0.03,0.35,-0.1
2020-08-12 20:12:31.2660,-0.15,0.35,-0.28
2020-08-12 20:12:31.3650,-0.54,0.02,0.2
2020-08-12 20:12:31.4660,-1.02,-0.59,0.0
2020-08-12 20:12:31.5640,-0.31,-0.59,-0.23
2020-08-12 20:12:31.6630,-0.03,0.01,-0.27
2020-08-12 20:12:31.7630,-0.01,-0.04,0.01
2020-08-12 20:12:31.8620,-0.04,-0.01,0.03
2020-08-12 20:12:31.9610,-0.06,-0.03,0.02
2020-08-12 20:12:32.0610,-0.01,-0.03,0.02
2020-08-12 20:12:32.1600,0.01,0.01,0.01
2020-08-12 20:12:32.2590,0.07,-0.09,-0.02
2020-08-12 20:12:32.3580,0.23,-0.36,-0.04
2020-08-12 20:12:32.4570,0.73,-0.67,0.03
2020-08-12 20:12:32.5570,-0.1,-0.26,0.24
2020-08-12 20:12:32.6560,0.28,0.23,0.0
2020-08-12 20:12:32.7550,0.29,0.45,-0.19
2020-08-12 20:12:32.8540,0.23,0.75,-0.14
2020-08-12 20:12:32.9540,0.01,0.5,-0.23
2020-08-12 20:12:33.0530,-0.61,-0.55,0.2
2020-08-12 20:12:33.1520,-0.98,-0.74,-0.08
2020-08-12 20:12:33.2510,-0.43,-0.41,0.03
2020-08-12 20:12:33.3510,0.07,-0.01,-0.16
2020-08-12 20:12:33.4500,0.09,-0.03,-0.06
2020-08-12 20:12:33.5500,-0.09,-0.01,0.01
2020-08-12 20:12:33.6490,-0.06,-0.0,-0.01
2020-08-12 20:12:33.7480,-0.07,-0.0,0.0
2020-08-12 20:12:33.8470,-0.04,-0.02,0.02
2020-08-12 20:12:33.9460,-0.01,-0.05,-0.01
2020-08-12 20:12:34.0460,0.04,-0.15,-0.05
2020-08-12 20:12:34.1450,0.46,-0.61,0.12
2020-08-12 20:12:34.2440,-0.0,-0.3,0.11
2020-08-12 20:12:34.3440,0.32,0.03,-0.03
2020-08-12 20:12:34.4430,0.3,0.22,-0.08
2020-08-12 20:12:34.5420,0.26,0.46,-0.09
2020-08-12 20:12:34.6410,0.07,0.49,-0.04
2020-08-12 20:12:34.7410,-0.29,0.24,0.03
2020-08-12 20:12:34.8400,-0.66,-0.25,0.22
2020-08-12 20:12:34.9390,-0.46,-0.49,-0.24
2020-08-12 20:12:35.0380,-0.05,0.07,0.26
2020-08-12 20:12:35.1380,-0.1,-0.05,-0.1
2020-08-12 20:12:35.2370,0.0,-0.03,0.01
2020-08-12 20:12:35.3360,-0.1,-0.0,0.01
2020-08-12 20:12:35.4350,-0.08,0.0,-0.0
2020-08-12 20:12:35.5350,-0.05,-0.03,0.01
2020-08-12 20:12:35.6340,-0.01,-0.06,0.0
2020-08-12 20:12:35.7330,0.04,-0.11,-0.02
2020-08-12 20:12:35.8330,0.27,-0.44,0.01
2020-08-12 20:12:35.9320,0.57,-0.72,0.03
2020-08-12 20:12:36.0310,0.15,-0.17,0.12
2020-08-12 20:12:36.1300,0.23,0.23,0.01
2020-08-12 20:12:36.2300,0.49,0.68,-0.36
2020-08-12 20:12:36.3290,0.17,0.72,-0.15
2020-08-12 20:12:36.4280,-0.12,0.1,-0.1
2020-08-12 20:12:36.5280,-0.64,-0.59,0.11
2020-08-12 20:12:36.6270,-0.89,-0.79,-0.59
2020-08-12 20:12:36.7260,-0.37,0.08,-0.03
2020-08-12 20:12:36.8250,-0.1,-0.06,-0.13
2020-08-12 20:12:36.9250,-0.02,-0.02,0.03
2020-08-12 20:12:37.0240,-0.06,0.0,0.01
2020-08-12 20:12:37.1230,-0.04,-0.01,-0.0
2020-08-12 20:12:37.2220,-0.04,-0.03,-0.01
2020-08-12 20:12:37.3210,-0.07,-0.06,-0.03
2020-08-12 20:12:37.4210,0.07,-0.15,-0.01
2020-08-12 20:12:37.5200,0.41,-0.68,0.08
2020-08-12 20:12:37.6190,0.28,-0.31,0.05
2020-08-12 20:12:37.7190,0.41,0.02,-0.06
2020-08-12 20:12:37.8180,0.43,0.37,-0.14
2020-08-12 20:12:37.9170,0.09,0.37,-0.1
2020-08-12 20:12:38.0160,-0.18,0.53,0.07
2020-08-12 20:12:38.1160,-0.17,0.39,-0.26
2020-08-12 20:12:38.2150,-0.74,-0.54,0.44
2020-08-12 20:12:38.3150,2.83,-1.18,1.3
2020-08-12 20:12:38.4130,-0.34,0.01,0.36
2020-08-12 20:12:38.5130,-0.21,0.04,0.08
2020-08-12 20:12:38.6120,-0.03,-0.03,0.07
2020-08-12 20:12:38.7110,-0.06,-0.01,0.01
2020-08-12 20:12:38.8100,-0.07,0.01,0.01
2020-08-12 20:12:38.9100,0.0,-0.02,-0.01
2020-08-12 20:12:39.0090,0.01,-0.03,0.05
2020-08-12 20:12:39.1080,0.02,-0.08,0.01
2020-08-12 20:12:39.2080,0.17,-0.37,-0.09
2020-08-12 20:12:39.3070,0.66,-0.65,0.17
2020-08-12 20:12:39.4060,-0.18,-0.18,0.19
2020-08-12 20:12:39.5050,0.34,0.38,0.05
2020-08-12 20:12:39.6050,0.25,0.44,-0.17
2020-08-12 20:12:39.7040,0.0,0.43,-0.1
2020-08-12 20:12:39.8030,-0.15,0.45,-0.19
2020-08-12 20:12:39.9030,-0.26,-0.02,-0.0
2020-08-12 20:12:40.0020,-0.79,-0.57,0.24
2020-08-12 20:12:40.1010,2.09,-1.06,-0.67
2020-08-12 20:12:40.2000,-0.33,0.03,0.14
2020-08-12 20:12:40.3000,-0.18,-0.0,0.05
2020-08-12 20:12:40.3990,-0.08,-0.01,0.03
2020-08-12 20:12:40.4980,-0.05,-0.0,0.03
2020-08-12 20:12:40.5980,-0.01,0.0,-0.0
2020-08-12 20:12:40.6970,-0.04,-0.02,0.01
2020-08-12 20:12:40.7960,-0.05,-0.02,-0.02
2020-08-12 20:12:40.8950,0.02,-0.09,0.02
2020-08-12 20:12:40.9940,0.37,-0.39,-0.01
2020-08-12 20:12:41.0940,0.31,-0.48,0.07
2020-08-12 20:12:41.1930,-0.23,-0.32,0.26
2020-08-12 20:12:41.2920,0.29,0.24,-0.01
2020-08-12 20:12:41.3910,0.43,0.55,-0.18
2020-08-12 20:12:41.4910,0.15,0.65,-0.17
2020-08-12 20:12:41.5900,-0.21,0.37,-0.13
2020-08-12 20:12:41.6890,-0.74,-0.64,0.18
2020-08-12 20:12:41.7880,-0.75,-0.54,0.04
2020-08-12 20:12:41.8880,-1.11,-0.19,-0.34
2020-08-12 20:12:41.9870,-0.13,0.04,-0.0
2020-08-12 20:12:42.0860,-0.02,-0.04,0.02
2020-08-12 20:12:42.1860,-0.06,-0.0,0.01
2020-08-12 20:12:42.2850,-0.06,-0.02,-0.0
2020-08-12 20:12:42.3840,-0.07,-0.02,0.0
2020-08-12 20:12:42.4840,-0.02,-0.02,0.03
2020-08-12 20:12:42.5830,0.02,-0.03,-0.02
2020-08-12 20:12:42.6820,0.07,-0.15,-0.04
2020-08-12 20:12:42.7810,0.34,-0.57,-0.01
2020-08-12 20:12:42.8810,0.21,-0.37,0.17
2020-08-12 20:12:42.9800,0.27,-0.24,0.17
2020-08-12 20:12:43.0790,0.21,0.35,-0.03
2020-08-12 20:12:43.1780,0.32,0.59,-0.16
2020-08-12 20:12:43.2780,0.07,0.62,-0.1
2020-08-12 20:12:43.3770,-0.09,0.16,-0.2
2020-08-12 20:12:43.4760,-0.53,-0.24,0.21
2020-08-12 20:12:43.5750,-0.72,-0.9,-0.21
2020-08-12 20:12:43.6750,0.05,0.06,-0.09
2020-08-12 20:12:43.7740,-0.11,-0.08,-0.24
2020-08-12 20:12:43.8730,-0.0,-0.02,0.04
2020-08-12 20:12:43.9720,-0.04,0.01,0.02
2020-08-12 20:12:44.0720,-0.01,0.01,0.01
2020-08-12 20:12:44.1710,0.03,-0.01,-0.01
2020-08-12 20:12:44.2700,-0.06,-0.04,-0.01
2020-08-12 20:12:44.3700,-0.03,-0.05,0.0
2020-08-12 20:12:44.4690,0.09,-0.24,-0.06
2020-08-12 20:12:44.5680,0.45,-0.6,0.02
2020-08-12 20:12:44.6670,0.05,-0.3,0.15
2020-08-12 20:12:44.7670,0.41,-0.05,-0.03
2020-08-12 20:12:44.8660,0.23,0.29,-0.03
2020-08-12 20:12:44.9650,0.19,0.4,-0.11
2020-08-12 20:12:45.0640,-0.11,0.38,-0.08
2020-08-12 20:12:45.1640,-0.17,0.45,-0.19
2020-08-12 20:12:45.2630,-0.54,-0.32,0.23
2020-08-12 20:12:45.3620,1.91,-0.79,0.6
2020-08-12 20:12:45.4610,0.7,0.15,0.43
2020-08-12 20:12:45.5600,-0.0,-0.04,-0.16
2020-08-12 20:12:45.6600,0.01,-0.02,0.06
2020-08-12 20:12:45.7590,-0.05,-0.01,-0.01
2020-08-12 20:12:45.8580,-0.01,0.01,0.02
2020-08-12 20:12:45.9580,-0.01,-0.02,0.0
2020-08-12 20:12:46.0570,-0.05,-0.01,-0.01
2020-08-12 20:12:46.1560,0.0,-0.04,0.02
2020-08-12 20:12:46.2560,0.08,-0.18,-0.03
2020-08-12 20:12:46.3550,0.32,-0.45,-0.0
2020-08-12 20:12:46.4540,0.37,-0.37,0.19
2020-08-12 20:12:46.5530,0.29,-0.23,0.11
2020-08-12 20:12:46.6530,0.37,0.39,-0.09
2020-08-12 20:12:46.7520,0.1,0.35,0.01
2020-08-12 20:12:46.8510,-0.02,0.47,0.01
2020-08-12 20:12:46.9500,-0.05,0.6,-0.22
2020-08-12 20:12:47.0500,-0.66,-0.26,0.18
2020-08-12 20:12:47.1490,-0.9,-0.78,-0.19
2020-08-12 20:12:47.2480,0.04,-0.15,0.59
2020-08-12 20:12:47.3470,0.22,0.03,-0.11
2020-08-12 20:12:47.4470,0.04,-0.02,0.01
2020-08-12 20:12:47.5460,-0.07,-0.02,0.0
2020-08-12 20:12:47.6450,-0.07,0.01,0.0
2020-08-12 20:12:47.7440,-0.03,-0.01,0.01
2020-08-12 20:12:47.8440,-0.05,-0.02,0.01
2020-08-12 20:12:47.9430,-0.03,-0.01,-0.01
2020-08-12 20:12:48.0420,-0.04,-0.04,-0.01
2020-08-12 20:12:48.1420,-0.01,-0.11,-0.05
2020-08-12 20:12:48.2410,0.18,-0.36,0.01
2020-08-12 20:12:48.3400,0.24,-0.52,0.08
2020-08-12 20:12:48.4390,-0.17,-0.39,0.14
2020-08-12 20:12:48.5390,0.19,0.03,0.02
2020-08-12 20:12:48.6380,0.42,0.5,-0.11
2020-08-12 20:12:48.7370,0.36,0.75,-0.13
2020-08-12 20:12:48.8360,0.1,0.69,-0.28
2020-08-12 20:12:48.9360,-0.33,-0.2,0.15
2020-08-12 20:12:49.0350,-0.79,-0.83,0.36
2020-08-12 20:12:49.1340,1.34,-0.8,-1.1
2020-08-12 20:12:49.2340,-0.6,0.05,0.46
2020-08-12 20:12:49.3330,-0.2,-0.02,0.11
2020-08-12 20:12:49.4320,-0.08,-0.02,0.05
2020-08-12 20:12:49.5310,-0.08,-0.01,0.04
2020-08-12 20:12:49.6310,-0.04,0.0,0.01
2020-08-12 20:12:49.7300,-0.01,0.0,0.03
2020-08-12 20:12:49.8290,-0.05,-0.01,0.0
2020-08-12 20:12:49.9280,-0.01,-0.04,0.02
2020-08-12 20:12:50.0280,0.01,-0.16,-0.01
2020-08-12 20:12:50.1270,0.23,-0.38,-0.1
2020-08-12 20:12:50.2260,0.26,-0.43,0.11
2020-08-12 20:12:50.3260,0.07,-0.25,0.17
2020-08-12 20:12:50.4250,-0.19,-0.15,0.17
2020-08-12 20:12:50.5240,0.38,0.47,-0.21
2020-08-12 20:12:50.6230,0.4,0.79,-0.24
2020-08-12 20:12:50.7230,0.04,0.64,-0.33
2020-08-12 20:12:50.8220,-0.56,-0.22,0.07
2020-08-12 20:12:50.9210,-0.91,-0.79,0.12
2020-08-12 20:12:51.0200,-0.53,-0.63,-0.28
2020-08-12 20:12:51.1200,-0.12,0.01,0.14
2020-08-12 20:12:51.2190,-0.05,-0.01,0.01
2020-08-12 20:12:51.3180,-0.15,-0.03,0.04
2020-08-12 20:12:51.4170,-0.07,-0.01,0.01
2020-08-12 20:12:51.5170,-0.03,-0.02,0.03
2020-08-12 20:12:51.6160,-0.02,0.01,0.01
2020-08-12 20:12:51.7150,0.1,0.04,-0.0
2020-08-12 20:12:51.8150,0.06,-0.06,0.01
2020-08-12 20:12:51.9140,0.06,-0.22,-0.01
2020-08-12 20:12:52.0130,0.33,-0.39,-0.16
2020-08-12 20:12:52.1120,0.14,-0.47,0.24
2020-08-12 20:12:52.2120,0.05,-0.09,0.08
2020-08-12 20:12:52.3110,0.19,0.2,-0.03
2020-08-12 20:12:52.4100,0.26,0.46,-0.12
2020-08-12 20:12:52.5100,0.05,0.75,-0.11
2020-08-12 20:12:52.6090,-0.22,0.37,-0.12
2020-08-12 20:12:52.7080,-0.37,-0.25,0.13
2020-08-12 20:12:52.8070,-0.8,-0.66,0.02
2020-08-12 20:12:52.9070,-0.23,0.02,0.83
2020-08-12 20:12:53.0060,-0.06,0.01,-0.1
2020-08-12 20:12:53.1050,-0.02,-0.01,0.06
2020-08-12 20:12:53.2040,-0.08,-0.01,0.03
2020-08-12 20:12:53.3030,-0.04,0.02,0.0
2020-08-12 20:12:53.4030,-0.03,-0.01,0.0
2020-08-12 20:12:53.5020,-0.05,-0.01,0.0
2020-08-12 20:12:53.6010,-0.02,-0.01,-0.01
2020-08-12 20:12:53.7000,0.01,-0.03,0.03
2020-08-12 20:12:53.8000,0.06,-0.13,0.02
2020-08-12 20:12:53.8990,0.21,-0.33,-0.1
2020-08-12 20:12:53.9980,0.36,-0.38,-0.01
2020-08-12 20:12:54.0980,-0.14,-0.34,0.23
2020-08-12 20:12:54.1970,0.15,0.1,0.05
2020-08-12 20:12:54.2960,0.33,0.41,-0.12
2020-08-12 20:12:54.3950,0.09,0.45,-0.05
2020-08-12 20:12:54.4950,0.05,0.67,-0.34
2020-08-12 20:12:54.5940,-0.3,0.21,0.07
2020-08-12 20:12:54.6930,-0.57,-0.5,0.39
2020-08-12 20:12:54.7930,-0.14,-0.27,-0.0
2020-08-12 20:12:54.8920,-0.08,0.08,0.17
2020-08-12 20:12:54.9910,-0.11,-0.07,-0.16
2020-08-12 20:12:55.0900,-0.07,-0.04,0.01
2020-08-12 20:12:55.1900,-0.07,0.01,-0.0
2020-08-12 20:12:55.2890,-0.07,-0.0,0.01
2020-08-12 20:12:55.3880,-0.05,-0.01,0.01
2020-08-12 20:12:55.4880,-0.07,0.01,0.02
2020-08-12 20:12:55.5870,-0.0,-0.01,-0.01
2020-08-12 20:12:55.6860,0.03,-0.07,0.01
2020-08-12 20:12:55.7850,0.13,-0.23,-0.05
2020-08-12 20:12:55.8840,0.32,-0.41,-0.05
2020-08-12 20:12:55.9840,0.04,-0.34,0.11
2020-08-12 20:12:56.0830,0.27,-0.16,0.02
2020-08-12 20:12:56.1820,0.26,0.34,-0.17
2020-08-12 20:12:56.2810,0.15,0.69,-0.17
2020-08-12 20:12:56.3810,0.13,0.75,-0.37
2020-08-12 20:12:56.4800,-0.21,0.17,-0.07
2020-08-12 20:12:56.5790,-0.48,-0.27,0.19
2020-08-12 20:12:56.6790,-0.28,-0.52,0.11
2020-08-12 20:12:56.7780,-0.03,-0.57,-0.68
2020-08-12 20:12:56.8770,-0.33,0.12,-0.04
2020-08-12 20:12:56.9760,-0.01,-0.03,0.03
2020-08-12 20:12:57.0760,-0.1,-0.02,0.06
2020-08-12 20:12:57.1750,-0.04,-0.01,-0.01
2020-08-12 20:12:57.2740,-0.01,-0.01,0.02
2020-08-12 20:12:57.3730,-0.03,-0.04,-0.06
2020-08-12 20:12:57.4730,0.01,0.03,-0.06
2020-08-12 20:12:57.5720,-0.08,0.04,-0.09
2020-08-12 20:12:57.6710,-0.11,0.02,0.08
2020-08-12 20:12:57.7710,0.02,-0.04,-0.0
2020-08-12 20:12:57.8700,0.07,-0.04,-0.02
2020-08-12 20:12:57.9690,-0.07,0.02,0.01
2020-08-12 20:12:58.0680,0.03,-0.04,-0.05
2020-08-12 20:12:58.1670,0.0,0.01,0.08
2020-08-12 20:12:58.2670,-0.05,0.02,0.01
2020-08-12 20:12:58.3660,-0.01,0.01,0.02
2020-08-12 20:12:58.4650,-0.01,-0.0,0.01
2020-08-12 20:12:58.5650,-0.09,-0.01,0.02
2020-08-12 20:12:58.6640,-0.01,-0.0,0.02
2020-08-12 20:12:58.7630,0.0,-0.02,0.01
2020-08-12 20:12:58.8630,-0.01,-0.0,0.01
2020-08-12 20:12:58.9620,-0.02,0.0,0.01
2020-08-12 20:12:59.0610,-0.0,-0.0,0.01
2020-08-12 20:12:59.1600,-0.01,-0.01,0.0
2020-08-12 20:12:59.2590,-0.01,0.02,0.02
2020-08-12 20:12:59.3590,-0.01,0.0,-0.01
2020-08-12 20:12:59.4580,0.02,-0.02,-0.05
2020-08-12 20:12:59.5660,0.01,0.0,-0.02
2020-08-12 20:12:59.6570,-0.02,-0.0,0.0
2020-08-12 20:12:59.7560,-0.0,0.0,0.0
2020-08-12 20:12:59.8550,0.0,-0.0,-0.0
2020-08-12 20:12:59.9540,0.01,-0.01,-0.0
2020-08-12 20:13:00.0540,0.01,-0.0,-0.0
2020-08-12 20:13:00.1530,-0.01,-0.01,0.0
2020-08-12 20:13:00.2520,0.0,-0.0,-0.0
2020-08-12 20:13:00.3510,0.01,-0.01,-0.0
2020-08-12 20:13:00.4510,-0.01,0.0,0.0
2020-08-12 20:13:00.5500,-0.01,0.0,0.04
2020-08-12 20:13:00.6490,-0.06,0.09,0.04
2020-08-12 20:13:00.7490,-0.06,-0.02,-0.03
2020-08-12 20:13:00.8480,-0.03,0.01,-0.02
