time,ax,ay,az
2020-08-10 16:12:20.2490,-0.0,0.04,0.0
2020-08-10 16:12:20.3390,-0.03,0.04,-0.01
2020-08-10 16:12:20.4270,0.02,0.04,0.01
2020-08-10 16:12:20.5200,0.0,0.03,-0.01
2020-08-10 16:12:20.6110,0.04,0.03,0.01
2020-08-10 16:12:20.7120,0.0,0.03,-0.0
2020-08-10 16:12:20.7990,0.02,-0.01,0.0
2020-08-10 16:12:20.9080,0.02,0.05,-0.03
2020-08-10 16:12:20.9540,-0.04,0.04,-0.01
2020-08-10 16:12:21.0460,0.05,0.01,-0.01
2020-08-10 16:12:21.1340,0.05,0.05,0.03
2020-08-10 16:12:21.2250,0.04,0.09,-0.01
2020-08-10 16:12:21.3170,-0.03,0.06,-0.04
2020-08-10 16:12:21.4200,-0.01,0.04,0.06
2020-08-10 16:12:21.5110,-0.06,0.06,0.03
2020-08-10 16:12:21.5920,-0.05,0.05,0.02
2020-08-10 16:12:21.6900,-0.01,0.03,0.01
2020-08-10 16:12:21.7910,0.11,0.03,0.05
2020-08-10 16:12:21.8570,0.0,0.03,0.02
2020-08-10 16:12:21.9450,-0.04,0.09,-0.02
2020-08-10 16:12:22.0380,0.03,0.04,0.01
2020-08-10 16:12:22.1270,0.01,0.03,0.0
2020-08-10 16:12:22.2200,-0.01,0.03,0.0
2020-08-10 16:12:22.3070,-0.03,0.03,-0.02
2020-08-10 16:12:22.4020,0.01,-0.01,-0.0
2020-08-10 16:12:22.4910,-0.01,0.02,0.02
2020-08-10 16:12:22.5820,0.03,0.01,-0.02
2020-08-10 16:12:22.6820,0.03,0.05,0.04
2020-08-10 16:12:22.7830,0.02,0.01,0.02
2020-08-10 16:12:22.8600,-0.01,0.02,0.05
2020-08-10 16:12:22.9470,0.02,0.04,0.01
2020-08-10 16:12:23.0460,0.02,0.04,0.03
2020-08-10 16:12:23.1280,0.07,-0.02,0.02
2020-08-10 16:12:23.2190,0.02,-0.03,-0.07
2020-08-10 16:12:23.3090,0.02,-0.09,-0.03
2020-08-10 16:12:23.3990,0.15,-0.34,-0.01
2020-08-10 16:12:23.4890,0.23,-0.44,0.15
2020-08-10 16:12:23.5790,0.5,-0.33,0.3
2020-08-10 16:12:23.6810,0.89,0.01,0.42
2020-08-10 16:12:23.7760,0.74,0.23,0.08
2020-08-10 16:12:23.8710,0.45,0.02,-0.07
2020-08-10 16:12:23.9400,0.01,-0.42,-0.07
2020-08-10 16:12:24.0700,-0.74,-0.48,0.15
2020-08-10 16:12:24.1370,-1.26,-0.17,-0.13
2020-08-10 16:12:24.2110,-0.88,-0.02,0.05
2020-08-10 16:12:24.3150,-0.49,-0.27,-0.07
2020-08-10 16:12:24.3950,-0.14,0.02,0.18
2020-08-10 16:12:24.4850,-0.04,0.04,0.1
2020-08-10 16:12:24.5850,-0.04,0.05,0.04
2020-08-10 16:12:24.6730,-0.03,0.02,0.04
2020-08-10 16:12:24.7730,0.01,0.0,0.02
2020-08-10 16:12:24.8710,0.04,0.04,0.01
2020-08-10 16:12:24.9730,0.04,-0.09,-0.01
2020-08-10 16:12:25.0300,0.2,-0.32,0.05
2020-08-10 16:12:25.1140,0.43,-0.51,0.18
2020-08-10 16:12:25.2150,0.19,-0.06,0.21
2020-08-10 16:12:25.3090,0.75,0.38,-0.02
2020-08-10 16:12:25.3950,0.66,0.23,0.06
2020-08-10 16:12:25.4860,0.33,-0.15,-0.07
2020-08-10 16:12:25.5760,-0.1,-0.35,0.04
2020-08-10 16:12:25.6660,-0.53,-0.41,0.18
2020-08-10 16:12:25.7580,-1.01,-0.16,-0.07
2020-08-10 16:12:25.8550,-1.13,-0.01,-0.09
2020-08-10 16:12:25.9520,-0.63,-0.67,0.1
2020-08-10 16:12:26.0520,-0.07,0.05,0.1
2020-08-10 16:12:26.1310,0.01,0.01,0.03
2020-08-10 16:12:26.2050,0.05,0.02,0.02
2020-08-10 16:12:26.2950,-0.0,0.04,0.03
2020-08-10 16:12:26.3890,-0.14,-0.06,-0.04
2020-08-10 16:12:26.4820,-0.02,0.02,0.04
2020-08-10 16:12:26.5660,0.03,-0.02,-0.01
2020-08-10 16:12:26.6630,0.07,-0.17,0.05
2020-08-10 16:12:26.7480,0.38,-0.46,0.07
2020-08-10 16:12:26.8450,0.51,-0.5,0.25
2020-08-10 16:12:26.9510,0.27,0.11,0.2
2020-08-10 16:12:27.0520,0.75,0.3,0.07
2020-08-10 16:12:27.1120,0.57,0.09,0.05
2020-08-10 16:12:27.1960,0.14,-0.31,0.09
2020-08-10 16:12:27.2920,-0.6,-0.72,-0.19
2020-08-10 16:12:27.3760,-1.31,-0.29,-0.0
2020-08-10 16:12:27.4730,-1.06,-0.16,-0.09
2020-08-10 16:12:27.5580,-0.37,-0.4,-0.19
2020-08-10 16:12:27.6560,-0.42,0.04,0.12
2020-08-10 16:12:27.7400,-0.14,0.02,0.16
2020-08-10 16:12:27.8390,-0.09,0.02,0.04
2020-08-10 16:12:27.9360,-0.06,0.04,0.04
2020-08-10 16:12:28.0350,0.03,0.0,0.0
2020-08-10 16:12:28.1110,-0.02,-0.0,0.02
2020-08-10 16:12:28.2310,0.04,-0.12,0.02
2020-08-10 16:12:28.3000,0.25,-0.36,0.06
2020-08-10 16:12:28.3890,0.35,-0.5,0.28
2020-08-10 16:12:28.4810,0.2,-0.07,0.16
2020-08-10 16:12:28.5700,0.8,0.45,0.02
2020-08-10 16:12:28.6660,0.58,0.3,0.03
2020-08-10 16:12:28.7480,0.2,-0.22,-0.05
2020-08-10 16:12:28.8470,-0.24,-0.38,-0.0
2020-08-10 16:12:28.9380,-0.82,-0.41,0.02
2020-08-10 16:12:29.0260,-1.35,-0.16,-0.14
2020-08-10 16:12:29.1260,1.24,-0.2,-0.33
2020-08-10 16:12:29.2220,-0.24,-0.22,0.22
2020-08-10 16:12:29.2920,0.04,-0.01,-0.18
2020-08-10 16:12:29.3810,0.09,0.04,0.07
2020-08-10 16:12:29.4700,-0.09,-0.0,0.04
2020-08-10 16:12:29.5660,-0.06,0.04,0.01
2020-08-10 16:12:29.6560,-0.01,0.02,0.02
2020-08-10 16:12:29.7470,0.05,-0.02,0.03
2020-08-10 16:12:29.8360,0.08,-0.12,0.06
2020-08-10 16:12:29.9260,0.25,-0.31,0.03
2020-08-10 16:12:30.0170,0.49,-0.5,0.17
2020-08-10 16:12:30.1150,0.08,-0.17,-0.07
2020-08-10 16:12:30.2140,0.84,0.32,0.0
2020-08-10 16:12:30.3160,0.78,0.26,-0.07
2020-08-10 16:12:30.3850,0.38,-0.18,-0.14
2020-08-10 16:12:30.4670,-0.39,-0.5,0.11
2020-08-10 16:12:30.5550,-1.09,-0.41,0.04
2020-08-10 16:12:30.6460,-1.2,-0.12,-0.06
2020-08-10 16:12:30.7360,-1.26,-0.6,-0.18
2020-08-10 16:12:30.8260,-0.28,0.04,0.19
2020-08-10 16:12:30.9160,-0.15,-0.01,0.03
2020-08-10 16:12:31.0070,-0.05,0.03,0.02
2020-08-10 16:12:31.1080,-0.04,0.07,0.01
2020-08-10 16:12:31.2050,0.0,0.05,0.02
2020-08-10 16:12:31.3060,-0.01,0.03,0.01
2020-08-10 16:12:31.3740,-0.0,-0.02,-0.01
2020-08-10 16:12:31.4570,0.06,-0.17,0.04
2020-08-10 16:12:31.5470,0.33,-0.39,0.11
2020-08-10 16:12:31.6520,0.58,-0.44,0.24
2020-08-10 16:12:31.7400,0.15,0.09,0.15
2020-08-10 16:12:31.8230,0.63,0.38,0.07
2020-08-10 16:12:31.9190,0.48,0.05,-0.05
2020-08-10 16:12:32.0010,0.06,-0.33,0.05
2020-08-10 16:12:32.0980,-0.44,-0.44,0.15
2020-08-10 16:12:32.2080,-0.92,-0.24,-0.12
2020-08-10 16:12:32.2950,-1.15,-0.05,-0.15
2020-08-10 16:12:32.3650,0.14,-0.56,-0.28
2020-08-10 16:12:32.4610,-0.16,0.06,0.3
2020-08-10 16:12:32.5370,0.04,-0.02,-0.16
2020-08-10 16:12:32.6420,-0.01,0.02,0.07
2020-08-10 16:12:32.7320,-0.05,0.06,0.04
2020-08-10 16:12:32.8250,-0.04,0.05,0.01
2020-08-10 16:12:32.9190,0.01,0.04,0.03
2020-08-10 16:12:33.0140,0.04,0.02,0.03
2020-08-10 16:12:33.1070,0.06,-0.08,-0.01
2020-08-10 16:12:33.1880,0.13,-0.29,0.05
2020-08-10 16:12:33.3000,0.34,-0.34,0.14
2020-08-10 16:12:33.3900,0.53,-0.32,0.17
2020-08-10 16:12:33.4860,0.44,0.14,0.28
2020-08-10 16:12:33.5540,0.64,0.27,0.04
2020-08-10 16:12:33.6430,0.37,-0.08,-0.01
2020-08-10 16:12:33.7320,-0.04,-0.33,0.1
2020-08-10 16:12:33.8190,-0.47,-0.48,0.06
2020-08-10 16:12:33.9150,-1.3,-0.2,-0.1
2020-08-10 16:12:34.0010,-0.58,-0.14,-0.13
2020-08-10 16:12:34.0980,-0.22,-0.43,-0.03
2020-08-10 16:12:34.1890,-0.39,-0.08,0.1
2020-08-10 16:12:34.2760,-0.02,0.03,0.03
2020-08-10 16:12:34.3780,-0.03,0.0,0.0
2020-08-10 16:12:34.4760,-0.04,0.01,0.01
2020-08-10 16:12:34.5740,0.07,0.02,0.01
2020-08-10 16:12:34.6450,0.04,0.0,0.04
2020-08-10 16:12:34.7420,0.01,-0.03,0.02
2020-08-10 16:12:34.8330,0.09,-0.26,0.08
2020-08-10 16:12:34.9220,0.31,-0.42,0.08
2020-08-10 16:12:35.0110,0.47,-0.35,0.22
2020-08-10 16:12:35.1000,0.72,0.13,0.22
2020-08-10 16:12:35.1890,0.67,0.33,0.03
2020-08-10 16:12:35.2700,0.39,-0.01,-0.04
2020-08-10 16:12:35.3730,-0.04,-0.32,0.1
2020-08-10 16:12:35.4660,-0.53,-0.39,0.14
2020-08-10 16:12:35.5750,-0.98,-0.21,-0.1
2020-08-10 16:12:35.6340,-1.21,-0.05,-0.1
2020-08-10 16:12:35.7330,-0.11,-0.46,-0.02
2020-08-10 16:12:35.8220,-0.63,-0.08,0.1
2020-08-10 16:12:35.9120,-0.08,0.01,0.02
2020-08-10 16:12:36.0020,-0.03,-0.0,-0.0
2020-08-10 16:12:36.0830,-0.05,0.05,0.04
2020-08-10 16:12:36.1800,-0.05,-0.02,-0.02
2020-08-10 16:12:36.2710,0.02,-0.01,0.03
2020-08-10 16:12:36.3600,-0.06,0.04,0.01
2020-08-10 16:12:36.4590,0.0,-0.12,0.04
2020-08-10 16:12:36.5700,0.22,-0.32,-0.05
2020-08-10 16:12:36.6580,0.23,-0.28,0.17
2020-08-10 16:12:36.7650,0.2,-0.07,0.09
2020-08-10 16:12:36.8230,0.83,0.36,0.05
2020-08-10 16:12:36.9050,0.62,0.29,0.05
2020-08-10 16:12:36.9960,0.18,-0.3,-0.05
2020-08-10 16:12:37.0890,-0.36,-0.47,0.05
2020-08-10 16:12:37.1880,-1.09,-0.31,0.04
2020-08-10 16:12:37.2720,-1.14,-0.07,-0.06
2020-08-10 16:12:37.3640,0.55,-0.29,-0.19
2020-08-10 16:12:37.4580,-0.33,-0.23,0.12
2020-08-10 16:12:37.5600,-0.3,-0.08,-0.12
2020-08-10 16:12:37.6530,-0.1,0.04,0.06
2020-08-10 16:12:37.7470,-0.07,0.01,0.04
2020-08-10 16:12:37.8060,-0.04,0.03,-0.0
2020-08-10 16:12:37.8960,-0.01,0.05,0.05
2020-08-10 16:12:37.9860,0.07,0.0,-0.01
2020-08-10 16:12:38.0790,0.0,-0.05,0.0
2020-08-10 16:12:38.1670,0.05,-0.16,0.01
2020-08-10 16:12:38.2670,0.21,-0.37,0.06
2020-08-10 16:12:38.3570,0.35,-0.52,0.25
2020-08-10 16:12:38.4510,0.15,0.12,0.07
2020-08-10 16:12:38.5400,0.71,0.31,-0.03
2020-08-10 16:12:38.6400,0.49,0.2,0.02
2020-08-10 16:12:38.7380,0.08,-0.23,0.09
2020-08-10 16:12:38.8490,-0.57,-0.44,0.02
2020-08-10 16:12:38.9360,-1.24,-0.15,0.1
2020-08-10 16:12:39.0040,-1.23,-0.1,-0.02
2020-08-10 16:12:39.0930,-0.27,-0.58,0.06
2020-08-10 16:12:39.1730,-0.38,0.02,0.27
2020-08-10 16:12:39.2720,-0.12,-0.03,0.0
2020-08-10 16:12:39.3560,-0.13,0.02,0.06
2020-08-10 16:12:39.4510,-0.14,0.02,0.03
2020-08-10 16:12:39.5400,-0.08,0.03,0.02
2020-08-10 16:12:39.6300,-0.1,0.03,0.01
2020-08-10 16:12:39.7420,-0.04,-0.0,0.04
2020-08-10 16:12:39.8290,-0.05,-0.11,-0.01
2020-08-10 16:12:39.9270,0.17,-0.3,0.02
2020-08-10 16:12:39.9790,0.31,-0.31,0.27
2020-08-10 16:12:40.0830,0.17,-0.09,0.28
2020-08-10 16:12:40.1740,0.83,0.37,-0.07
2020-08-10 16:12:40.2630,0.64,0.22,-0.04
2020-08-10 16:12:40.3540,0.08,-0.3,0.01
2020-08-10 16:12:40.4420,-0.38,-0.4,0.12
2020-08-10 16:12:40.5290,-0.83,-0.42,-0.01
2020-08-10 16:12:40.6300,-1.33,-0.12,-0.24
2020-08-10 16:12:40.7310,1.18,0.04,0.47
2020-08-10 16:12:40.8210,-0.4,-0.18,-0.03
2020-08-10 16:12:40.8910,-0.14,-0.01,0.03
2020-08-10 16:12:40.9860,-0.07,0.05,0.04
2020-08-10 16:12:41.0660,-0.16,0.0,0.04
2020-08-10 16:12:41.1630,-0.15,0.0,-0.0
2020-08-10 16:12:41.2540,-0.03,-0.0,0.02
2020-08-10 16:12:41.3440,-0.05,0.01,0.01
2020-08-10 16:12:41.4340,0.02,-0.01,0.01
2020-08-10 16:12:41.5390,0.06,-0.11,-0.01
2020-08-10 16:12:41.6280,0.32,-0.43,0.1
2020-08-10 16:12:41.7130,0.23,-0.62,0.17
2020-08-10 16:12:41.8210,0.28,0.28,0.08
2020-08-10 16:12:41.9190,0.55,0.41,0.03
2020-08-10 16:12:42.0100,0.31,0.04,0.02
2020-08-10 16:12:42.0770,-0.09,-0.29,0.17
2020-08-10 16:12:42.1580,-0.45,-0.24,0.07
2020-08-10 16:12:42.2470,-0.7,-0.15,0.07
2020-08-10 16:12:42.3400,-1.17,-0.12,-0.17
2020-08-10 16:12:42.4270,1.4,-0.15,-0.07
2020-08-10 16:12:42.5220,-0.27,-0.03,-0.14
2020-08-10 16:12:42.6080,-0.42,-0.06,0.05
2020-08-10 16:12:42.7050,-0.18,-0.02,0.04
2020-08-10 16:12:42.8120,-0.12,0.03,0.04
2020-08-10 16:12:42.9030,-0.1,0.02,0.01
2020-08-10 16:12:42.9790,-0.07,0.02,0.02
2020-08-10 16:12:43.0680,-0.05,0.03,-0.03
2020-08-10 16:12:43.1590,-0.03,-0.04,-0.03
2020-08-10 16:12:43.2490,0.04,-0.21,0.07
2020-08-10 16:12:43.3380,0.21,-0.38,0.08
2020-08-10 16:12:43.4290,0.33,-0.34,0.11
2020-08-10 16:12:43.5180,0.28,0.17,0.17
2020-08-10 16:12:43.6100,0.69,0.35,-0.02
2020-08-10 16:12:43.6980,0.39,0.08,-0.04
2020-08-10 16:12:43.8020,0.03,-0.26,-0.02
2020-08-10 16:12:43.8940,-0.48,-0.38,0.09
2020-08-10 16:12:44.0020,-0.84,-0.24,-0.04
2020-08-10 16:12:44.0600,-0.99,-0.13,-0.22
2020-08-10 16:12:44.1590,1.11,-0.07,-0.01
2020-08-10 16:12:44.2410,-0.13,-0.18,0.0
2020-08-10 16:12:44.3320,-0.07,0.02,-0.1
2020-08-10 16:12:44.4340,-0.09,0.01,0.08
2020-08-10 16:12:44.5160,-0.04,0.02,-0.01
2020-08-10 16:12:44.6150,-0.08,0.01,-0.0
2020-08-10 16:12:44.7060,-0.07,0.03,-0.02
2020-08-10 16:12:44.7940,-0.06,0.03,-0.03
2020-08-10 16:12:44.8850,-0.02,0.05,-0.0
2020-08-10 16:12:44.9840,0.02,-0.1,0.02
2020-08-10 16:12:45.0930,0.19,-0.35,0.01
2020-08-10 16:12:45.1500,0.36,-0.36,0.16
2020-08-10 16:12:45.2330,0.17,-0.05,0.09
2020-08-10 16:12:45.3280,0.74,0.34,-0.03
2020-08-10 16:12:45.4180,0.54,0.16,-0.04
2020-08-10 16:12:45.5150,0.07,-0.22,0.01
2020-08-10 16:12:45.6100,-0.39,-0.22,0.1
2020-08-10 16:12:45.6950,-0.7,-0.4,-0.04
2020-08-10 16:12:45.7850,-1.14,-0.21,-0.14
2020-08-10 16:12:45.8780,0.56,-0.11,0.04
2020-08-10 16:12:45.9760,-0.14,-0.08,0.02
2020-08-10 16:12:46.0740,-0.18,-0.06,-0.04
2020-08-10 16:12:46.1720,-0.12,0.02,0.12
2020-08-10 16:12:46.2510,-0.07,0.01,-0.02
2020-08-10 16:12:46.3380,-0.09,0.02,0.01
2020-08-10 16:12:46.4210,-0.04,0.02,0.02
2020-08-10 16:12:46.5050,-0.05,-0.0,-0.02
2020-08-10 16:12:46.6020,-0.08,-0.04,0.0
2020-08-10 16:12:46.6880,0.02,-0.25,0.03
2020-08-10 16:12:46.7810,0.24,-0.35,0.09
2020-08-10 16:12:46.8690,0.45,-0.33,0.17
2020-08-10 16:12:46.9670,0.46,0.09,0.27
2020-08-10 16:12:47.0650,0.65,0.31,0.03
2020-08-10 16:12:47.1740,0.18,-0.17,-0.03
2020-08-10 16:12:47.2400,-0.06,-0.18,0.06
2020-08-10 16:12:47.3150,-0.43,-0.33,-0.04
2020-08-10 16:12:47.4200,-0.95,-0.24,0.03
2020-08-10 16:12:47.4960,-1.13,-0.08,-0.07
2020-08-10 16:12:47.5870,-0.37,-0.55,-0.37
2020-08-10 16:12:47.6820,-0.18,0.09,0.27
2020-08-10 16:12:47.7690,-0.16,-0.06,-0.09
2020-08-10 16:12:47.8620,-0.08,0.02,0.01
2020-08-10 16:12:47.9570,-0.09,0.05,-0.01
2020-08-10 16:12:48.0560,-0.04,0.02,0.01
2020-08-10 16:12:48.1580,-0.05,0.03,0.01
2020-08-10 16:12:48.2220,-0.0,0.02,-0.02
2020-08-10 16:12:48.3200,-0.01,-0.05,0.02
2020-08-10 16:12:48.3950,0.08,-0.25,-0.02
2020-08-10 16:12:48.4950,0.2,-0.3,0.1
2020-08-10 16:12:48.5910,0.5,-0.34,0.16
2020-08-10 16:12:48.6660,0.23,0.0,0.06
2020-08-10 16:12:48.7570,0.77,0.45,-0.04
2020-08-10 16:12:48.8490,0.46,0.03,-0.05
2020-08-10 16:12:48.9480,0.02,-0.25,0.03
2020-08-10 16:12:49.0470,-0.43,-0.38,0.08
2020-08-10 16:12:49.1480,-0.81,-0.26,-0.01
2020-08-10 16:12:49.2150,-1.15,-0.12,-0.09
2020-08-10 16:12:49.2980,0.22,-0.44,-0.55
2020-08-10 16:12:49.3940,-0.32,0.13,0.39
2020-08-10 16:12:49.4910,-0.05,-0.06,-0.14
2020-08-10 16:12:49.5660,0.01,0.03,0.01
2020-08-10 16:12:49.6610,-0.07,0.02,0.03
2020-08-10 16:12:49.7490,-0.09,0.01,-0.02
2020-08-10 16:12:49.8490,0.01,0.02,-0.03
2020-08-10 16:12:49.9470,-0.02,0.02,-0.0
2020-08-10 16:12:50.0490,0.02,-0.03,-0.0
2020-08-10 16:12:50.1380,0.08,-0.2,0.04
2020-08-10 16:12:50.2070,0.32,-0.38,0.08
2020-08-10 16:12:50.2860,0.48,-0.41,0.21
2020-08-10 16:12:50.3780,0.36,0.09,0.18
2020-08-10 16:12:50.4710,0.67,0.23,0.0
2020-08-10 16:12:50.5570,0.41,-0.02,-0.02
2020-08-10 16:12:50.6620,-0.0,-0.27,0.07
2020-08-10 16:12:50.7410,-0.62,-0.41,0.07
2020-08-10 16:12:50.8320,-0.92,-0.23,-0.03
2020-08-10 16:12:50.9330,-1.14,-0.07,-0.08
2020-08-10 16:12:51.0330,-0.61,-0.74,-0.18
2020-08-10 16:12:51.0970,-0.16,-0.01,0.26
2020-08-10 16:12:51.1870,-0.04,-0.04,-0.04
2020-08-10 16:12:51.2950,-0.05,0.02,0.01
2020-08-10 16:12:51.3810,-0.12,0.05,0.01
2020-08-10 16:12:51.4720,-0.07,0.03,-0.02
2020-08-10 16:12:51.5600,-0.02,0.03,0.03
2020-08-10 16:12:51.6500,0.06,-0.0,0.0
2020-08-10 16:12:51.7410,0.11,-0.09,-0.04
2020-08-10 16:12:51.8400,0.2,-0.32,-0.0
2020-08-10 16:12:51.9250,0.46,-0.37,0.22
2020-08-10 16:12:52.0140,0.23,-0.13,0.1
2020-08-10 16:12:52.1140,0.96,0.3,0.04
2020-08-10 16:12:52.2160,0.65,0.3,-0.07
2020-08-10 16:12:52.3120,0.03,-0.27,0.12
2020-08-10 16:12:52.3780,-0.26,-0.22,0.09
2020-08-10 16:12:52.4770,-0.55,-0.35,0.02
2020-08-10 16:12:52.5570,-0.96,-0.17,-0.13
2020-08-10 16:12:52.6510,-0.47,-0.12,-0.02
2020-08-10 16:12:52.7400,-0.31,-0.24,-0.14
2020-08-10 16:12:52.8360,-0.13,0.04,0.05
2020-08-10 16:12:52.9240,-0.09,0.01,0.03
2020-08-10 16:12:53.0140,-0.09,-0.0,-0.03
2020-08-10 16:12:53.1080,-0.07,0.03,0.02
2020-08-10 16:12:53.2050,-0.03,0.01,-0.01
2020-08-10 16:12:53.3050,-0.02,0.01,-0.02
2020-08-10 16:12:53.3680,0.01,-0.03,0.0
2020-08-10 16:12:53.4680,0.1,-0.15,-0.01
2020-08-10 16:12:53.5560,0.3,-0.39,-0.04
2020-08-10 16:12:53.6380,0.5,-0.44,0.23
2020-08-10 16:12:53.7370,0.18,0.12,0.05
2020-08-10 16:12:53.8410,0.72,0.28,0.01
2020-08-10 16:12:53.9180,0.44,-0.09,-0.08
2020-08-10 16:12:54.0120,-0.0,-0.3,0.16
2020-08-10 16:12:54.0980,-0.5,-0.32,0.08
2020-08-10 16:12:54.1990,-0.93,-0.18,0.06
2020-08-10 16:12:54.2960,-1.1,-0.16,-0.13
2020-08-10 16:12:54.3960,-0.69,-0.53,0.02
2020-08-10 16:12:54.4950,-0.14,0.04,0.1
2020-08-10 16:12:54.5610,-0.19,-0.01,-0.01
2020-08-10 16:12:54.6370,-0.04,0.02,0.04
2020-08-10 16:12:54.7400,-0.07,0.05,0.03
2020-08-10 16:12:54.8390,-0.02,0.04,0.01
2020-08-10 16:12:54.9370,-0.03,0.02,-0.01
2020-08-10 16:12:55.0270,-0.0,-0.07,-0.09
2020-08-10 16:12:55.1010,0.05,-0.19,0.05
2020-08-10 16:12:55.1920,0.31,-0.44,0.09
2020-08-10 16:12:55.2860,0.57,-0.49,0.21
2020-08-10 16:12:55.3880,0.19,0.19,0.05
2020-08-10 16:12:55.4850,0.64,0.33,0.06
2020-08-10 16:12:55.5520,0.39,0.03,-0.01
2020-08-10 16:12:55.6490,0.05,-0.38,0.02
2020-08-10 16:12:55.7480,-0.66,-0.36,0.07
2020-08-10 16:12:55.8370,-1.01,-0.26,-0.12
2020-08-10 16:12:55.9120,-1.02,-0.18,-0.04
2020-08-10 16:12:56.0170,-0.38,-0.3,0.12
2020-08-10 16:12:56.0980,-0.04,0.01,0.16
2020-08-10 16:12:56.1860,0.14,0.04,-0.04
2020-08-10 16:12:56.2850,0.0,0.0,-0.03
2020-08-10 16:12:56.3790,-0.09,0.04,-0.05
2020-08-10 16:12:56.4770,-0.02,0.04,-0.01
2020-08-10 16:12:56.5760,0.04,0.04,0.05
2020-08-10 16:12:56.6440,0.01,-0.03,-0.02
2020-08-10 16:12:56.7260,0.06,-0.12,0.0
2020-08-10 16:12:56.8220,0.29,-0.33,0.02
2020-08-10 16:12:56.9110,0.54,-0.63,0.2
2020-08-10 16:12:57.0070,0.25,0.08,0.12
2020-08-10 16:12:57.0970,0.74,0.4,-0.01
2020-08-10 16:12:57.1830,0.56,0.09,-0.02
2020-08-10 16:12:57.2690,0.09,-0.29,0.12
2020-08-10 16:12:57.3710,-0.46,-0.32,0.22
2020-08-10 16:12:57.4690,-0.68,-0.34,-0.14
2020-08-10 16:12:57.5670,-1.05,-0.13,-0.22
2020-08-10 16:12:57.6340,1.18,-0.18,0.23
2020-08-10 16:12:57.7230,-0.15,0.04,-0.18
2020-08-10 16:12:57.8120,-0.23,-0.04,-0.04
2020-08-10 16:12:57.8990,-0.04,0.04,0.14
2020-08-10 16:12:57.9950,-0.06,0.01,0.02
2020-08-10 16:12:58.0820,-0.05,0.02,-0.0
2020-08-10 16:12:58.1790,-0.01,0.02,0.01
2020-08-10 16:12:58.2740,0.04,0.05,0.04
2020-08-10 16:12:58.3610,-0.01,-0.1,-0.04
2020-08-10 16:12:58.4610,0.09,-0.24,-0.03
2020-08-10 16:12:58.5680,0.43,-0.48,0.18
2020-08-10 16:12:58.6140,0.45,-0.17,0.13
2020-08-10 16:12:58.7140,0.83,0.27,-0.13
2020-08-10 16:12:58.7960,0.76,0.3,0.01
2020-08-10 16:12:58.8890,0.44,-0.17,0.03
2020-08-10 16:12:58.9760,-0.1,-0.31,0.21
2020-08-10 16:12:59.0720,-0.7,-0.48,0.01
2020-08-10 16:12:59.1670,-1.17,-0.25,-0.14
2020-08-10 16:12:59.2650,-1.16,-0.17,-0.15
2020-08-10 16:12:59.3520,-0.28,-0.46,0.12
2020-08-10 16:12:59.4560,-0.08,0.01,-0.0
2020-08-10 16:12:59.5590,0.03,0.03,0.07
2020-08-10 16:12:59.6480,-0.07,-0.01,-0.01
2020-08-10 16:12:59.7140,-0.03,0.03,-0.01
2020-08-10 16:12:59.7960,-0.03,0.02,-0.0
2020-08-10 16:12:59.8860,-0.05,-0.0,0.02
2020-08-10 16:12:59.9770,-0.01,-0.07,-0.05
2020-08-10 16:13:00.0680,0.1,-0.22,0.03
2020-08-10 16:13:00.1570,0.29,-0.5,0.02
2020-08-10 16:13:00.2530,0.59,-0.22,0.27
2020-08-10 16:13:00.3430,0.23,0.09,0.21
2020-08-10 16:13:00.4530,0.59,0.34,0.09
2020-08-10 16:13:00.5520,0.26,-0.07,-0.12
2020-08-10 16:13:00.6090,-0.12,-0.28,0.03
2020-08-10 16:13:00.6970,-0.51,-0.33,0.04
2020-08-10 16:13:00.7880,-0.86,-0.31,-0.11
2020-08-10 16:13:00.8780,-1.17,-0.07,-0.12
2020-08-10 16:13:00.9690,-0.89,-0.79,-0.35
2020-08-10 16:13:01.0600,-0.37,0.08,0.23
2020-08-10 16:13:01.1640,-0.06,0.03,0.03
2020-08-10 16:13:01.2530,-0.05,0.0,-0.05
2020-08-10 16:13:01.3430,-0.08,0.03,-0.01
2020-08-10 16:13:01.4400,-0.02,0.02,0.01
2020-08-10 16:13:01.5370,0.01,0.02,-0.02
2020-08-10 16:13:01.6330,0.04,0.01,0.0
2020-08-10 16:13:01.6890,-0.02,-0.07,0.01
2020-08-10 16:13:01.7890,0.1,-0.25,-0.05
2020-08-10 16:13:01.8760,0.36,-0.43,0.18
2020-08-10 16:13:01.9570,0.62,-0.49,0.22
2020-08-10 16:13:02.0580,0.85,0.15,0.31
2020-08-10 16:13:02.1420,0.73,0.33,-0.04
2020-08-10 16:13:02.2430,0.11,-0.21,0.01
2020-08-10 16:13:02.3340,-0.34,-0.33,0.17
2020-08-10 16:13:02.4270,-0.66,-0.51,-0.02
2020-08-10 16:13:02.5270,-1.19,-0.17,-0.22
2020-08-10 16:13:02.6250,1.51,-0.19,0.07
2020-08-10 16:13:02.7240,-0.16,-0.1,0.03
2020-08-10 16:13:02.7990,-0.05,0.02,-0.06
2020-08-10 16:13:02.8890,0.01,0.02,0.08
2020-08-10 16:13:02.9710,-0.03,0.04,0.02
2020-08-10 16:13:03.0690,-0.1,0.05,-0.0
2020-08-10 16:13:03.1520,-0.04,0.03,0.02
2020-08-10 16:13:03.2510,-0.01,-0.01,-0.02
2020-08-10 16:13:03.3390,-0.03,-0.05,0.01
2020-08-10 16:13:03.4300,0.07,-0.26,0.01
2020-08-10 16:13:03.5170,0.34,-0.44,0.1
2020-08-10 16:13:03.6150,0.7,-0.4,0.18
2020-08-10 16:13:03.7170,0.48,0.08,0.19
2020-08-10 16:13:03.7890,0.69,0.41,0.0
2020-08-10 16:13:03.8790,0.48,-0.09,-0.02
2020-08-10 16:13:03.9690,-0.04,-0.48,0.06
2020-08-10 16:13:04.0580,-0.66,-0.52,0.16
2020-08-10 16:13:04.1560,-1.1,-0.17,-0.12
2020-08-10 16:13:04.2540,-0.8,-0.11,-0.09
2020-08-10 16:13:04.3440,-0.31,-0.56,-0.08
2020-08-10 16:13:04.4210,-0.57,-0.06,0.26
2020-08-10 16:13:04.5090,-0.03,-0.01,0.03
2020-08-10 16:13:04.6150,-0.07,0.01,0.0
2020-08-10 16:13:04.7080,-0.07,0.04,0.01
2020-08-10 16:13:04.8140,-0.09,0.0,-0.04
2020-08-10 16:13:04.9040,0.04,0.09,0.05
2020-08-10 16:13:04.9700,0.05,-0.04,-0.07
2020-08-10 16:13:05.0600,0.08,-0.2,0.01
2020-08-10 16:13:05.1470,0.34,-0.41,0.07
2020-08-10 16:13:05.2380,0.58,-0.52,0.25
2020-08-10 16:13:05.3330,0.49,0.08,0.2
2020-08-10 16:13:05.4240,0.63,0.27,0.03
2020-08-10 16:13:05.5220,0.12,-0.04,0.03
2020-08-10 16:13:05.6040,-0.04,-0.2,0.12
2020-08-10 16:13:05.7000,-0.44,-0.44,-0.04
2020-08-10 16:13:05.7990,-1.07,-0.2,0.04
2020-08-10 16:13:05.9030,-1.09,-0.1,-0.13
2020-08-10 16:13:05.9970,-0.54,-0.53,0.06
2020-08-10 16:13:06.1030,-0.22,0.02,0.19
2020-08-10 16:13:06.1600,-0.05,-0.02,-0.06
2020-08-10 16:13:06.2400,-0.06,-0.02,-0.02
2020-08-10 16:13:06.3390,-0.06,0.04,0.02
2020-08-10 16:13:06.4230,-0.02,0.03,0.01
2020-08-10 16:13:06.5080,-0.05,0.03,-0.02
2020-08-10 16:13:06.6010,-0.02,-0.05,0.01
2020-08-10 16:13:06.6880,0.04,-0.19,0.0
2020-08-10 16:13:06.7870,0.32,-0.31,0.07
2020-08-10 16:13:06.8850,0.43,-0.38,0.16
2020-08-10 16:13:06.9840,0.31,-0.01,0.12
2020-08-10 16:13:07.0510,0.77,0.42,0.01
2020-08-10 16:13:07.1510,0.46,-0.0,-0.05
2020-08-10 16:13:07.2320,-0.0,-0.3,0.02
2020-08-10 16:13:07.3300,-0.54,-0.35,0.05
2020-08-10 16:13:07.4130,-1.11,-0.29,0.06
2020-08-10 16:13:07.4990,-1.08,-0.11,-0.03
2020-08-10 16:13:07.5940,-0.93,-0.5,0.08
2020-08-10 16:13:07.6790,-0.14,0.04,0.19
2020-08-10 16:13:07.7780,-0.18,-0.01,-0.01
2020-08-10 16:13:07.8760,-0.08,0.02,0.04
2020-08-10 16:13:07.9780,-0.06,0.04,0.03
2020-08-10 16:13:08.0410,-0.05,0.02,-0.01
2020-08-10 16:13:08.1400,0.02,0.03,0.0
2020-08-10 16:13:08.2230,-0.03,-0.01,-0.03
2020-08-10 16:13:08.3200,0.03,-0.14,0.04
2020-08-10 16:13:08.4040,0.28,-0.38,0.04
2020-08-10 16:13:08.5030,0.34,-0.46,0.17
2020-08-10 16:13:08.5890,0.22,0.09,0.05
2020-08-10 16:13:08.6950,0.62,0.37,-0.02
2020-08-10 16:13:08.7740,0.38,0.06,0.05
2020-08-10 16:13:08.8610,0.1,-0.32,0.08
2020-08-10 16:13:08.9660,-0.38,-0.41,0.06
2020-08-10 16:13:09.0590,-0.84,-0.17,-0.07
2020-08-10 16:13:09.1580,-1.2,-0.09,-0.11
2020-08-10 16:13:09.2560,0.62,-0.39,-0.37
2020-08-10 16:13:09.3120,-0.34,-0.3,0.22
2020-08-10 16:13:09.4000,0.18,-0.02,-0.17
2020-08-10 16:13:09.5020,0.03,0.03,-0.0
2020-08-10 16:13:09.5810,-0.09,0.01,0.01
2020-08-10 16:13:09.6800,-0.03,0.06,-0.01
2020-08-10 16:13:09.7710,-0.11,-0.03,-0.01
2020-08-10 16:13:09.8520,-0.04,0.0,0.01
2020-08-10 16:13:09.9550,0.01,-0.1,-0.03
2020-08-10 16:13:10.0490,0.14,-0.3,0.05
2020-08-10 16:13:10.1590,0.36,-0.51,0.26
2020-08-10 16:13:10.2470,0.25,-0.05,0.09
2020-08-10 16:13:10.3140,0.83,0.37,-0.06
2020-08-10 16:13:10.4040,0.55,0.18,0.01
2020-08-10 16:13:10.4930,0.23,-0.22,-0.01
2020-08-10 16:13:10.5780,-0.21,-0.34,0.05
2020-08-10 16:13:10.6730,-0.58,-0.4,0.04
2020-08-10 16:13:10.7630,-1.21,-0.17,0.01
2020-08-10 16:13:10.8550,-0.44,-0.18,-0.14
2020-08-10 16:13:10.9480,-0.27,-0.18,-0.4
2020-08-10 16:13:11.0450,-0.43,-0.05,0.08
2020-08-10 16:13:11.1420,-0.01,-0.01,0.08
2020-08-10 16:13:11.2400,-0.03,0.01,-0.01
2020-08-10 16:13:11.2970,-0.07,0.02,-0.01
2020-08-10 16:13:11.3960,0.01,0.02,0.03
2020-08-10 16:13:11.4850,-0.03,-0.03,-0.0
2020-08-10 16:13:11.5750,0.05,-0.07,-0.03
2020-08-10 16:13:11.6670,0.18,-0.23,0.02
2020-08-10 16:13:11.7560,0.37,-0.46,0.19
2020-08-10 16:13:11.8510,0.2,-0.17,0.04
2020-08-10 16:13:11.9520,0.85,0.34,-0.09
2020-08-10 16:13:12.0460,0.64,0.2,-0.04
2020-08-10 16:13:12.1370,0.11,-0.13,-0.03
2020-08-10 16:13:12.2350,-0.22,-0.28,0.0
2020-08-10 16:13:12.3050,-0.6,-0.33,0.1
2020-08-10 16:13:12.4020,-1.02,-0.16,-0.1
2020-08-10 16:13:12.4840,-0.91,-0.14,-0.06
2020-08-10 16:13:12.5810,-0.61,-0.61,0.14
2020-08-10 16:13:12.6700,0.01,0.02,0.07
2020-08-10 16:13:12.7680,-0.04,0.01,0.02
2020-08-10 16:13:12.8660,-0.1,0.01,-0.04
2020-08-10 16:13:12.9470,-0.04,0.04,0.01
2020-08-10 16:13:13.0430,-0.03,0.03,-0.01
2020-08-10 16:13:13.1210,-0.03,0.02,0.02
2020-08-10 16:13:13.2190,-0.05,-0.08,-0.06
2020-08-10 16:13:13.3200,0.01,-0.25,0.02
2020-08-10 16:13:13.4190,0.3,-0.34,0.05
2020-08-10 16:13:13.5180,0.56,-0.33,0.2
2020-08-10 16:13:13.5850,0.28,0.13,0.15
2020-08-10 16:13:13.6740,0.7,0.4,0.04
2020-08-10 16:13:13.7580,0.37,0.15,-0.01
2020-08-10 16:13:13.8520,-0.02,-0.33,-0.02
2020-08-10 16:13:13.9360,-0.53,-0.31,0.1
2020-08-10 16:13:14.0310,-0.91,-0.29,0.04
2020-08-10 16:13:14.1260,-1.12,-0.14,-0.11
2020-08-10 16:13:14.2120,-1.26,-0.62,-0.17
2020-08-10 16:13:14.3260,-0.3,0.01,0.12
2020-08-10 16:13:14.4110,-0.11,-0.01,0.01
2020-08-10 16:13:14.4860,-0.07,0.01,0.05
2020-08-10 16:13:14.5750,-0.05,0.05,0.03
2020-08-10 16:13:14.6750,-0.03,0.02,0.01
2020-08-10 16:13:14.7550,-0.05,0.02,-0.0
2020-08-10 16:13:14.8450,-0.06,-0.01,-0.01
2020-08-10 16:13:14.9520,0.03,-0.16,0.02
2020-08-10 16:13:15.0270,0.38,-0.4,0.02
2020-08-10 16:13:15.1180,0.54,-0.45,0.32
2020-08-10 16:13:15.2060,0.05,0.13,0.19
2020-08-10 16:13:15.3020,0.65,0.41,-0.04
2020-08-10 16:13:15.4000,0.51,0.0,-0.04
2020-08-10 16:13:15.4990,0.05,-0.26,0.14
2020-08-10 16:13:15.5660,-0.44,-0.35,0.18
2020-08-10 16:13:15.6670,-0.99,-0.25,-0.02
2020-08-10 16:13:15.7480,-1.3,-0.1,-0.06
2020-08-10 16:13:15.8370,-1.51,-0.8,-0.18
2020-08-10 16:13:15.9270,-0.2,0.06,0.33
2020-08-10 16:13:16.0320,-0.11,-0.02,0.02
2020-08-10 16:13:16.1200,-0.11,0.02,0.01
2020-08-10 16:13:16.2000,-0.1,0.03,0.03
2020-08-10 16:13:16.3000,-0.07,0.01,-0.01
2020-08-10 16:13:16.3940,-0.01,0.04,0.02
2020-08-10 16:13:16.4900,0.01,-0.05,-0.03
2020-08-10 16:13:16.5900,0.11,-0.16,0.0
2020-08-10 16:13:16.6580,0.38,-0.48,0.06
2020-08-10 16:13:16.7380,0.5,-0.32,0.24
2020-08-10 16:13:16.8270,0.91,0.23,0.01
2020-08-10 16:13:16.9210,0.66,0.37,0.01
2020-08-10 16:13:17.0060,0.37,-0.05,-0.07
2020-08-10 16:13:17.0980,-0.18,-0.27,0.17
2020-08-10 16:13:17.1910,-0.51,-0.45,0.07
2020-08-10 16:13:17.2880,-1.23,-0.24,-0.07
2020-08-10 16:13:17.3820,-1.4,-0.24,-0.23
2020-08-10 16:13:17.4820,-0.41,-0.23,-0.04
2020-08-10 16:13:17.5800,-0.07,-0.03,-0.09
2020-08-10 16:13:17.6480,-0.17,0.03,0.12
2020-08-10 16:13:17.7450,-0.14,0.01,0.06
2020-08-10 16:13:17.8320,-0.13,0.02,0.02
2020-08-10 16:13:17.9120,-0.07,0.03,0.01
2020-08-10 16:13:18.0120,0.0,0.01,0.02
2020-08-10 16:13:18.1020,0.06,-0.09,-0.0
2020-08-10 16:13:18.1930,0.13,-0.25,0.04
2020-08-10 16:13:18.2890,0.28,-0.42,0.22
2020-08-10 16:13:18.3790,0.23,-0.14,0.08
2020-08-10 16:13:18.4710,0.88,0.33,0.02
2020-08-10 16:13:18.5720,0.6,0.31,-0.03
2020-08-10 16:13:18.6710,0.19,-0.17,-0.03
2020-08-10 16:13:18.7470,-0.35,-0.27,0.13
2020-08-10 16:13:18.8360,-0.61,-0.49,-0.02
2020-08-10 16:13:18.9160,-1.05,-0.2,-0.1
2020-08-10 16:13:19.0150,-0.6,-0.2,-0.25
2020-08-10 16:13:19.1040,-0.14,-0.19,0.11
2020-08-10 16:13:19.1930,-0.11,0.03,0.08
2020-08-10 16:13:19.2810,-0.12,0.01,0.04
2020-08-10 16:13:19.3780,-0.03,0.02,0.04
2020-08-10 16:13:19.4670,-0.08,0.04,0.0
2020-08-10 16:13:19.5620,-0.04,0.04,0.02
2020-08-10 16:13:19.6640,-0.04,0.02,-0.03
2020-08-10 16:13:19.7590,-0.01,-0.04,0.0
2020-08-10 16:13:19.8280,0.06,-0.24,0.03
2020-08-10 16:13:19.9260,0.24,-0.4,0.16
2020-08-10 16:13:20.0070,0.45,-0.24,0.12
2020-08-10 16:13:20.0980,0.46,0.16,0.1
2020-08-10 16:13:20.1880,0.55,0.34,0.1
2020-08-10 16:13:20.2770,0.32,-0.12,-0.04
2020-08-10 16:13:20.3660,-0.08,-0.3,0.01
2020-08-10 16:13:20.4610,-0.61,-0.34,0.14
2020-08-10 16:13:20.5530,-1.15,-0.25,-0.08
2020-08-10 16:13:20.6530,-0.96,-0.22,-0.01
2020-08-10 16:13:20.7620,-0.39,-0.12,-0.24
2020-08-10 16:13:20.8190,-0.25,-0.0,-0.03
2020-08-10 16:13:20.9080,-0.1,-0.0,0.07
2020-08-10 16:13:20.9970,-0.1,0.01,0.01
2020-08-10 16:13:21.0890,-0.13,0.01,0.01
2020-08-10 16:13:21.1920,-0.02,0.04,0.03
2020-08-10 16:13:21.2770,-0.01,-0.01,-0.01
2020-08-10 16:13:21.3630,0.01,-0.08,-0.0
2020-08-10 16:13:21.4630,0.15,-0.29,0.04
2020-08-10 16:13:21.5530,0.33,-0.47,0.15
2020-08-10 16:13:21.6470,0.16,-0.03,0.14
2020-08-10 16:13:21.7530,0.9,0.38,-0.05
2020-08-10 16:13:21.8160,0.64,0.32,0.01
2020-08-10 16:13:21.9100,0.14,-0.17,0.01
2020-08-10 16:13:21.9910,-0.31,-0.37,0.15
2020-08-10 16:13:22.0800,-0.82,-0.48,-0.03
2020-08-10 16:13:22.1780,-1.34,-0.19,-0.09
2020-08-10 16:13:22.2730,0.5,-0.36,-0.44
2020-08-10 16:13:22.3620,-0.37,-0.11,0.28
2020-08-10 16:13:22.4530,0.13,-0.08,-0.2
2020-08-10 16:13:22.5440,-0.06,-0.03,0.03
2020-08-10 16:13:22.6370,-0.07,0.03,0.04
2020-08-10 16:13:22.7370,-0.1,0.04,0.02
2020-08-10 16:13:22.8350,-0.05,0.03,-0.01
2020-08-10 16:13:22.9030,-0.08,-0.02,-0.03
2020-08-10 16:13:23.0430,0.05,-0.14,-0.03
2020-08-10 16:13:23.1000,0.2,-0.32,0.01
2020-08-10 16:13:23.1880,0.39,-0.45,0.25
2020-08-10 16:13:23.2640,0.2,-0.0,0.1
2020-08-10 16:13:23.3690,0.66,0.41,-0.08
2020-08-10 16:13:23.4480,0.59,0.16,0.01
2020-08-10 16:13:23.5440,0.02,-0.33,0.08
2020-08-10 16:13:23.6370,-0.47,-0.48,0.12
2020-08-10 16:13:23.7280,-1.04,-0.31,0.03
2020-08-10 16:13:23.8260,-1.29,-0.11,-0.09
2020-08-10 16:13:23.9270,-0.61,-0.66,-0.36
2020-08-10 16:13:23.9950,-0.48,-0.16,0.23
2020-08-10 16:13:24.0750,-0.13,-0.02,-0.03
2020-08-10 16:13:24.1780,-0.03,0.05,0.06
2020-08-10 16:13:24.2680,-0.12,0.04,0.03
2020-08-10 16:13:24.3460,-0.09,-0.0,-0.0
2020-08-10 16:13:24.4400,-0.08,0.03,0.01
2020-08-10 16:13:24.5340,-0.04,-0.02,0.02
2020-08-10 16:13:24.6200,0.0,-0.14,0.01
2020-08-10 16:13:24.7190,0.21,-0.33,-0.01
2020-08-10 16:13:24.8190,0.25,-0.47,0.1
2020-08-10 16:13:24.9170,0.29,-0.0,0.02
2020-08-10 16:13:25.0160,0.68,0.49,-0.05
2020-08-10 16:13:25.0810,0.51,0.14,-0.01
2020-08-10 16:13:25.1690,0.02,-0.22,0.1
2020-08-10 16:13:25.2570,-0.52,-0.5,0.12
2020-08-10 16:13:25.3490,-1.07,-0.37,0.01
2020-08-10 16:13:25.4380,-1.23,-0.11,-0.07
2020-08-10 16:13:25.5300,-0.97,-0.68,-0.35
2020-08-10 16:13:25.6220,-0.38,0.01,0.22
2020-08-10 16:13:25.7090,-0.27,-0.07,0.01
2020-08-10 16:13:25.8180,-0.15,0.01,0.01
2020-08-10 16:13:25.9080,-0.08,0.01,0.01
2020-08-10 16:13:26.0080,-0.04,0.01,-0.0
2020-08-10 16:13:26.0750,-0.09,0.01,0.02
2020-08-10 16:13:26.1570,-0.1,-0.03,-0.02
2020-08-10 16:13:26.2480,-0.01,-0.14,0.04
2020-08-10 16:13:26.3540,0.29,-0.41,0.07
2020-08-10 16:13:26.4310,0.44,-0.41,0.19
2020-08-10 16:13:26.5200,0.2,0.2,0.12
2020-08-10 16:13:26.6310,0.63,0.32,-0.02
2020-08-10 16:13:26.7120,0.47,0.07,-0.03
2020-08-10 16:13:26.8110,-0.11,-0.29,0.16
2020-08-10 16:13:26.9130,-0.67,-0.27,0.12
2020-08-10 16:13:27.0000,-0.87,-0.2,0.02
2020-08-10 16:13:27.0660,-1.09,-0.13,-0.15
2020-08-10 16:13:27.1650,-1.31,-0.91,-0.4
2020-08-10 16:13:27.2540,-0.35,-0.0,0.4
2020-08-10 16:13:27.3440,-0.19,-0.06,-0.04
2020-08-10 16:13:27.4340,-0.18,0.01,0.0
2020-08-10 16:13:27.5390,-0.12,0.03,0.04
2020-08-10 16:13:27.6140,-0.03,0.03,0.02
2020-08-10 16:13:27.7190,-0.05,0.01,0.01
2020-08-10 16:13:27.7950,-0.02,-0.01,-0.0
2020-08-10 16:13:27.9000,0.03,-0.14,0.02
2020-08-10 16:13:28.0030,0.26,-0.49,0.08
2020-08-10 16:13:28.0890,0.7,-0.4,0.18
2020-08-10 16:13:28.1550,0.18,0.2,0.21
2020-08-10 16:13:28.2440,0.65,0.35,0.05
2020-08-10 16:13:28.3340,0.34,0.03,-0.04
2020-08-10 16:13:28.4250,-0.12,-0.33,0.08
2020-08-10 16:13:28.5200,-0.55,-0.33,0.14
2020-08-10 16:13:28.6190,-0.87,-0.18,-0.19
2020-08-10 16:13:28.6980,-1.11,-0.07,-0.05
2020-08-10 16:13:28.7970,-0.9,-0.74,-0.15
2020-08-10 16:13:28.8900,-0.27,0.06,0.29
2020-08-10 16:13:28.9830,-0.13,-0.04,-0.05
2020-08-10 16:13:29.0830,-0.04,0.05,0.02
2020-08-10 16:13:29.1790,-0.1,0.03,0.02
2020-08-10 16:13:29.2460,-0.01,0.04,-0.01
2020-08-10 16:13:29.3270,-0.09,0.03,-0.01
2020-08-10 16:13:29.4170,-0.1,-0.0,0.01
2020-08-10 16:13:29.5100,0.0,-0.09,-0.02
2020-08-10 16:13:29.5980,0.13,-0.28,0.03
2020-08-10 16:13:29.6930,0.3,-0.48,0.19
2020-08-10 16:13:29.7900,0.26,-0.2,0.06
2020-08-10 16:13:29.8850,0.83,0.42,-0.15
2020-08-10 16:13:29.9730,0.58,0.25,-0.02
2020-08-10 16:13:30.0730,0.13,-0.26,-0.13
2020-08-10 16:13:30.1820,-0.52,-0.42,0.12
2020-08-10 16:13:30.2690,-0.91,-0.31,0.03
2020-08-10 16:13:30.3360,-1.24,-0.1,-0.14
2020-08-10 16:13:30.4190,-1.16,-0.85,-0.45
2020-08-10 16:13:30.5090,-0.25,-0.03,0.31
2020-08-10 16:13:30.5990,-0.11,-0.06,-0.09
2020-08-10 16:13:30.6890,-0.12,0.0,0.05
2020-08-10 16:13:30.7800,-0.12,0.02,0.02
2020-08-10 16:13:30.8690,-0.06,0.04,-0.0
2020-08-10 16:13:30.9720,-0.07,-0.02,-0.01
2020-08-10 16:13:31.0680,0.0,-0.01,0.02
2020-08-10 16:13:31.1610,0.05,-0.1,-0.0
2020-08-10 16:13:31.2610,0.27,-0.47,0.11
2020-08-10 16:13:31.3270,0.44,-0.43,0.09
2020-08-10 16:13:31.4090,0.44,0.14,0.08
2020-08-10 16:13:31.4990,0.64,0.37,0.01
2020-08-10 16:13:31.5900,0.38,0.04,-0.03
2020-08-10 16:13:31.6790,-0.04,-0.28,0.12
2020-08-10 16:13:31.7690,-0.47,-0.42,0.15
2020-08-10 16:13:31.8610,-1.02,-0.3,0.02
2020-08-10 16:13:31.9540,-1.27,-0.07,-0.08
2020-08-10 16:13:32.0630,-0.83,-0.76,-0.22
2020-08-10 16:13:32.1300,-0.31,-0.06,0.25
2020-08-10 16:13:32.2190,-0.13,-0.02,-0.01
2020-08-10 16:13:32.3200,-0.09,0.03,-0.01
2020-08-10 16:13:32.3980,-0.07,0.03,0.03
2020-08-10 16:13:32.4890,-0.02,0.01,-0.04
2020-08-10 16:13:32.5810,-0.06,0.04,0.02
2020-08-10 16:13:32.6690,-0.03,-0.02,-0.03
2020-08-10 16:13:32.7590,0.03,-0.17,-0.01
2020-08-10 16:13:32.8500,0.37,-0.47,0.06
2020-08-10 16:13:32.9450,0.58,-0.5,0.22
2020-08-10 16:13:33.0430,0.06,0.17,0.14
2020-08-10 16:13:33.1210,0.65,0.4,-0.15
2020-08-10 16:13:33.2100,0.42,0.09,-0.01
2020-08-10 16:13:33.3010,-0.02,-0.25,0.12
2020-08-10 16:13:33.3900,-0.48,-0.37,0.05
2020-08-10 16:13:33.4790,-0.97,-0.22,0.12
2020-08-10 16:13:33.5710,-1.23,-0.11,-0.09
2020-08-10 16:13:33.6760,-0.39,-0.31,0.23
2020-08-10 16:13:33.7660,-0.58,-0.13,-0.04
2020-08-10 16:13:33.8560,-0.15,-0.02,0.05
2020-08-10 16:13:33.9450,-0.09,0.01,-0.01
2020-08-10 16:13:34.0400,-0.09,0.04,-0.01
2020-08-10 16:13:34.1420,-0.09,0.01,-0.04
2020-08-10 16:13:34.2430,-0.08,0.03,0.01
2020-08-10 16:13:34.3030,-0.02,-0.03,-0.01
2020-08-10 16:13:34.3900,0.07,-0.12,-0.02
2020-08-10 16:13:34.4790,0.37,-0.44,0.03
2020-08-10 16:13:34.5680,0.41,-0.45,0.14
2020-08-10 16:13:34.6670,0.14,0.32,0.17
2020-08-10 16:13:34.7470,0.62,0.39,-0.07
2020-08-10 16:13:34.8470,0.39,0.07,-0.02
2020-08-10 16:13:34.9340,-0.08,-0.22,0.06
2020-08-10 16:13:35.0280,-0.51,-0.38,0.11
2020-08-10 16:13:35.1270,-1.07,-0.23,0.03
2020-08-10 16:13:35.2230,-1.21,-0.12,-0.13
2020-08-10 16:13:35.2920,-0.87,-0.71,-0.17
2020-08-10 16:13:35.3800,-0.4,0.05,0.25
2020-08-10 16:13:35.4750,-0.18,-0.04,0.02
2020-08-10 16:13:35.5700,-0.05,0.02,-0.0
2020-08-10 16:13:35.6560,-0.09,0.02,0.0
2020-08-10 16:13:35.7490,-0.09,0.02,-0.02
2020-08-10 16:13:35.8360,-0.08,0.04,0.01
2020-08-10 16:13:35.9350,-0.04,-0.02,-0.02
2020-08-10 16:13:36.0200,-0.05,-0.15,-0.05
2020-08-10 16:13:36.1190,0.2,-0.3,0.04
2020-08-10 16:13:36.2150,0.4,-0.42,0.18
2020-08-10 16:13:36.3140,0.08,0.13,0.02
2020-08-10 16:13:36.3860,0.68,0.43,-0.07
2020-08-10 16:13:36.4660,0.38,0.19,-0.04
2020-08-10 16:13:36.5620,-0.02,-0.21,0.03
2020-08-10 16:13:36.6620,-0.5,-0.3,0.09
2020-08-10 16:13:36.7390,-0.84,-0.3,0.07
2020-08-10 16:13:36.8270,-1.3,-0.16,-0.05
2020-08-10 16:13:36.9180,1.9,-0.21,-0.07
2020-08-10 16:13:37.0100,-0.39,-0.2,0.26
2020-08-10 16:13:37.1070,0.05,-0.03,-0.08
2020-08-10 16:13:37.2060,-0.12,0.02,0.03
2020-08-10 16:13:37.3060,-0.13,0.02,0.02
2020-08-10 16:13:37.3750,-0.17,-0.02,-0.01
2020-08-10 16:13:37.4560,-0.08,0.04,0.0
2020-08-10 16:13:37.5530,-0.05,0.03,0.01
2020-08-10 16:13:37.6380,-0.03,-0.08,-0.01
2020-08-10 16:13:37.7270,0.14,-0.29,0.03
2020-08-10 16:13:37.8180,0.35,-0.48,0.3
2020-08-10 16:13:37.9070,0.21,-0.22,0.14
2020-08-10 16:13:38.0060,0.75,0.49,-0.09
2020-08-10 16:13:38.0990,0.49,0.38,-0.0
2020-08-10 16:13:38.1980,-0.01,-0.24,0.05
2020-08-10 16:13:38.3000,-0.43,-0.35,0.06
2020-08-10 16:13:38.3660,-0.62,-0.3,0.06
2020-08-10 16:13:38.4480,-1.08,-0.16,-0.08
2020-08-10 16:13:38.5520,-0.76,-0.2,-0.25
2020-08-10 16:13:38.6280,-0.27,-0.37,0.1
2020-08-10 16:13:38.7320,-0.36,-0.02,0.07
2020-08-10 16:13:38.8210,-0.24,0.01,0.12
2020-08-10 16:13:38.9020,-0.07,-0.01,0.0
2020-08-10 16:13:38.9990,-0.14,0.02,0.04
2020-08-10 16:13:39.1000,-0.09,0.0,-0.0
2020-08-10 16:13:39.2010,-0.06,-0.01,-0.03
2020-08-10 16:13:39.2890,-0.04,-0.01,0.03
2020-08-10 16:13:39.3580,0.05,-0.11,0.0
2020-08-10 16:13:39.4540,0.3,-0.35,0.08
2020-08-10 16:13:39.5280,0.47,-0.45,0.24
2020-08-10 16:13:39.6210,0.23,0.09,-0.02
2020-08-10 16:13:39.7070,0.82,0.44,-0.12
2020-08-10 16:13:39.7980,0.42,0.17,0.01
2020-08-10 16:13:39.9020,-0.01,-0.28,0.03
2020-08-10 16:13:39.9810,-0.52,-0.42,0.13
2020-08-10 16:13:40.0810,-0.95,-0.33,0.09
2020-08-10 16:13:40.1900,-1.29,-0.09,-0.06
2020-08-10 16:13:40.2780,-1.12,-0.85,-0.19
2020-08-10 16:13:40.3480,-0.44,-0.01,0.26
2020-08-10 16:13:40.4440,-0.11,0.01,-0.02
2020-08-10 16:13:40.5320,-0.02,0.03,0.05
2020-08-10 16:13:40.6120,-0.11,0.03,0.05
2020-08-10 16:13:40.6980,-0.07,0.04,0.02
2020-08-10 16:13:40.7920,-0.05,0.01,0.0
2020-08-10 16:13:40.8920,-0.03,-0.0,0.02
2020-08-10 16:13:40.9820,0.02,-0.14,0.02
2020-08-10 16:13:41.0720,0.23,-0.33,-0.03
2020-08-10 16:13:41.1700,0.38,-0.38,0.17
2020-08-10 16:13:41.2700,0.23,-0.03,0.11
2020-08-10 16:13:41.3390,0.84,0.44,0.03
2020-08-10 16:13:41.4270,0.59,0.25,0.02
2020-08-10 16:13:41.5090,0.07,-0.24,0.07
2020-08-10 16:13:41.6130,-0.49,-0.35,0.17
2020-08-10 16:13:41.6880,-0.95,-0.46,0.02
2020-08-10 16:13:41.7820,-1.49,-0.19,-0.22
2020-08-10 16:13:41.8830,-1.12,-0.95,-0.46
2020-08-10 16:13:41.9730,-0.4,0.03,0.41
2020-08-10 16:13:42.0660,0.09,-0.06,-0.12
2020-08-10 16:13:42.1620,0.01,0.03,0.0
2020-08-10 16:13:42.2710,-0.09,0.03,0.03
2020-08-10 16:13:42.3280,-0.08,-0.01,0.02
2020-08-10 16:13:42.4100,-0.04,0.03,0.0
2020-08-10 16:13:42.5060,0.02,-0.03,-0.0
2020-08-10 16:13:42.5910,0.08,-0.2,0.01
2020-08-10 16:13:42.6930,0.37,-0.42,0.1
2020-08-10 16:13:42.7820,0.57,-0.5,0.19
2020-08-10 16:13:42.8730,-0.05,0.3,0.29
2020-08-10 16:13:42.9630,0.63,0.45,-0.01
2020-08-10 16:13:43.0610,0.24,-0.11,-0.01
2020-08-10 16:13:43.1520,-0.25,-0.39,0.27
2020-08-10 16:13:43.2570,-0.59,-0.57,-0.07
2020-08-10 16:13:43.3570,-1.49,-0.24,-0.04
2020-08-10 16:13:43.4500,1.84,-0.27,0.07
2020-08-10 16:13:43.5160,-0.31,-0.14,0.23
2020-08-10 16:13:43.6070,0.05,-0.05,-0.14
2020-08-10 16:13:43.6880,-0.03,0.04,0.05
2020-08-10 16:13:43.7850,-0.16,0.02,0.04
2020-08-10 16:13:43.8690,-0.1,0.04,0.01
2020-08-10 16:13:43.9630,-0.06,0.03,-0.03
2020-08-10 16:13:44.0500,-0.03,0.01,0.03
2020-08-10 16:13:44.1460,-0.01,-0.11,-0.02
2020-08-10 16:13:44.2420,0.18,-0.31,0.1
2020-08-10 16:13:44.3430,0.32,-0.51,0.18
2020-08-10 16:13:44.4410,0.34,0.03,0.12
2020-08-10 16:13:44.5080,0.92,0.31,0.18
2020-08-10 16:13:44.5880,0.55,0.24,0.04
2020-08-10 16:13:44.6770,0.15,-0.2,0.01
2020-08-10 16:13:44.7770,-0.24,-0.24,0.18
2020-08-10 16:13:44.8720,-0.69,-0.42,0.02
2020-08-10 16:13:44.9570,-1.47,-0.22,-0.14
2020-08-10 16:13:45.0470,0.23,-0.17,-0.05
2020-08-10 16:13:45.1440,-0.4,-0.2,-0.05
2020-08-10 16:13:45.2400,-0.22,-0.05,-0.08
2020-08-10 16:13:45.3350,-0.15,0.02,0.1
2020-08-10 16:13:45.4410,-0.15,-0.0,0.04
2020-08-10 16:13:45.4990,-0.11,0.04,0.04
2020-08-10 16:13:45.5880,-0.03,0.01,-0.01
2020-08-10 16:13:45.6870,-0.04,-0.0,0.02
2020-08-10 16:13:45.7840,-0.0,-0.08,0.01
2020-08-10 16:13:45.8600,0.16,-0.22,0.01
2020-08-10 16:13:45.9630,0.39,-0.46,0.19
2020-08-10 16:13:46.0530,0.34,-0.18,0.1
2020-08-10 16:13:46.1440,0.85,0.27,0.15
2020-08-10 16:13:46.2320,0.66,0.33,0.06
2020-08-10 16:13:46.3230,0.22,-0.19,0.01
2020-08-10 16:13:46.4230,-0.27,-0.37,0.2
2020-08-10 16:13:46.5310,-0.64,-0.5,-0.02
2020-08-10 16:13:46.5890,-1.36,-0.26,-0.09
2020-08-10 16:13:46.6780,0.18,-0.21,-0.22
2020-08-10 16:13:46.7730,-0.25,-0.07,0.05
2020-08-10 16:13:46.8630,-0.05,-0.01,-0.07
2020-08-10 16:13:46.9540,-0.14,0.03,0.14
2020-08-10 16:13:47.0440,-0.11,0.01,0.01
2020-08-10 16:13:47.1350,-0.08,0.04,0.02
2020-08-10 16:13:47.2240,-0.04,0.03,0.02
2020-08-10 16:13:47.3160,0.01,-0.02,0.02
2020-08-10 16:13:47.4200,-0.03,-0.15,0.0
2020-08-10 16:13:47.5230,0.25,-0.36,-0.04
2020-08-10 16:13:47.6220,0.39,-0.44,0.17
2020-08-10 16:13:47.6780,0.43,-0.02,0.05
2020-08-10 16:13:47.7630,1.05,0.47,0.02
2020-08-10 16:13:47.8570,0.54,0.3,-0.03
2020-08-10 16:13:47.9520,0.0,-0.33,0.14
2020-08-10 16:13:48.0400,-0.33,-0.45,0.07
2020-08-10 16:13:48.1270,-0.89,-0.21,0.04
2020-08-10 16:13:48.2220,-1.29,-0.05,-0.04
2020-08-10 16:13:48.3080,-0.86,-0.87,-0.53
2020-08-10 16:13:48.4140,-0.51,-0.14,0.24
2020-08-10 16:13:48.5100,-0.03,-0.01,0.0
2020-08-10 16:13:48.6080,-0.08,0.02,-0.0
2020-08-10 16:13:48.6790,-0.05,0.02,-0.0
2020-08-10 16:13:48.7680,-0.03,0.0,0.02
2020-08-10 16:13:48.8580,0.02,0.01,0.04
2020-08-10 16:13:48.9380,0.03,-0.07,-0.03
2020-08-10 16:13:49.0310,0.14,-0.2,0.03
2020-08-10 16:13:49.1160,0.47,-0.61,0.19
2020-08-10 16:13:49.2110,0.46,-0.27,0.15
2020-08-10 16:13:49.2980,0.89,0.25,0.19
2020-08-10 16:13:49.3960,0.59,0.27,-0.02
2020-08-10 16:13:49.5010,0.19,-0.23,-0.01
2020-08-10 16:13:49.6020,-0.25,-0.28,0.12
2020-08-10 16:13:49.6700,-0.68,-0.54,-0.13
2020-08-10 16:13:49.7590,-1.5,-0.25,-0.27
2020-08-10 16:13:49.8500,1.83,-0.33,-0.05
2020-08-10 16:13:49.9480,-0.42,0.03,0.26
2020-08-10 16:13:50.0370,-0.11,0.0,-0.0
2020-08-10 16:13:50.1350,-0.08,0.01,-0.02
2020-08-10 16:13:50.2240,-0.06,0.05,0.02
2020-08-10 16:13:50.3150,0.01,0.03,-0.01
2020-08-10 16:13:50.4060,-0.0,0.02,-0.02
2020-08-10 16:13:50.4940,-0.03,-0.1,-0.01
2020-08-10 16:13:50.5860,0.17,-0.32,0.04
2020-08-10 16:13:50.6860,0.38,-0.49,0.16
2020-08-10 16:13:50.7830,0.41,-0.28,0.08
2020-08-10 16:13:50.8510,0.95,0.26,0.09
2020-08-10 16:13:50.9390,0.55,0.28,0.05
2020-08-10 16:13:51.0270,0.13,-0.11,0.06
2020-08-10 16:13:51.1110,-0.21,-0.3,0.02
2020-08-10 16:13:51.2150,-0.61,-0.4,-0.04
2020-08-10 16:13:51.2920,-1.27,-0.22,-0.15
2020-08-10 16:13:51.3950,1.73,-0.19,0.17
2020-08-10 16:13:51.4700,-0.22,-0.05,0.03
2020-08-10 16:13:51.5760,-0.1,-0.04,-0.1
2020-08-10 16:13:51.6680,-0.01,0.06,0.07
2020-08-10 16:13:51.7670,-0.11,0.02,0.01
2020-08-10 16:13:51.8330,-0.01,0.03,-0.0
2020-08-10 16:13:51.9210,0.01,0.01,-0.02
2020-08-10 16:13:52.0130,0.08,0.01,0.04
2020-08-10 16:13:52.1120,0.06,-0.12,-0.04
2020-08-10 16:13:52.1970,0.2,-0.33,0.02
2020-08-10 16:13:52.2910,0.69,-0.47,-0.0
2020-08-10 16:13:52.3790,0.19,-0.11,0.12
2020-08-10 16:13:52.4730,1.02,0.49,0.04
2020-08-10 16:13:52.5600,0.53,0.23,0.01
2020-08-10 16:13:52.6690,0.12,-0.18,0.07
2020-08-10 16:13:52.7590,-0.3,-0.27,0.13
2020-08-10 16:13:52.8580,-0.91,-0.41,0.08
2020-08-10 16:13:52.9250,-1.46,-0.17,-0.04
2020-08-10 16:13:53.0150,-0.83,-0.49,-0.11
2020-08-10 16:13:53.0960,-0.52,-0.07,0.25
2020-08-10 16:13:53.1810,-0.05,-0.01,-0.02
2020-08-10 16:13:53.2780,-0.01,0.04,0.03
2020-08-10 16:13:53.3710,-0.1,0.03,0.01
2020-08-10 16:13:53.4530,-0.04,0.03,0.02
2020-08-10 16:13:53.5540,-0.11,-0.03,-0.03
2020-08-10 16:13:53.6510,-0.07,-0.06,0.0
2020-08-10 16:13:53.7500,0.04,-0.15,0.03
2020-08-10 16:13:53.8500,0.34,-0.42,0.04
2020-08-10 16:13:53.9150,0.44,-0.45,0.12
2020-08-10 16:13:54.0050,0.2,0.13,0.09
2020-08-10 16:13:54.0940,0.65,0.47,0.02
2020-08-10 16:13:54.1720,0.59,0.1,-0.04
2020-08-10 16:13:54.2730,-0.05,-0.36,0.15
2020-08-10 16:13:54.3620,-0.53,-0.39,0.14
2020-08-10 16:13:54.4450,-1.09,-0.18,0.05
2020-08-10 16:13:54.5430,-0.98,-0.21,-0.23
2020-08-10 16:13:54.6560,-0.57,-0.42,0.24
2020-08-10 16:13:54.7410,-0.12,0.0,0.01
2020-08-10 16:13:54.8490,-0.04,0.03,0.03
2020-08-10 16:13:54.9060,-0.08,0.01,0.0
2020-08-10 16:13:54.9960,-0.09,0.01,0.01
2020-08-10 16:13:55.0860,-0.0,0.04,0.02
2020-08-10 16:13:55.1860,-0.03,-0.01,-0.0
2020-08-10 16:13:55.2690,-0.02,-0.09,-0.02
2020-08-10 16:13:55.3540,0.22,-0.37,0.03
2020-08-10 16:13:55.4620,0.44,-0.44,0.2
2020-08-10 16:13:55.5400,0.21,-0.13,0.21
2020-08-10 16:13:55.6340,0.86,0.48,-0.04
2020-08-10 16:13:55.7340,0.7,0.17,-0.11
2020-08-10 16:13:55.8340,0.03,-0.27,0.06
2020-08-10 16:13:55.8980,-0.42,-0.27,0.1
2020-08-10 16:13:55.9980,-1.09,-0.35,0.1
2020-08-10 16:13:56.0750,-1.3,-0.12,-0.1
2020-08-10 16:13:56.1720,-0.73,-0.49,0.05
2020-08-10 16:13:56.2620,-0.2,0.04,0.19
2020-08-10 16:13:56.3490,-0.07,-0.03,-0.05
2020-08-10 16:13:56.4430,-0.01,0.03,0.0
2020-08-10 16:13:56.5390,-0.04,0.03,-0.0
2020-08-10 16:13:56.6310,0.01,0.02,0.01
2020-08-10 16:13:56.7240,0.0,0.01,-0.02
2020-08-10 16:13:56.8240,0.05,-0.05,0.01
2020-08-10 16:13:56.9000,0.12,-0.27,-0.02
2020-08-10 16:13:56.9890,0.4,-0.49,0.17
2020-08-10 16:13:57.0690,0.66,-0.47,0.16
2020-08-10 16:13:57.1580,0.43,0.15,0.26
2020-08-10 16:13:57.2490,0.74,0.38,0.02
2020-08-10 16:13:57.3390,0.16,-0.23,0.01
2020-08-10 16:13:57.4330,-0.25,-0.41,0.14
2020-08-10 16:13:57.5210,-0.66,-0.51,0.01
2020-08-10 16:13:57.6280,-1.23,-0.2,-0.11
2020-08-10 16:13:57.7170,-0.16,-0.13,-0.11
2020-08-10 16:13:57.8220,-0.2,-0.24,-0.06
2020-08-10 16:13:57.8810,-0.08,0.05,0.04
2020-08-10 16:13:57.9810,-0.04,0.03,0.02
2020-08-10 16:13:58.0720,-0.1,0.01,0.02
2020-08-10 16:13:58.1470,-0.11,-0.0,-0.01
2020-08-10 16:13:58.2370,-0.03,0.02,0.0
2020-08-10 16:13:58.3340,-0.0,0.01,0.02
2020-08-10 16:13:58.4260,0.05,-0.07,-0.06
2020-08-10 16:13:58.5090,0.07,-0.23,-0.04
2020-08-10 16:13:58.6100,0.39,-0.47,0.17
2020-08-10 16:13:58.7110,0.56,-0.43,0.16
2020-08-10 16:13:58.8090,0.8,0.29,0.13
2020-08-10 16:13:58.9150,0.66,0.27,-0.03
2020-08-10 16:13:58.9720,0.24,-0.16,-0.01
2020-08-10 16:13:59.0470,-0.22,-0.3,0.21
2020-08-10 16:13:59.1520,-0.68,-0.59,-0.04
2020-08-10 16:13:59.2350,-1.42,-0.22,-0.0
2020-08-10 16:13:59.3290,0.1,-0.24,-0.16
2020-08-10 16:13:59.4140,-0.2,-0.09,0.14
2020-08-10 16:13:59.5000,-0.2,-0.02,-0.01
2020-08-10 16:13:59.5990,-0.05,0.03,0.12
2020-08-10 16:13:59.7070,-0.11,0.02,0.02
2020-08-10 16:13:59.7980,-0.08,0.04,0.01
2020-08-10 16:13:59.8650,-0.05,0.0,-0.06
2020-08-10 16:13:59.9620,-0.09,-0.0,0.01
2020-08-10 16:14:00.0380,0.02,-0.12,-0.07
2020-08-10 16:14:00.1300,0.19,-0.32,0.11
2020-08-10 16:14:00.2320,0.33,-0.41,0.19
2020-08-10 16:14:00.3180,0.16,0.08,-0.02
2020-08-10 16:14:00.3980,0.77,0.45,-0.13
2020-08-10 16:14:00.4950,0.48,0.2,-0.1
2020-08-10 16:14:00.5920,0.04,-0.23,0.05
2020-08-10 16:14:00.6910,-0.53,-0.25,0.26
2020-08-10 16:14:00.8000,-0.82,-0.34,0.06
2020-08-10 16:14:00.8570,-1.24,-0.17,-0.17
2020-08-10 16:14:00.9400,0.43,-0.48,-0.36
2020-08-10 16:14:01.0280,-0.22,-0.03,0.29
2020-08-10 16:14:01.1320,-0.16,-0.01,-0.11
2020-08-10 16:14:01.2080,-0.05,0.01,0.05
2020-08-10 16:14:01.3020,-0.11,0.02,-0.01
2020-08-10 16:14:01.3890,-0.06,0.03,-0.01
2020-08-10 16:14:01.4920,-0.04,0.03,-0.0
2020-08-10 16:14:01.5820,-0.03,-0.04,0.0
2020-08-10 16:14:01.6910,0.05,-0.15,-0.01
2020-08-10 16:14:01.7550,0.29,-0.39,0.02
2020-08-10 16:14:01.8490,0.54,-0.55,0.16
2020-08-10 16:14:01.9370,0.14,0.26,0.23
2020-08-10 16:14:02.0310,0.61,0.3,0.02
2020-08-10 16:14:02.1220,0.27,-0.05,0.08
2020-08-10 16:14:02.2110,-0.06,-0.25,0.16
2020-08-10 16:14:02.3010,-0.53,-0.33,0.12
2020-08-10 16:14:02.3930,-1.16,-0.36,0.03
2020-08-10 16:14:02.4840,-1.36,-0.12,-0.24
2020-08-10 16:14:02.5870,-0.62,-0.37,-0.07
2020-08-10 16:14:02.6790,-0.44,-0.08,0.15
2020-08-10 16:14:02.7810,-0.12,-0.0,0.05
2020-08-10 16:14:02.8740,-0.12,0.01,-0.02
2020-08-10 16:14:02.9690,-0.1,0.02,-0.02
2020-08-10 16:14:03.0370,-0.02,0.04,-0.06
2020-08-10 16:14:03.1160,0.04,0.1,0.04
2020-08-10 16:14:03.2140,0.08,-0.08,-0.05
2020-08-10 16:14:03.3040,0.15,-0.31,0.05
2020-08-10 16:14:03.3930,0.42,-0.47,0.21
2020-08-10 16:14:03.4830,0.29,-0.2,0.16
2020-08-10 16:14:03.5710,1.02,0.39,0.08
2020-08-10 16:14:03.6700,0.58,0.34,0.01
2020-08-10 16:14:03.7680,0.14,-0.32,-0.03
2020-08-10 16:14:03.8610,-0.43,-0.41,0.27
2020-08-10 16:14:03.9600,-0.85,-0.51,-0.04
2020-08-10 16:14:04.0270,-1.28,-0.2,-0.2
2020-08-10 16:14:04.1170,-0.08,-0.58,-0.32
2020-08-10 16:14:04.1990,-0.35,-0.04,0.19
2020-08-10 16:14:04.2980,-0.12,-0.04,-0.05
2020-08-10 16:14:04.3810,-0.07,0.04,0.01
2020-08-10 16:14:04.4760,-0.15,0.04,0.03
2020-08-10 16:14:04.5650,-0.09,0.01,-0.02
2020-08-10 16:14:04.6540,-0.07,0.04,0.01
2020-08-10 16:14:04.7450,-0.05,-0.04,-0.01
2020-08-10 16:14:04.8440,0.04,-0.17,0.04
2020-08-10 16:14:04.9440,0.28,-0.48,0.13
2020-08-10 16:14:05.0430,0.59,-0.39,0.14
2020-08-10 16:14:05.1080,0.32,0.23,0.17
2020-08-10 16:14:05.1900,0.75,0.42,0.01
2020-08-10 16:14:05.2880,0.47,0.03,0.08
2020-08-10 16:14:05.3710,-0.16,-0.4,0.15
2020-08-10 16:14:05.4540,-0.72,-0.58,0.02
2020-08-10 16:14:05.5520,-1.53,-0.31,-0.11
2020-08-10 16:14:05.6450,0.61,-0.17,-0.04
2020-08-10 16:14:05.7370,-0.4,-0.2,0.14
2020-08-10 16:14:05.8350,-0.1,-0.06,-0.09
2020-08-10 16:14:05.9340,-0.0,0.03,0.1
2020-08-10 16:14:06.0010,-0.09,0.0,0.01
2020-08-10 16:14:06.1000,-0.09,0.03,0.0
2020-08-10 16:14:06.1890,-0.09,0.03,-0.03
2020-08-10 16:14:06.2690,-0.06,-0.03,-0.0
2020-08-10 16:14:06.3580,0.06,-0.15,-0.07
2020-08-10 16:14:06.4490,0.26,-0.4,-0.02
2020-08-10 16:14:06.5400,0.51,-0.43,0.14
2020-08-10 16:14:06.6360,0.19,0.23,-0.01
2020-08-10 16:14:06.7280,0.75,0.49,-0.11
2020-08-10 16:14:06.8260,0.44,0.12,0.04
2020-08-10 16:14:06.9350,-0.07,-0.32,0.14
2020-08-10 16:14:06.9910,-0.53,-0.41,0.17
2020-08-10 16:14:07.0900,-1.17,-0.15,-0.01
2020-08-10 16:14:07.1790,-1.52,-0.24,-0.25
2020-08-10 16:14:07.2690,-0.4,-0.32,0.08
2020-08-10 16:14:07.3530,-0.28,0.0,0.03
2020-08-10 16:14:07.4380,-0.24,-0.03,0.07
2020-08-10 16:14:07.5330,-0.18,0.0,0.0
2020-08-10 16:14:07.6260,-0.12,0.03,-0.01
2020-08-10 16:14:07.7170,-0.09,0.0,-0.02
2020-08-10 16:14:07.8160,-0.05,-0.01,0.03
2020-08-10 16:14:07.9160,0.04,-0.13,-0.04
2020-08-10 16:14:07.9820,0.16,-0.38,0.05
2020-08-10 16:14:08.0720,0.42,-0.47,0.06
2020-08-10 16:14:08.1620,0.24,0.08,0.0
2020-08-10 16:14:08.2590,1.09,0.44,-0.07
2020-08-10 16:14:08.3440,0.5,0.26,0.02
2020-08-10 16:14:08.4390,0.08,-0.21,0.02
2020-08-10 16:14:08.5220,-0.38,-0.29,0.11
2020-08-10 16:14:08.6080,-0.82,-0.48,0.03
2020-08-10 16:14:08.7080,-1.61,-0.21,-0.1
2020-08-10 16:14:08.8060,-0.35,-0.5,-0.48
2020-08-10 16:14:08.9070,-0.37,-0.04,0.32
2020-08-10 16:14:08.9790,-0.03,-0.04,-0.04
2020-08-10 16:14:09.0540,-0.03,0.02,-0.01
2020-08-10 16:14:09.1590,-0.12,0.02,0.01
2020-08-10 16:14:09.2490,-0.06,0.02,-0.05
2020-08-10 16:14:09.3390,-0.03,0.03,0.0
2020-08-10 16:14:09.4300,-0.01,-0.06,-0.03
2020-08-10 16:14:09.5210,0.13,-0.27,0.04
2020-08-10 16:14:09.6130,0.57,-0.68,0.21
2020-08-10 16:14:09.7150,0.25,-0.09,0.07
2020-08-10 16:14:09.8040,0.86,0.53,-0.11
2020-08-10 16:14:09.8970,0.61,0.23,0.01
2020-08-10 16:14:09.9960,0.09,-0.25,0.07
2020-08-10 16:14:10.0620,-0.37,-0.34,0.18
2020-08-10 16:14:10.1620,-0.89,-0.42,-0.02
2020-08-10 16:14:10.2430,-1.39,-0.16,-0.12
2020-08-10 16:14:10.3410,1.2,-0.24,-0.33
2020-08-10 16:14:10.4270,-0.28,-0.09,0.16
2020-08-10 16:14:10.5190,-0.07,-0.03,-0.03
2020-08-10 16:14:10.6040,-0.0,0.02,-0.03
2020-08-10 16:14:10.6970,-0.09,0.02,0.02
2020-08-10 16:14:10.7980,-0.0,0.04,-0.0
2020-08-10 16:14:10.8890,-0.0,0.06,0.03
2020-08-10 16:14:10.9870,-0.09,-0.1,-0.02
2020-08-10 16:14:11.0590,0.07,-0.23,0.0
2020-08-10 16:14:11.1530,0.46,-0.64,0.2
2020-08-10 16:14:11.2420,0.52,-0.23,0.17
2020-08-10 16:14:11.3310,0.81,0.3,0.07
2020-08-10 16:14:11.4180,0.53,0.33,0.02
2020-08-10 16:14:11.5090,0.22,-0.14,0.02
2020-08-10 16:14:11.6140,-0.32,-0.32,0.12
2020-08-10 16:14:11.6930,-0.7,-0.37,-0.03
2020-08-10 16:14:11.7850,-1.26,-0.19,-0.09
2020-08-10 16:14:11.8780,1.76,-0.32,0.1
2020-08-10 16:14:11.9770,-0.26,-0.17,0.14
2020-08-10 16:14:12.0750,-0.04,-0.06,-0.16
2020-08-10 16:14:12.1750,0.0,-0.01,0.03
2020-08-10 16:14:12.2430,-0.08,0.0,0.01
2020-08-10 16:14:12.3400,-0.09,0.04,0.0
2020-08-10 16:14:12.4220,-0.05,0.0,-0.01
2020-08-10 16:14:12.5200,-0.01,-0.03,0.01
2020-08-10 16:14:12.6040,0.05,-0.19,-0.04
2020-08-10 16:14:12.6890,0.34,-0.5,-0.02
2020-08-10 16:14:12.7820,0.48,-0.7,0.33
2020-08-10 16:14:12.8770,0.24,0.31,0.09
2020-08-10 16:14:12.9690,0.67,0.42,-0.03
2020-08-10 16:14:13.0690,0.45,0.13,-0.03
2020-08-10 16:14:13.1680,0.03,-0.34,0.16
2020-08-10 16:14:13.2360,-0.49,-0.61,0.06
2020-08-10 16:14:13.3330,-1.4,-0.26,-0.2
2020-08-10 16:14:13.4200,-1.11,-0.24,-0.11
2020-08-10 16:14:13.5090,-0.2,-0.17,-0.13
2020-08-10 16:14:13.6000,-0.29,0.04,0.11
2020-08-10 16:14:13.6890,-0.09,0.0,0.07
2020-08-10 16:14:13.7790,-0.12,0.0,0.0
2020-08-10 16:14:13.8740,-0.05,0.03,-0.0
2020-08-10 16:14:13.9750,-0.12,-0.03,-0.05
2020-08-10 16:14:14.0580,0.01,-0.01,0.03
2020-08-10 16:14:14.1670,0.02,-0.15,-0.07
2020-08-10 16:14:14.2570,0.28,-0.37,0.03
2020-08-10 16:14:14.3550,0.4,-0.47,0.08
2020-08-10 16:14:14.4100,0.28,-0.01,0.06
2020-08-10 16:14:14.5130,0.77,0.49,-0.06
2020-08-10 16:14:14.5970,0.58,0.14,0.01
2020-08-10 16:14:14.6910,-0.13,-0.29,0.13
2020-08-10 16:14:14.7800,-0.51,-0.45,0.03
2020-08-10 16:14:14.8680,-1.2,-0.27,-0.06
2020-08-10 16:14:14.9660,-1.09,-0.18,-0.16
2020-08-10 16:14:15.0490,-0.3,-0.44,-0.07
2020-08-10 16:14:15.1580,-0.26,0.1,0.15
2020-08-10 16:14:15.2490,-0.18,-0.04,-0.02
2020-08-10 16:14:15.3490,-0.13,0.01,-0.02
2020-08-10 16:14:15.4160,-0.14,0.03,-0.01
2020-08-10 16:14:15.5060,-0.07,-0.0,-0.03
2020-08-10 16:14:15.5940,-0.04,0.03,-0.0
2020-08-10 16:14:15.6840,0.0,-0.07,-0.04
2020-08-10 16:14:15.7730,0.09,-0.26,-0.0
2020-08-10 16:14:15.8620,0.44,-0.56,0.17
2020-08-10 16:14:15.9540,0.53,-0.39,0.19
2020-08-10 16:14:16.0430,0.88,0.24,0.14
2020-08-10 16:14:16.1520,0.65,0.33,-0.02
2020-08-10 16:14:16.2550,0.1,-0.14,-0.03
2020-08-10 16:14:16.3430,-0.31,-0.26,0.12
2020-08-10 16:14:16.4520,-0.71,-0.53,-0.04
2020-08-10 16:14:16.4950,-1.46,-0.23,-0.2
2020-08-10 16:14:16.5880,1.82,-0.26,0.06
2020-08-10 16:14:16.6780,-0.28,-0.09,0.34
2020-08-10 16:14:16.7730,-0.05,-0.06,-0.26
2020-08-10 16:14:16.8590,-0.08,0.05,0.05
2020-08-10 16:14:16.9480,-0.11,0.03,-0.01
2020-08-10 16:14:17.0520,-0.05,0.03,0.0
2020-08-10 16:14:17.1460,-0.03,0.01,-0.03
2020-08-10 16:14:17.2330,-0.04,-0.06,0.02
2020-08-10 16:14:17.3340,0.04,-0.18,-0.09
2020-08-10 16:14:17.4310,0.29,-0.42,0.07
2020-08-10 16:14:17.4870,0.42,-0.51,0.15
2020-08-10 16:14:17.5790,0.16,0.15,0.19
2020-08-10 16:14:17.6680,0.59,0.56,-0.02
2020-08-10 16:14:17.7620,0.45,-0.07,-0.01
2020-08-10 16:14:17.8600,-0.13,-0.39,0.15
2020-08-10 16:14:17.9510,-0.6,-0.43,0.07
2020-08-10 16:14:18.0410,-1.16,-0.24,-0.02
2020-08-10 16:14:18.1300,-1.25,-0.09,-0.09
2020-08-10 16:14:18.2250,-1.06,-0.85,-0.31
2020-08-10 16:14:18.3260,-0.44,-0.07,0.14
2020-08-10 16:14:18.4220,-0.15,-0.02,0.04
2020-08-10 16:14:18.5210,-0.14,0.02,-0.03
2020-08-10 16:14:18.5870,-0.1,0.05,0.02
2020-08-10 16:14:18.6700,-0.07,0.02,-0.04
2020-08-10 16:14:18.7620,-0.09,0.02,-0.0
2020-08-10 16:14:18.8520,-0.04,-0.09,-0.03
2020-08-10 16:14:18.9400,0.15,-0.34,0.06
2020-08-10 16:14:19.0300,0.46,-0.6,0.29
2020-08-10 16:14:19.1240,0.09,-0.24,0.11
2020-08-10 16:14:19.2240,0.76,0.45,-0.07
2020-08-10 16:14:19.3210,0.57,0.21,-0.02
2020-08-10 16:14:19.4130,0.0,-0.3,0.1
2020-08-10 16:14:19.5240,-0.47,-0.33,0.16
2020-08-10 16:14:19.5830,-0.81,-0.3,0.07
2020-08-10 16:14:19.6780,-1.19,-0.17,-0.24
2020-08-10 16:14:19.7660,-0.6,-0.75,-0.56
2020-08-10 16:14:19.8480,-0.49,-0.1,0.22
2020-08-10 16:14:19.9420,-0.12,-0.03,-0.02
2020-08-10 16:14:20.0270,-0.08,-0.01,-0.06
2020-08-10 16:14:20.1250,-0.14,0.04,-0.02
2020-08-10 16:14:20.2150,-0.04,0.02,-0.04
2020-08-10 16:14:20.3150,-0.02,0.06,0.01
2020-08-10 16:14:20.4080,0.06,-0.08,-0.1
2020-08-10 16:14:20.5040,0.1,-0.22,0.1
2020-08-10 16:14:20.5630,0.43,-0.48,-0.02
2020-08-10 16:14:20.6690,0.42,-0.28,0.23
2020-08-10 16:14:20.7490,0.49,0.19,0.2
2020-08-10 16:14:20.8460,0.62,0.34,0.07
2020-08-10 16:14:20.9270,0.19,0.01,0.03
2020-08-10 16:14:21.0180,-0.16,-0.33,0.11
2020-08-10 16:14:21.1170,-0.73,-0.41,0.04
2020-08-10 16:14:21.2060,-1.19,-0.25,-0.22
2020-08-10 16:14:21.2980,-0.35,-0.34,-0.25
2020-08-10 16:14:21.3950,-0.17,-0.1,-0.05
2020-08-10 16:14:21.5050,-0.1,-0.03,-0.07
2020-08-10 16:14:21.5630,-0.14,-0.01,0.04
2020-08-10 16:14:21.7020,-0.1,0.03,0.01
2020-08-10 16:14:21.7460,-0.09,0.02,0.01
2020-08-10 16:14:21.8370,-0.1,0.01,0.0
2020-08-10 16:14:21.9320,-0.07,-0.02,0.01
2020-08-10 16:14:22.0180,0.05,-0.12,-0.04
2020-08-10 16:14:22.1080,0.13,-0.27,0.06
2020-08-10 16:14:22.2030,0.41,-0.49,0.13
2020-08-10 16:14:22.2890,0.28,-0.02,-0.06
2020-08-10 16:14:22.3880,0.84,0.46,-0.01
2020-08-10 16:14:22.4860,0.49,0.14,-0.02
2020-08-10 16:14:22.5890,0.01,-0.24,0.09
2020-08-10 16:14:22.6830,-0.59,-0.33,0.16
2020-08-10 16:14:22.7400,-0.86,-0.41,-0.03
2020-08-10 16:14:22.8300,-1.23,-0.21,-0.22
2020-08-10 16:14:22.9280,-0.2,-0.51,-0.4
2020-08-10 16:14:23.0130,-0.37,-0.0,0.17
2020-08-10 16:14:23.1090,-0.18,0.01,-0.04
2020-08-10 16:14:23.1910,-0.07,0.03,-0.01
2020-08-10 16:14:23.2860,-0.16,0.05,-0.0
2020-08-10 16:14:23.3820,-0.13,0.05,-0.04
2020-08-10 16:14:23.4730,-0.05,-0.0,-0.01
2020-08-10 16:14:23.5670,0.03,-0.1,-0.03
2020-08-10 16:14:23.6690,0.13,-0.28,-0.05
2020-08-10 16:14:23.7360,0.37,-0.42,0.15
2020-08-10 16:14:23.8330,0.22,-0.11,0.11
2020-08-10 16:14:23.9220,0.78,0.41,-0.04
2020-08-10 16:14:23.9980,0.51,0.34,0.02
2020-08-10 16:14:24.0870,0.16,-0.1,-0.02
2020-08-10 16:14:24.1840,-0.3,-0.32,0.13
2020-08-10 16:14:24.2780,-0.59,-0.31,0.07
2020-08-10 16:14:24.3670,-1.11,-0.13,-0.18
2020-08-10 16:14:24.4590,0.17,-0.38,-0.42
2020-08-10 16:14:24.5580,0.03,0.12,0.15
2020-08-10 16:14:24.6590,-0.14,-0.09,-0.16
2020-08-10 16:14:24.7580,-0.12,-0.03,0.05
2020-08-10 16:14:24.8230,-0.13,0.04,-0.02
2020-08-10 16:14:24.9230,-0.12,0.03,-0.02
2020-08-10 16:14:25.0200,-0.04,0.02,-0.02
2020-08-10 16:14:25.1000,-0.09,-0.05,-0.02
2020-08-10 16:14:25.1900,0.04,-0.14,-0.04
2020-08-10 16:14:25.2830,0.24,-0.33,-0.05
2020-08-10 16:14:25.3790,0.62,-0.44,0.06
2020-08-10 16:14:25.4630,0.16,0.2,0.05
2020-08-10 16:14:25.5490,0.7,0.52,-0.07
2020-08-10 16:14:25.6490,0.4,0.1,0.02
2020-08-10 16:14:25.7470,0.0,-0.28,0.0
2020-08-10 16:14:25.8480,-0.57,-0.44,0.04
2020-08-10 16:14:25.9460,-1.21,-0.3,0.08
2020-08-10 16:14:26.0110,-1.28,-0.18,-0.16
2020-08-10 16:14:26.0970,-0.9,-0.69,-0.15
2020-08-10 16:14:26.1880,-0.47,-0.05,0.09
2020-08-10 16:14:26.2770,-0.3,-0.03,0.02
2020-08-10 16:14:26.3670,-0.09,-0.01,-0.01
2020-08-10 16:14:26.4590,-0.13,0.01,-0.0
2020-08-10 16:14:26.5510,-0.11,0.01,-0.05
2020-08-10 16:14:26.6390,-0.1,0.03,-0.02
2020-08-10 16:14:26.7370,-0.05,-0.08,-0.03
2020-08-10 16:14:26.8370,0.0,-0.17,-0.06
2020-08-10 16:14:26.9370,0.19,-0.27,-0.03
2020-08-10 16:14:27.0010,0.31,-0.41,0.24
2020-08-10 16:14:27.0870,0.16,-0.05,-0.08
2020-08-10 16:14:27.1780,0.86,0.53,-0.1
2020-08-10 16:14:27.2670,0.5,0.19,-0.03
2020-08-10 16:14:27.3600,0.01,-0.17,0.1
2020-08-10 16:14:27.4480,-0.54,-0.36,0.12
2020-08-10 16:14:27.5440,-1.04,-0.26,0.13
2020-08-10 16:14:27.6290,-1.16,-0.26,-0.22
2020-08-10 16:14:27.7280,-0.62,-0.4,0.26
2020-08-10 16:14:27.8270,-0.42,-0.06,0.08
2020-08-10 16:14:27.9270,-0.15,-0.02,0.04
2020-08-10 16:14:28.0250,-0.14,0.0,-0.01
2020-08-10 16:14:28.0780,-0.14,0.03,-0.03
2020-08-10 16:14:28.1690,-0.06,0.02,0.02
2020-08-10 16:14:28.2660,-0.11,-0.02,-0.06
2020-08-10 16:14:28.3490,-0.04,-0.03,-0.01
2020-08-10 16:14:28.4460,0.03,-0.17,-0.01
2020-08-10 16:14:28.5400,0.3,-0.44,0.06
2020-08-10 16:14:28.6290,0.71,-0.48,0.14
2020-08-10 16:14:28.7240,0.63,0.2,0.17
2020-08-10 16:14:28.8200,0.61,0.38,0.02
2020-08-10 16:14:28.9190,0.25,-0.06,-0.02
2020-08-10 16:14:29.0170,-0.36,-0.4,0.15
2020-08-10 16:14:29.0830,-0.61,-0.4,-0.06
2020-08-10 16:14:29.1740,-1.23,-0.23,-0.11
2020-08-10 16:14:29.2790,0.57,-0.36,0.03
2020-08-10 16:14:29.3690,-0.39,-0.07,-0.12
2020-08-10 16:14:29.4450,-0.17,-0.08,-0.0
2020-08-10 16:14:29.5490,-0.16,-0.02,0.02
2020-08-10 16:14:29.6250,-0.2,0.0,0.01
2020-08-10 16:14:29.7290,-0.14,0.01,-0.01
2020-08-10 16:14:29.8110,-0.15,0.01,-0.02
2020-08-10 16:14:29.9090,-0.1,0.01,-0.06
2020-08-10 16:14:30.0070,-0.0,-0.13,-0.06
2020-08-10 16:14:30.0740,0.15,-0.39,0.1
2020-08-10 16:14:30.1640,0.41,-0.39,0.11
2020-08-10 16:14:30.2540,0.03,0.05,0.04
2020-08-10 16:14:30.3440,0.75,0.5,-0.19
2020-08-10 16:14:30.4360,0.54,0.26,-0.01
2020-08-10 16:14:30.5230,-0.13,-0.22,0.08
2020-08-10 16:14:30.6290,-0.53,-0.4,0.03
2020-08-10 16:14:30.7100,-1.03,-0.39,0.02
2020-08-10 16:14:30.8000,-1.34,-0.15,-0.05
2020-08-10 16:14:30.9000,-0.22,-0.37,-0.39
2020-08-10 16:14:31.0090,-0.31,-0.03,0.41
2020-08-10 16:14:31.0650,0.07,0.0,-0.02
2020-08-10 16:14:31.1540,-0.06,-0.0,-0.07
2020-08-10 16:14:31.2540,-0.15,0.04,-0.02
2020-08-10 16:14:31.3450,-0.16,0.02,-0.06
2020-08-10 16:14:31.4390,-0.11,-0.01,-0.01
2020-08-10 16:14:31.5260,-0.09,-0.05,0.0
2020-08-10 16:14:31.6200,-0.02,-0.14,-0.05
2020-08-10 16:14:31.7040,0.12,-0.23,0.03
2020-08-10 16:14:31.8000,0.34,-0.37,0.12
2020-08-10 16:14:31.8900,0.19,0.04,0.06
2020-08-10 16:14:31.9990,0.65,0.44,-0.14
2020-08-10 16:14:32.0570,0.52,0.32,-0.04
2020-08-10 16:14:32.1570,0.05,-0.28,0.01
2020-08-10 16:14:32.2370,-0.42,-0.31,0.13
2020-08-10 16:14:32.3270,-0.76,-0.4,0.05
2020-08-10 16:14:32.4210,-1.23,-0.17,-0.09
2020-08-10 16:14:32.5070,0.79,-0.14,-0.12
2020-08-10 16:14:32.6090,-0.33,-0.14,0.11
2020-08-10 16:14:32.7000,-0.15,-0.08,-0.03
2020-08-10 16:14:32.7940,-0.09,-0.01,0.07
2020-08-10 16:14:32.8840,-0.16,0.01,0.01
2020-08-10 16:14:32.9830,-0.12,0.05,0.01
2020-08-10 16:14:33.0600,-0.11,0.01,-0.01
2020-08-10 16:14:33.1470,-0.04,-0.0,-0.02
2020-08-10 16:14:33.2270,-0.02,-0.08,-0.02
2020-08-10 16:14:33.3260,0.07,-0.24,0.02
2020-08-10 16:14:33.4190,0.22,-0.35,0.08
2020-08-10 16:14:33.5090,0.34,-0.22,0.13
2020-08-10 16:14:33.5990,0.83,0.19,0.17
2020-08-10 16:14:33.6890,0.69,0.34,-0.02
2020-08-10 16:14:33.7810,0.25,-0.02,-0.04
2020-08-10 16:14:33.8730,-0.18,-0.28,0.17
2020-08-10 16:14:33.9740,-0.59,-0.43,0.04
2020-08-10 16:14:34.0500,-1.04,-0.26,-0.05
2020-08-10 16:14:34.1710,-0.98,-0.15,-0.07
2020-08-10 16:14:34.2370,-0.32,-0.36,-0.01
2020-08-10 16:14:34.3200,-0.34,0.06,0.1
2020-08-10 16:14:34.4090,-0.18,-0.04,0.0
2020-08-10 16:14:34.5000,-0.05,0.01,-0.01
2020-08-10 16:14:34.5890,-0.07,0.01,-0.01
2020-08-10 16:14:34.6800,-0.01,0.01,-0.03
2020-08-10 16:14:34.7690,-0.03,0.04,0.0
2020-08-10 16:14:34.8730,-0.0,-0.04,-0.04
2020-08-10 16:14:34.9710,0.01,-0.13,0.01
2020-08-10 16:14:35.0410,0.2,-0.33,0.02
2020-08-10 16:14:35.1290,0.29,-0.43,0.16
2020-08-10 16:14:35.2280,0.28,0.18,0.07
2020-08-10 16:14:35.3270,0.62,0.37,-0.04
2020-08-10 16:14:35.4150,0.47,0.06,-0.05
2020-08-10 16:14:35.5050,0.04,-0.26,0.1
2020-08-10 16:14:35.5950,-0.39,-0.33,0.21
2020-08-10 16:14:35.6770,-0.94,-0.39,0.05
2020-08-10 16:14:35.7670,-1.32,-0.17,-0.11
2020-08-10 16:14:35.8650,-0.12,-0.38,-0.49
2020-08-10 16:14:35.9590,-0.37,0.18,0.27
2020-08-10 16:14:36.0590,-0.23,-0.03,-0.04
2020-08-10 16:14:36.1690,-0.14,0.03,0.04
2020-08-10 16:14:36.2550,-0.11,0.03,0.02
2020-08-10 16:14:36.3090,-0.06,0.03,0.0
2020-08-10 16:14:36.4080,-0.06,0.02,0.0
2020-08-10 16:14:36.4960,-0.01,-0.01,-0.02
2020-08-10 16:14:36.5860,-0.03,-0.06,-0.03
2020-08-10 16:14:36.6750,0.12,-0.28,-0.01
2020-08-10 16:14:36.7650,0.35,-0.32,0.1
2020-08-10 16:14:36.8440,0.41,-0.26,0.02
2020-08-10 16:14:36.9540,0.9,0.26,0.04
2020-08-10 16:14:37.0540,0.51,0.32,-0.01
2020-08-10 16:14:37.1430,0.11,-0.18,-0.05
2020-08-10 16:14:37.2110,-0.2,-0.27,0.01
2020-08-10 16:14:37.2920,-0.62,-0.39,-0.0
2020-08-10 16:14:37.3950,-1.23,-0.19,-0.02
2020-08-10 16:14:37.4770,-0.67,-0.24,-0.13
2020-08-10 16:14:37.5760,-0.3,-0.2,0.01
2020-08-10 16:14:37.6660,-0.32,0.03,0.1
2020-08-10 16:14:37.7550,-0.15,-0.0,0.03
2020-08-10 16:14:37.8430,-0.02,0.03,0.03
2020-08-10 16:14:37.9350,-0.1,0.02,0.03
2020-08-10 16:14:38.0450,-0.08,0.04,-0.02
2020-08-10 16:14:38.1330,-0.17,-0.0,0.02
2020-08-10 16:14:38.2020,-0.05,0.03,0.01
2020-08-10 16:14:38.2990,-0.09,-0.0,-0.03
2020-08-10 16:14:38.3780,-0.01,-0.04,-0.02
2020-08-10 16:14:38.4750,0.12,-0.39,0.16
2020-08-10 16:14:38.5660,0.31,-0.26,-0.09
2020-08-10 16:14:38.6570,0.41,0.34,0.14
2020-08-10 16:14:38.7480,0.53,0.49,0.02
2020-08-10 16:14:38.8420,0.19,-0.03,-0.11
2020-08-10 16:14:38.9300,-0.52,-0.28,-0.13
2020-08-10 16:14:39.0340,-0.54,-0.14,-0.06
2020-08-10 16:14:39.1340,-0.73,-0.05,0.02
2020-08-10 16:14:39.2320,-0.13,0.16,-0.03
2020-08-10 16:14:39.3010,-0.29,0.21,-0.63
2020-08-10 16:14:39.3750,-0.16,0.13,0.15
2020-08-10 16:14:39.4660,-0.1,0.01,-0.11
2020-08-10 16:14:39.5630,-0.14,0.02,-0.01
2020-08-10 16:14:39.6470,-0.14,0.05,0.03
2020-08-10 16:14:39.7370,-0.08,0.04,0.04
2020-08-10 16:14:39.8340,-0.1,0.04,0.01
2020-08-10 16:14:39.9180,-0.09,0.03,-0.0
2020-08-10 16:14:40.0240,-0.08,0.05,0.01
2020-08-10 16:14:40.1240,-0.09,0.05,0.0
2020-08-10 16:14:40.2170,-0.01,0.03,-0.01
2020-08-10 16:14:40.2810,-0.01,0.05,-0.01
2020-08-10 16:14:40.3810,0.03,0.03,0.0
2020-08-10 16:14:40.4610,-0.06,0.0,-0.04
2020-08-10 16:14:40.5450,-0.04,0.04,-0.01
2020-08-10 16:14:40.6370,-0.0,0.0,0.02
2020-08-10 16:14:40.7270,-0.03,0.06,0.03
2020-08-10 16:14:40.8180,-0.03,0.01,-0.01
2020-08-10 16:14:40.9170,-0.02,0.05,-0.03
2020-08-10 16:14:41.0080,-0.03,0.03,0.02
2020-08-10 16:14:41.1050,0.01,-0.01,-0.01
2020-08-10 16:14:41.2060,-0.06,0.05,-0.06
2020-08-10 16:14:41.2720,-0.05,0.05,0.0
2020-08-10 16:14:41.3720,0.07,0.02,-0.03
2020-08-10 16:14:41.4470,-0.02,0.07,-0.0
2020-08-10 16:14:41.5380,0.02,0.06,-0.02
2020-08-10 16:14:41.6400,-0.05,0.09,-0.02
2020-08-10 16:14:41.7180,-0.07,0.06,-0.03
2020-08-10 16:14:41.8170,0.01,0.06,-0.08
