time,ax,ay,az
2020-08-12 20:5:26.8960,-0.17,-0.14,0.1
2020-08-12 20:5:26.9950,-0.02,0.01,0.02
2020-08-12 20:5:27.0940,-0.01,0.02,-0.01
2020-08-12 20:5:27.1930,-0.01,0.01,0.01
2020-08-12 20:5:27.2930,0.01,-0.0,-0.0
2020-08-12 20:5:27.3920,-0.01,0.01,0.01
2020-08-12 20:5:27.4910,0.01,-0.0,-0.0
2020-08-12 20:5:27.5900,0.01,-0.0,-0.0
2020-08-12 20:5:27.6900,-0.0,0.0,-0.0
2020-08-12 20:5:27.7890,-0.0,0.0,-0.0
2020-08-12 20:5:27.8880,0.0,-0.01,0.0
2020-08-12 20:5:27.9870,-0.01,-0.0,0.0
2020-08-12 20:5:28.0870,0.0,-0.0,-0.0
2020-08-12 20:5:28.1860,0.0,-0.0,-0.0
2020-08-12 20:5:28.2850,0.0,-0.01,0.0
2020-08-12 20:5:28.3840,-0.0,-0.0,-0.0
2020-08-12 20:5:28.4840,-0.0,0.01,-0.0
2020-08-12 20:5:28.5830,0.0,-0.01,0.0
2020-08-12 20:5:28.6820,-0.0,0.0,-0.0
2020-08-12 20:5:28.7810,0.0,-0.01,-0.0
2020-08-12 20:5:28.8800,-0.01,0.01,0.0
2020-08-12 20:5:28.9800,-0.03,0.01,-0.01
2020-08-12 20:5:29.0790,-0.01,0.03,-0.0
2020-08-12 20:5:29.1790,-0.02,-0.01,0.0
2020-08-12 20:5:29.2770,0.01,-0.02,0.02
2020-08-12 20:5:29.3770,-0.01,-0.0,-0.01
2020-08-12 20:5:29.4760,0.02,-0.0,0.01
2020-08-12 20:5:29.5760,0.03,-0.02,0.02
2020-08-12 20:5:29.6750,0.06,-0.08,0.02
2020-08-12 20:5:29.7740,0.03,-0.02,-0.0
2020-08-12 20:5:29.8740,-0.1,0.05,0.11
2020-08-12 20:5:29.9720,0.18,0.1,-0.02
2020-08-12 20:5:30.0720,-0.17,0.08,-0.19
2020-08-12 20:5:30.1710,-0.04,-0.03,0.05
2020-08-12 20:5:30.2700,0.04,-0.01,-0.06
2020-08-12 20:5:30.3700,-0.02,-0.02,0.05
2020-08-12 20:5:30.4690,-0.06,0.02,0.01
2020-08-12 20:5:30.5680,-0.05,-0.03,-0.01
2020-08-12 20:5:30.6670,-0.02,0.01,0.01
2020-08-12 20:5:30.7670,0.06,-0.01,0.02
2020-08-12 20:5:30.8660,0.04,-0.01,0.02
2020-08-12 20:5:30.9660,-0.01,-0.03,-0.03
2020-08-12 20:5:31.0640,0.02,-0.02,0.01
2020-08-12 20:5:31.1640,0.02,-0.16,-0.01
2020-08-12 20:5:31.2630,0.14,-0.52,0.12
2020-08-12 20:5:31.3620,0.05,-0.33,0.32
2020-08-12 20:5:31.4620,0.79,0.26,0.01
2020-08-12 20:5:31.5610,0.5,0.15,-0.06
2020-08-12 20:5:31.6600,0.24,-0.14,0.02
2020-08-12 20:5:31.7590,-0.07,-0.16,0.06
2020-08-12 20:5:31.8590,-0.2,-0.18,0.0
2020-08-12 20:5:31.9580,-0.31,-0.14,-0.07
2020-08-12 20:5:32.0570,-0.35,-0.07,-0.11
2020-08-12 20:5:32.1570,-0.45,0.09,0.02
2020-08-12 20:5:32.2560,-0.41,0.01,-0.03
2020-08-12 20:5:32.3550,-0.47,-0.09,-0.34
2020-08-12 20:5:32.4540,-0.08,0.06,0.01
2020-08-12 20:5:32.5540,-0.08,0.01,0.04
2020-08-12 20:5:32.6530,0.04,0.0,-0.01
2020-08-12 20:5:32.7520,0.02,-0.01,-0.01
2020-08-12 20:5:32.8510,0.08,-0.04,0.02
2020-08-12 20:5:32.9510,0.08,-0.03,0.0
2020-08-12 20:5:33.0500,0.06,-0.08,0.02
2020-08-12 20:5:33.1490,0.03,-0.19,-0.05
2020-08-12 20:5:33.2480,0.17,-0.52,0.05
2020-08-12 20:5:33.3470,0.02,-0.0,0.19
2020-08-12 20:5:33.4470,0.56,0.17,-0.01
2020-08-12 20:5:33.5470,0.28,0.1,-0.06
2020-08-12 20:5:33.6460,0.16,0.01,-0.0
2020-08-12 20:5:33.7450,0.06,-0.06,-0.01
2020-08-12 20:5:33.8440,-0.12,-0.09,0.05
2020-08-12 20:5:33.9430,-0.1,-0.1,-0.04
2020-08-12 20:5:34.0430,-0.27,-0.03,0.06
2020-08-12 20:5:34.1420,-0.26,0.02,-0.02
2020-08-12 20:5:34.2410,-0.35,0.08,-0.0
2020-08-12 20:5:34.3410,-0.39,0.05,-0.11
2020-08-12 20:5:34.4390,0.32,-0.03,0.03
2020-08-12 20:5:34.5390,0.06,-0.05,-0.05
2020-08-12 20:5:34.6380,0.06,-0.0,0.02
2020-08-12 20:5:34.7370,0.03,-0.01,0.01
2020-08-12 20:5:34.8360,0.08,-0.02,0.02
2020-08-12 20:5:34.9360,0.02,-0.06,-0.01
2020-08-12 20:5:35.0350,0.08,-0.12,0.04
2020-08-12 20:5:35.1350,0.06,-0.13,-0.0
2020-08-12 20:5:35.2340,0.29,-0.46,0.2
2020-08-12 20:5:35.3330,0.07,0.26,0.19
2020-08-12 20:5:35.4330,0.27,0.19,-0.15
2020-08-12 20:5:35.5310,0.12,0.01,-0.11
2020-08-12 20:5:35.6310,0.1,0.12,0.02
2020-08-12 20:5:35.7300,0.07,-0.05,-0.04
2020-08-12 20:5:35.8290,-0.0,-0.06,-0.03
2020-08-12 20:5:35.9290,-0.05,-0.08,0.06
2020-08-12 20:5:36.0280,-0.11,-0.06,0.05
2020-08-12 20:5:36.1270,-0.18,-0.03,-0.01
2020-08-12 20:5:36.2270,-0.2,0.02,-0.05
2020-08-12 20:5:36.3260,-0.27,0.08,-0.07
2020-08-12 20:5:36.4250,-0.28,-0.83,-0.32
2020-08-12 20:5:36.5250,-0.07,0.06,0.25
2020-08-12 20:5:36.6230,-0.01,-0.02,0.05
2020-08-12 20:5:36.7230,-0.0,-0.01,-0.01
2020-08-12 20:5:36.8220,0.08,-0.02,0.03
2020-08-12 20:5:36.9220,0.06,-0.03,0.06
2020-08-12 20:5:37.0200,-0.02,-0.08,-0.02
2020-08-12 20:5:37.1190,-0.08,-0.05,0.02
2020-08-12 20:5:37.2190,0.21,-0.57,0.21
2020-08-12 20:5:37.3180,0.15,0.01,0.1
2020-08-12 20:5:37.4180,0.47,0.31,-0.1
2020-08-12 20:5:37.5170,-0.09,0.04,-0.06
2020-08-12 20:5:37.6160,-0.15,0.05,-0.09
2020-08-12 20:5:37.7150,0.04,0.03,0.01
2020-08-12 20:5:37.8150,0.13,-0.04,0.1
2020-08-12 20:5:37.9140,0.12,-0.05,0.07
2020-08-12 20:5:38.0130,-0.0,-0.07,0.06
2020-08-12 20:5:38.1130,-0.19,-0.04,0.03
2020-08-12 20:5:38.2120,-0.29,0.02,-0.01
2020-08-12 20:5:38.3110,-0.35,0.08,-0.06
2020-08-12 20:5:38.4110,-0.17,-1.15,-0.16
2020-08-12 20:5:38.5090,0.08,0.1,0.2
2020-08-12 20:5:38.6090,0.05,-0.02,0.04
2020-08-12 20:5:38.7080,0.03,0.01,0.01
2020-08-12 20:5:38.8070,0.03,-0.01,0.02
2020-08-12 20:5:38.9070,-0.01,-0.04,0.03
2020-08-12 20:5:39.0060,-0.02,-0.1,0.04
2020-08-12 20:5:39.1050,0.09,-0.43,-0.07
2020-08-12 20:5:39.2040,0.1,-0.42,0.22
2020-08-12 20:5:39.3030,0.44,0.37,0.28
2020-08-12 20:5:39.4030,0.44,0.14,0.03
2020-08-12 20:5:39.5020,0.07,-0.13,-0.09
2020-08-12 20:5:39.6020,0.03,0.02,0.04
2020-08-12 20:5:39.7010,-0.09,-0.1,-0.05
2020-08-12 20:5:39.8000,-0.18,-0.04,0.02
2020-08-12 20:5:39.9000,-0.01,-0.0,0.02
2020-08-12 20:5:39.9990,-0.12,-0.03,-0.03
2020-08-12 20:5:40.0980,-0.39,0.06,0.0
2020-08-12 20:5:40.1970,-0.45,0.06,-0.02
2020-08-12 20:5:40.2970,-0.34,-0.48,-0.13
2020-08-12 20:5:40.3960,-0.06,0.16,0.25
2020-08-12 20:5:40.4950,-0.01,-0.05,0.0
2020-08-12 20:5:40.5940,0.05,-0.0,0.01
2020-08-12 20:5:40.6940,-0.0,0.0,0.02
2020-08-12 20:5:40.7930,-0.0,0.01,0.02
2020-08-12 20:5:40.8920,0.09,-0.01,-0.01
2020-08-12 20:5:40.9910,0.03,-0.11,0.05
2020-08-12 20:5:41.0910,0.13,-0.48,0.09
2020-08-12 20:5:41.1900,-0.04,-0.1,0.17
2020-08-12 20:5:41.2890,0.26,0.18,0.01
2020-08-12 20:5:41.3880,0.38,0.07,0.04
2020-08-12 20:5:41.4880,0.27,-0.01,0.05
2020-08-12 20:5:41.5860,0.07,-0.07,-0.01
2020-08-12 20:5:41.6860,0.0,-0.07,-0.05
2020-08-12 20:5:41.7850,0.03,-0.07,0.01
2020-08-12 20:5:41.8850,-0.19,-0.12,0.04
2020-08-12 20:5:41.9840,-0.45,-0.02,0.07
2020-08-12 20:5:42.0830,-0.37,0.08,-0.07
2020-08-12 20:5:42.1830,-0.21,-0.0,0.63
2020-08-12 20:5:42.2810,0.41,-0.06,-0.08
2020-08-12 20:5:42.3810,0.17,-0.05,-0.07
2020-08-12 20:5:42.4810,0.13,-0.01,0.03
2020-08-12 20:5:42.5790,0.02,0.0,0.01
2020-08-12 20:5:42.6780,-0.01,-0.04,0.0
2020-08-12 20:5:42.7780,0.02,-0.08,0.02
2020-08-12 20:5:42.8770,0.05,-0.11,0.02
2020-08-12 20:5:42.9770,0.29,-0.44,0.13
2020-08-12 20:5:43.0750,0.09,0.12,0.04
2020-08-12 20:5:43.1750,0.48,0.19,-0.08
2020-08-12 20:5:43.2740,0.22,-0.01,-0.03
2020-08-12 20:5:43.3730,0.12,-0.03,0.02
2020-08-12 20:5:43.4720,0.1,-0.05,-0.03
2020-08-12 20:5:43.5720,0.03,-0.06,-0.03
2020-08-12 20:5:43.6720,-0.03,-0.07,0.06
2020-08-12 20:5:43.7700,-0.18,-0.07,0.01
2020-08-12 20:5:43.8700,-0.28,-0.01,0.02
2020-08-12 20:5:43.9690,-0.39,0.09,0.04
2020-08-12 20:5:44.0680,-0.51,0.04,-0.33
2020-08-12 20:5:44.1670,0.02,-0.03,0.27
2020-08-12 20:5:44.2670,-0.03,-0.06,-0.09
2020-08-12 20:5:44.3660,-0.1,-0.0,0.01
2020-08-12 20:5:44.4650,0.05,0.0,0.0
2020-08-12 20:5:44.5650,0.09,-0.01,0.02
2020-08-12 20:5:44.6640,0.03,-0.05,-0.05
2020-08-12 20:5:44.7630,0.02,-0.14,0.02
2020-08-12 20:5:44.8620,0.18,-0.43,0.02
2020-08-12 20:5:44.9620,0.16,0.05,0.12
2020-08-12 20:5:45.0610,0.54,0.21,-0.0
2020-08-12 20:5:45.1600,0.24,0.11,-0.04
2020-08-12 20:5:45.2600,0.02,0.03,0.02
2020-08-12 20:5:45.3590,-0.03,0.01,-0.1
2020-08-12 20:5:45.4580,-0.09,-0.03,-0.05
2020-08-12 20:5:45.5570,0.01,0.02,0.05
2020-08-12 20:5:45.6560,0.07,-0.01,0.08
2020-08-12 20:5:45.7560,-0.05,-0.02,0.09
2020-08-12 20:5:45.8550,-0.14,0.05,0.11
2020-08-12 20:5:45.9540,-0.23,0.01,-0.08
2020-08-12 20:5:46.0540,-0.53,-0.03,-0.25
2020-08-12 20:5:46.1530,-0.39,0.27,-0.11
2020-08-12 20:5:46.2520,-0.28,0.0,0.04
2020-08-12 20:5:46.3510,-0.03,-0.03,0.02
2020-08-12 20:5:46.4510,-0.02,0.01,-0.02
2020-08-12 20:5:46.5500,-0.01,-0.01,0.01
2020-08-12 20:5:46.6490,0.01,-0.06,-0.01
2020-08-12 20:5:46.7490,0.01,-0.13,0.04
2020-08-12 20:5:46.8480,0.03,-0.55,0.12
2020-08-12 20:5:46.9470,0.09,-0.12,0.14
2020-08-12 20:5:47.0460,0.55,0.23,-0.01
2020-08-12 20:5:47.1460,0.24,0.15,-0.13
2020-08-12 20:5:47.2450,0.04,-0.02,-0.04
2020-08-12 20:5:47.3440,0.06,0.05,0.02
2020-08-12 20:5:47.4430,0.1,-0.09,-0.03
2020-08-12 20:5:47.5430,-0.06,-0.08,0.08
2020-08-12 20:5:47.6420,-0.06,0.01,0.07
2020-08-12 20:5:47.7410,-0.11,-0.03,0.05
2020-08-12 20:5:47.8400,-0.32,-0.02,0.04
2020-08-12 20:5:47.9400,-0.41,0.05,-0.01
2020-08-12 20:5:48.0390,-0.66,-0.07,-0.33
2020-08-12 20:5:48.1380,0.15,-0.03,0.15
2020-08-12 20:5:48.2370,0.12,-0.03,0.03
2020-08-12 20:5:48.3370,0.07,-0.01,0.03
2020-08-12 20:5:48.4360,-0.05,0.02,-0.01
2020-08-12 20:5:48.5370,-0.11,-0.06,-0.01
2020-08-12 20:5:48.6340,-0.01,-0.05,0.04
2020-08-12 20:5:48.7340,0.06,-0.14,0.02
2020-08-12 20:5:48.8330,0.14,-0.55,-0.01
2020-08-12 20:5:48.9330,0.22,-0.01,0.17
2020-08-12 20:5:49.0320,0.74,0.27,-0.02
2020-08-12 20:5:49.1310,0.15,0.11,-0.06
2020-08-12 20:5:49.2300,-0.14,-0.01,-0.06
2020-08-12 20:5:49.3300,-0.05,-0.02,-0.01
2020-08-12 20:5:49.4290,-0.02,-0.02,0.0
2020-08-12 20:5:49.5280,0.03,0.0,0.05
2020-08-12 20:5:49.6270,0.01,-0.02,0.02
2020-08-12 20:5:49.7260,-0.08,-0.05,-0.02
2020-08-12 20:5:49.8260,-0.19,-0.03,-0.01
2020-08-12 20:5:49.9250,-0.4,0.06,0.02
2020-08-12 20:5:50.0240,-0.7,0.01,-0.19
2020-08-12 20:5:50.1230,0.36,-0.07,0.01
2020-08-12 20:5:50.2230,0.22,-0.07,-0.06
2020-08-12 20:5:50.3220,-0.0,-0.01,-0.01
2020-08-12 20:5:50.4210,0.03,-0.01,-0.01
2020-08-12 20:5:50.5210,0.08,-0.03,0.05
2020-08-12 20:5:50.6200,0.03,-0.06,0.01
2020-08-12 20:5:50.7190,0.0,-0.09,0.02
2020-08-12 20:5:50.8180,0.19,-0.5,0.09
2020-08-12 20:5:50.9180,0.18,-0.04,0.12
2020-08-12 20:5:51.0170,0.49,0.18,-0.08
2020-08-12 20:5:51.1160,0.2,0.06,0.0
2020-08-12 20:5:51.2150,-0.02,0.05,0.06
2020-08-12 20:5:51.3150,0.05,-0.01,0.03
2020-08-12 20:5:51.4140,0.05,-0.02,-0.03
2020-08-12 20:5:51.5130,-0.03,-0.08,0.01
2020-08-12 20:5:51.6130,-0.12,-0.03,0.06
2020-08-12 20:5:51.7120,-0.13,-0.03,-0.02
2020-08-12 20:5:51.8110,-0.28,0.0,-0.04
2020-08-12 20:5:51.9100,-0.33,0.07,-0.01
2020-08-12 20:5:52.0100,-0.19,-0.45,0.2
2020-08-12 20:5:52.1090,0.3,0.07,0.07
2020-08-12 20:5:52.2080,0.1,-0.08,0.02
2020-08-12 20:5:52.3070,0.01,0.02,0.03
2020-08-12 20:5:52.4070,0.03,-0.01,0.02
2020-08-12 20:5:52.5060,0.07,-0.04,-0.02
2020-08-12 20:5:52.6050,0.06,-0.11,0.04
2020-08-12 20:5:52.7040,0.13,-0.41,0.07
2020-08-12 20:5:52.8040,0.19,-0.27,0.09
2020-08-12 20:5:52.9030,0.21,0.33,0.18
2020-08-12 20:5:53.0020,0.38,0.24,-0.06
2020-08-12 20:5:53.1020,0.02,0.0,-0.01
2020-08-12 20:5:53.2010,-0.03,-0.07,0.02
2020-08-12 20:5:53.3000,0.07,0.01,0.01
2020-08-12 20:5:53.3990,-0.0,0.02,-0.02
2020-08-12 20:5:53.4990,-0.07,-0.11,0.03
2020-08-12 20:5:53.5980,-0.23,-0.09,0.02
2020-08-12 20:5:53.6970,-0.43,0.02,0.03
2020-08-12 20:5:53.7960,-0.34,0.08,-0.04
2020-08-12 20:5:53.8960,-0.04,-0.8,-0.05
2020-08-12 20:5:53.9950,0.12,0.1,0.14
2020-08-12 20:5:54.0940,0.03,-0.03,0.03
2020-08-12 20:5:54.1930,0.04,0.0,0.02
2020-08-12 20:5:54.2930,-0.04,0.03,0.0
2020-08-12 20:5:54.3920,0.04,-0.02,0.02
2020-08-12 20:5:54.4910,0.06,-0.1,0.01
2020-08-12 20:5:54.5900,-0.01,-0.14,0.01
2020-08-12 20:5:54.6900,0.22,-0.44,0.05
2020-08-12 20:5:54.7890,0.2,0.08,0.1
2020-08-12 20:5:54.8880,0.63,0.22,0.02
2020-08-12 20:5:54.9870,0.15,0.14,-0.11
2020-08-12 20:5:55.0870,-0.05,0.04,0.01
2020-08-12 20:5:55.1860,-0.01,-0.02,0.01
2020-08-12 20:5:55.2860,0.16,-0.03,0.02
2020-08-12 20:5:55.3850,0.11,-0.11,-0.06
2020-08-12 20:5:55.4840,-0.07,-0.1,0.02
2020-08-12 20:5:55.5830,-0.28,-0.03,0.04
2020-08-12 20:5:55.6820,-0.38,0.05,0.07
2020-08-12 20:5:55.7820,-0.35,0.06,-0.15
2020-08-12 20:5:55.8810,-0.5,0.07,-0.28
2020-08-12 20:5:55.9800,-0.4,-0.05,0.04
2020-08-12 20:5:56.0790,-0.12,-0.03,0.05
2020-08-12 20:5:56.1790,0.01,0.0,0.01
2020-08-12 20:5:56.2780,0.05,-0.0,0.02
2020-08-12 20:5:56.3770,0.06,0.01,-0.0
2020-08-12 20:5:56.4770,0.05,-0.06,0.04
2020-08-12 20:5:56.5760,0.06,-0.24,-0.0
2020-08-12 20:5:56.6750,0.37,-0.47,0.16
2020-08-12 20:5:56.7740,0.29,0.26,0.15
2020-08-12 20:5:56.8740,0.51,0.24,-0.09
2020-08-12 20:5:56.9730,0.11,-0.08,-0.03
2020-08-12 20:5:57.0720,-0.19,-0.04,0.05
2020-08-12 20:5:57.1720,-0.01,0.02,0.03
2020-08-12 20:5:57.2710,0.0,-0.02,0.02
2020-08-12 20:5:57.3700,-0.2,-0.06,0.06
2020-08-12 20:5:57.4690,-0.26,-0.03,0.07
2020-08-12 20:5:57.5690,-0.3,0.05,0.01
2020-08-12 20:5:57.6680,-0.33,0.01,-0.15
2020-08-12 20:5:57.7670,-0.31,0.13,-0.19
2020-08-12 20:5:57.8660,-0.17,-0.04,-0.02
2020-08-12 20:5:57.9660,-0.07,-0.04,0.05
2020-08-12 20:5:58.0650,0.01,0.02,-0.0
2020-08-12 20:5:58.1640,0.01,-0.02,-0.0
2020-08-12 20:5:58.2630,0.03,-0.08,0.02
2020-08-12 20:5:58.3630,0.06,-0.14,0.05
2020-08-12 20:5:58.4620,0.18,-0.59,0.17
2020-08-12 20:5:58.5610,0.04,0.04,0.13
2020-08-12 20:5:58.6600,0.56,0.26,-0.15
2020-08-12 20:5:58.7600,0.17,0.02,-0.06
2020-08-12 20:5:58.8590,0.0,0.03,-0.04
2020-08-12 20:5:58.9580,-0.03,-0.01,-0.01
2020-08-12 20:5:59.0570,-0.03,-0.01,0.01
2020-08-12 20:5:59.1570,0.01,0.01,0.02
2020-08-12 20:5:59.2560,-0.11,-0.04,-0.0
2020-08-12 20:5:59.3560,-0.16,0.0,0.08
2020-08-12 20:5:59.4550,-0.31,0.02,0.04
2020-08-12 20:5:59.5540,-0.36,0.09,-0.11
2020-08-12 20:5:59.6530,-0.08,-0.23,-0.36
2020-08-12 20:5:59.7520,-0.32,0.02,0.07
2020-08-12 20:5:59.8520,-0.09,-0.01,0.1
2020-08-12 20:5:59.9510,0.03,0.01,0.01
2020-08-12 20:6:00.0500,-0.01,0.01,-0.0
2020-08-12 20:6:00.1500,0.03,-0.03,0.05
2020-08-12 20:6:00.2490,0.0,-0.11,0.04
2020-08-12 20:6:00.3480,0.15,-0.45,0.09
2020-08-12 20:6:00.4470,0.28,-0.42,0.21
2020-08-12 20:6:00.5460,0.28,0.34,0.06
2020-08-12 20:6:00.6460,0.38,0.21,0.01
2020-08-12 20:6:00.7450,0.11,-0.1,-0.02
2020-08-12 20:6:00.8440,-0.16,-0.02,0.04
2020-08-12 20:6:00.9440,-0.02,0.02,-0.01
2020-08-12 20:6:01.0430,-0.0,-0.07,0.05
2020-08-12 20:6:01.1420,-0.1,-0.08,0.03
2020-08-12 20:6:01.2410,-0.18,-0.01,0.01
2020-08-12 20:6:01.3410,-0.51,0.03,-0.01
2020-08-12 20:6:01.4400,-0.67,-0.11,-0.31
2020-08-12 20:6:01.5390,-0.16,0.08,-0.16
2020-08-12 20:6:01.6390,-0.19,-0.05,0.0
2020-08-12 20:6:01.7380,-0.05,-0.01,0.03
2020-08-12 20:6:01.8370,-0.02,0.02,0.01
2020-08-12 20:6:01.9360,-0.04,-0.0,0.0
2020-08-12 20:6:02.0360,-0.02,-0.06,0.0
2020-08-12 20:6:02.1350,-0.02,-0.07,0.05
2020-08-12 20:6:02.2340,0.05,-0.12,-0.02
2020-08-12 20:6:02.3330,0.33,-0.59,0.16
2020-08-12 20:6:02.4330,0.02,0.2,0.1
2020-08-12 20:6:02.5320,0.35,0.23,-0.11
2020-08-12 20:6:02.6310,0.13,0.05,-0.05
2020-08-12 20:6:02.7300,0.01,0.01,0.07
2020-08-12 20:6:02.8300,0.12,-0.03,0.02
2020-08-12 20:6:02.9290,-0.03,-0.04,0.05
2020-08-12 20:6:03.0280,-0.09,-0.03,0.03
2020-08-12 20:6:03.1270,-0.08,-0.02,0.04
2020-08-12 20:6:03.2270,-0.15,-0.04,0.01
2020-08-12 20:6:03.3260,-0.15,0.01,-0.02
2020-08-12 20:6:03.4250,-0.28,0.05,-0.05
2020-08-12 20:6:03.5240,-0.53,-0.06,-0.14
2020-08-12 20:6:03.6240,-0.65,0.07,-0.16
2020-08-12 20:6:03.7230,-0.29,0.04,0.12
2020-08-12 20:6:03.8220,-0.09,-0.01,0.06
2020-08-12 20:6:03.9220,0.02,0.02,0.03
2020-08-12 20:6:04.0210,0.04,0.03,0.02
2020-08-12 20:6:04.1200,0.11,-0.02,0.02
2020-08-12 20:6:04.2200,0.09,-0.04,0.02
2020-08-12 20:6:04.3190,-0.01,-0.09,-0.01
2020-08-12 20:6:04.4180,0.04,-0.53,0.12
2020-08-12 20:6:04.5170,0.12,-0.06,0.16
2020-08-12 20:6:04.6160,0.4,0.23,0.07
2020-08-12 20:6:04.7160,0.33,0.18,-0.1
2020-08-12 20:6:04.8150,0.01,-0.07,0.04
2020-08-12 20:6:04.9140,0.0,-0.02,0.01
2020-08-12 20:6:05.0140,0.04,-0.01,-0.04
2020-08-12 20:6:05.1130,-0.06,0.01,-0.01
2020-08-12 20:6:05.2120,0.0,-0.06,0.04
2020-08-12 20:6:05.3110,-0.08,-0.08,0.05
2020-08-12 20:6:05.4110,-0.42,0.02,0.06
2020-08-12 20:6:05.5100,-0.54,0.08,-0.09
2020-08-12 20:6:05.6090,-0.91,-0.83,-0.56
2020-08-12 20:6:05.7090,-0.1,0.07,0.19
2020-08-12 20:6:05.8080,0.03,0.03,0.05
2020-08-12 20:6:05.9070,0.06,0.01,0.02
2020-08-12 20:6:06.0060,0.06,-0.02,0.0
2020-08-12 20:6:06.1060,-0.0,-0.01,0.01
2020-08-12 20:6:06.2050,0.02,-0.06,0.08
2020-08-12 20:6:06.3040,0.16,-0.28,-0.02
2020-08-12 20:6:06.4040,0.29,-0.35,0.0
2020-08-12 20:6:06.5030,0.18,0.12,0.19
2020-08-12 20:6:06.6020,0.62,0.25,0.0
2020-08-12 20:6:06.7010,0.3,0.05,-0.1
2020-08-12 20:6:06.8000,-0.05,-0.05,0.01
2020-08-12 20:6:06.9000,-0.09,-0.11,-0.04
2020-08-12 20:6:06.9990,-0.34,-0.07,0.04
2020-08-12 20:6:07.0980,-0.3,-0.02,0.01
2020-08-12 20:6:07.1970,-0.3,0.04,-0.04
2020-08-12 20:6:07.2970,-0.39,0.07,-0.07
2020-08-12 20:6:07.3960,-0.6,-0.16,-0.41
2020-08-12 20:6:07.4950,-0.33,0.07,0.09
2020-08-12 20:6:07.5950,-0.08,-0.05,0.1
2020-08-12 20:6:07.6940,-0.0,0.02,0.01
2020-08-12 20:6:07.7930,-0.01,-0.01,0.0
2020-08-12 20:6:07.8920,-0.01,0.01,0.03
2020-08-12 20:6:07.9920,0.06,-0.1,-0.02
2020-08-12 20:6:08.0910,0.15,-0.55,0.15
2020-08-12 20:6:08.1900,0.12,-0.36,0.14
2020-08-12 20:6:08.2890,0.29,0.3,0.1
2020-08-12 20:6:08.3890,0.46,0.23,0.05
2020-08-12 20:6:08.4880,0.28,-0.09,-0.01
2020-08-12 20:6:08.5870,-0.23,-0.18,-0.03
2020-08-12 20:6:08.6860,-0.16,-0.06,0.0
2020-08-12 20:6:08.7860,-0.16,-0.05,-0.04
2020-08-12 20:6:08.8850,-0.33,-0.06,0.04
2020-08-12 20:6:08.9840,-0.37,0.04,0.09
2020-08-12 20:6:09.0830,-0.52,0.11,-0.11
2020-08-12 20:6:09.1830,-0.85,-0.69,-0.23
2020-08-12 20:6:09.2820,-0.0,0.14,0.29
2020-08-12 20:6:09.3810,0.04,-0.03,0.05
2020-08-12 20:6:09.4800,0.01,0.0,0.03
2020-08-12 20:6:09.5800,-0.06,-0.01,0.01
2020-08-12 20:6:09.6790,0.02,0.01,0.04
2020-08-12 20:6:09.7780,-0.0,-0.04,-0.0
2020-08-12 20:6:09.8780,0.0,-0.09,0.04
2020-08-12 20:6:09.9770,0.1,-0.4,0.11
2020-08-12 20:6:10.0760,0.08,-0.21,0.11
2020-08-12 20:6:10.1760,0.02,0.21,0.14
2020-08-12 20:6:10.2750,0.52,0.13,-0.1
2020-08-12 20:6:10.3740,0.29,0.0,0.04
2020-08-12 20:6:10.4730,0.18,-0.03,0.01
2020-08-12 20:6:10.5730,0.05,-0.06,0.05
2020-08-12 20:6:10.6720,-0.03,-0.1,-0.03
2020-08-12 20:6:10.7710,-0.2,-0.1,0.02
2020-08-12 20:6:10.8700,-0.4,-0.04,-0.0
2020-08-12 20:6:10.9690,-0.53,0.04,0.03
2020-08-12 20:6:11.0690,1.22,-0.56,0.49
2020-08-12 20:6:11.1680,0.36,-0.03,0.01
2020-08-12 20:6:11.2670,0.15,-0.02,0.01
2020-08-12 20:6:11.3670,0.03,0.0,0.01
2020-08-12 20:6:11.4660,-0.02,0.03,0.01
2020-08-12 20:6:11.5650,-0.04,-0.03,0.02
2020-08-12 20:6:11.6640,0.09,0.02,-0.01
2020-08-12 20:6:11.7640,0.02,-0.04,0.03
2020-08-12 20:6:11.8630,0.03,-0.09,0.05
2020-08-12 20:6:11.9620,0.15,-0.41,0.03
2020-08-12 20:6:12.0610,0.11,-0.06,0.24
2020-08-12 20:6:12.1610,0.59,0.22,-0.01
2020-08-12 20:6:12.2600,0.3,0.08,-0.11
2020-08-12 20:6:12.3600,0.1,0.05,-0.01
2020-08-12 20:6:12.4590,0.11,-0.07,-0.03
2020-08-12 20:6:12.5580,-0.03,-0.05,0.03
2020-08-12 20:6:12.6570,-0.01,-0.07,0.01
2020-08-12 20:6:12.7570,-0.25,-0.07,0.05
2020-08-12 20:6:12.8560,-0.52,0.02,0.08
2020-08-12 20:6:12.9550,-0.58,0.01,-0.25
2020-08-12 20:6:13.0540,-0.55,0.23,-0.02
2020-08-12 20:6:13.1530,-0.3,-0.02,0.01
2020-08-12 20:6:13.2530,-0.17,-0.02,0.09
2020-08-12 20:6:13.3520,-0.01,-0.01,0.0
2020-08-12 20:6:13.4510,-0.01,-0.03,-0.0
2020-08-12 20:6:13.5500,0.06,-0.02,0.06
2020-08-12 20:6:13.6500,0.01,-0.13,0.02
2020-08-12 20:6:13.7490,0.16,-0.53,0.07
2020-08-12 20:6:13.8480,0.17,-0.25,0.17
2020-08-12 20:6:13.9470,0.56,0.31,0.14
2020-08-12 20:6:14.0470,0.53,0.19,-0.01
2020-08-12 20:6:14.1460,0.04,-0.11,-0.0
2020-08-12 20:6:14.2460,-0.08,-0.05,-0.01
2020-08-12 20:6:14.3450,-0.1,-0.14,-0.11
2020-08-12 20:6:14.4440,-0.3,-0.09,0.03
2020-08-12 20:6:14.5430,-0.39,-0.01,0.1
2020-08-12 20:6:14.6430,-0.41,0.06,-0.03
2020-08-12 20:6:14.7420,0.67,-0.2,0.33
2020-08-12 20:6:14.8410,0.22,0.01,0.04
2020-08-12 20:6:14.9400,0.1,-0.04,-0.05
2020-08-12 20:6:15.0400,0.01,-0.0,0.04
2020-08-12 20:6:15.1390,-0.0,0.0,-0.0
2020-08-12 20:6:15.2380,-0.0,0.01,0.0
2020-08-12 20:6:15.3370,0.01,0.01,0.03
2020-08-12 20:6:15.4370,0.03,-0.08,0.0
2020-08-12 20:6:15.5360,0.06,-0.28,0.0
2020-08-12 20:6:15.6350,0.3,-0.53,0.2
2020-08-12 20:6:15.7340,0.0,0.16,0.09
2020-08-12 20:6:15.8330,0.57,0.24,-0.04
2020-08-12 20:6:15.9330,0.21,0.03,-0.07
2020-08-12 20:6:16.0320,-0.19,-0.12,0.09
2020-08-12 20:6:16.1310,-0.02,-0.05,-0.0
2020-08-12 20:6:16.2310,-0.11,-0.15,-0.04
2020-08-12 20:6:16.3300,-0.38,-0.01,0.05
2020-08-12 20:6:16.4290,-0.44,0.05,-0.01
2020-08-12 20:6:16.5290,-0.56,0.08,-0.03
2020-08-12 20:6:16.6280,-0.57,-0.41,0.05
2020-08-12 20:6:16.7270,0.08,0.07,0.1
2020-08-12 20:6:16.8260,-0.06,-0.03,0.01
2020-08-12 20:6:16.9250,0.01,0.0,0.03
2020-08-12 20:6:17.0250,0.01,0.01,0.02
2020-08-12 20:6:17.1240,0.04,0.01,0.03
2020-08-12 20:6:17.2230,0.07,-0.01,-0.03
2020-08-12 20:6:17.3220,0.05,-0.12,0.0
2020-08-12 20:6:17.4220,0.13,-0.47,0.17
2020-08-12 20:6:17.5210,0.22,-0.27,0.12
2020-08-12 20:6:17.6200,0.23,0.32,0.14
2020-08-12 20:6:17.7200,0.39,0.24,-0.07
2020-08-12 20:6:17.8190,0.11,-0.04,-0.0
2020-08-12 20:6:17.9180,-0.09,-0.02,0.06
2020-08-12 20:6:18.0170,0.05,-0.07,-0.04
2020-08-12 20:6:18.1170,-0.06,-0.1,-0.0
2020-08-12 20:6:18.2160,-0.19,-0.07,0.08
2020-08-12 20:6:18.3150,-0.41,0.0,0.09
2020-08-12 20:6:18.4150,-0.42,0.06,-0.02
2020-08-12 20:6:18.5140,0.33,-0.17,-0.07
2020-08-12 20:6:18.6130,0.02,-0.05,0.02
2020-08-12 20:6:18.7120,-0.04,-0.05,0.0
2020-08-12 20:6:18.8120,-0.03,-0.02,0.03
2020-08-12 20:6:18.9110,-0.02,-0.01,0.0
2020-08-12 20:6:19.0100,0.0,0.0,0.02
2020-08-12 20:6:19.1090,0.01,-0.02,0.0
2020-08-12 20:6:19.2090,0.0,0.0,0.02
2020-08-12 20:6:19.3080,0.01,-0.1,0.02
2020-08-12 20:6:19.4070,0.18,-0.49,0.11
2020-08-12 20:6:19.5060,0.13,-0.05,0.14
2020-08-12 20:6:19.6060,0.56,0.17,0.05
2020-08-12 20:6:19.7050,0.42,0.09,-0.02
2020-08-12 20:6:19.8040,0.21,0.02,0.08
2020-08-12 20:6:19.9040,0.08,-0.09,-0.02
2020-08-12 20:6:20.0030,0.01,-0.09,0.0
2020-08-12 20:6:20.1020,-0.06,-0.12,0.02
2020-08-12 20:6:20.2010,-0.34,-0.1,0.06
2020-08-12 20:6:20.3010,-0.6,0.0,0.05
2020-08-12 20:6:20.4000,-0.87,-0.08,-0.27
2020-08-12 20:6:20.4990,-0.04,0.16,-0.17
2020-08-12 20:6:20.5980,-0.09,-0.02,-0.09
2020-08-12 20:6:20.6980,-0.06,-0.01,0.1
2020-08-12 20:6:20.7970,0.02,0.02,0.02
2020-08-12 20:6:20.8960,-0.06,-0.01,0.0
2020-08-12 20:6:20.9950,0.02,-0.05,0.03
2020-08-12 20:6:21.0950,0.03,-0.08,0.03
2020-08-12 20:6:21.1940,-0.01,-0.13,0.08
2020-08-12 20:6:21.2930,0.09,-0.46,0.05
2020-08-12 20:6:21.3930,0.11,-0.08,0.24
2020-08-12 20:6:21.4920,0.45,0.13,0.09
2020-08-12 20:6:21.5910,0.46,0.11,-0.05
2020-08-12 20:6:21.6900,0.18,-0.01,0.03
2020-08-12 20:6:21.7900,0.1,-0.02,-0.05
2020-08-12 20:6:21.8890,-0.03,-0.14,-0.06
2020-08-12 20:6:21.9880,-0.2,-0.1,-0.04
2020-08-12 20:6:22.0870,-0.53,-0.03,-0.03
2020-08-12 20:6:22.1870,-0.81,0.06,-0.15
2020-08-12 20:6:22.2860,-0.51,0.2,-0.28
2020-08-12 20:6:22.3850,-0.24,0.03,0.03
2020-08-12 20:6:22.4840,-0.08,-0.03,0.02
2020-08-12 20:6:22.5840,0.01,0.0,0.02
2020-08-12 20:6:22.6830,-0.01,0.01,0.01
2020-08-12 20:6:22.7820,-0.02,-0.0,0.04
2020-08-12 20:6:22.8820,0.04,0.01,0.04
2020-08-12 20:6:22.9810,0.05,-0.09,0.03
2020-08-12 20:6:23.0800,0.07,-0.27,0.04
2020-08-12 20:6:23.1800,0.19,-0.39,0.07
2020-08-12 20:6:23.2790,0.05,0.08,0.09
2020-08-12 20:6:23.3780,0.51,0.2,-0.01
2020-08-12 20:6:23.4770,0.24,-0.04,-0.03
2020-08-12 20:6:23.5760,-0.07,-0.0,0.05
2020-08-12 20:6:23.6750,-0.04,-0.0,-0.02
2020-08-12 20:6:23.7750,0.04,-0.04,-0.02
2020-08-12 20:6:23.8740,0.01,-0.02,0.02
2020-08-12 20:6:23.9730,-0.02,-0.06,-0.02
2020-08-12 20:6:24.0730,-0.39,-0.05,0.04
2020-08-12 20:6:24.1720,-0.68,0.06,0.03
2020-08-12 20:6:24.2710,-0.32,-0.37,-0.1
2020-08-12 20:6:24.3700,0.02,0.03,0.09
2020-08-12 20:6:24.4700,-0.02,-0.04,-0.01
2020-08-12 20:6:24.5690,0.0,-0.01,-0.01
2020-08-12 20:6:24.6680,0.01,-0.0,0.01
2020-08-12 20:6:24.7680,-0.03,0.0,-0.01
2020-08-12 20:6:24.8670,0.01,-0.03,0.0
2020-08-12 20:6:24.9660,0.03,-0.11,0.04
2020-08-12 20:6:25.0650,0.08,-0.4,0.08
2020-08-12 20:6:25.1650,0.09,-0.18,0.09
2020-08-12 20:6:25.2640,0.17,0.06,0.09
2020-08-12 20:6:25.3630,0.54,0.15,0.01
2020-08-12 20:6:25.4630,0.22,0.03,-0.06
2020-08-12 20:6:25.5620,-0.2,-0.07,-0.03
2020-08-12 20:6:25.6610,-0.22,-0.01,-0.07
2020-08-12 20:6:25.7600,-0.14,-0.02,-0.02
2020-08-12 20:6:25.8600,-0.23,0.0,0.09
2020-08-12 20:6:25.9590,-0.22,0.01,0.06
2020-08-12 20:6:26.0580,-0.25,0.05,-0.02
2020-08-12 20:6:26.1570,-0.59,0.01,-0.27
2020-08-12 20:6:26.2570,-0.05,0.01,0.03
2020-08-12 20:6:26.3560,0.01,0.01,-0.05
2020-08-12 20:6:26.4550,0.03,-0.02,0.11
2020-08-12 20:6:26.5550,-0.01,0.02,0.03
2020-08-12 20:6:26.6540,-0.0,-0.0,0.02
2020-08-12 20:6:26.7530,0.03,-0.02,0.01
2020-08-12 20:6:26.8520,0.02,-0.08,0.01
2020-08-12 20:6:26.9520,0.08,-0.44,0.11
2020-08-12 20:6:27.0510,0.1,-0.13,0.07
2020-08-12 20:6:27.1500,0.2,0.28,0.14
2020-08-12 20:6:27.2500,0.39,0.22,-0.09
2020-08-12 20:6:27.3490,0.07,0.02,0.01
2020-08-12 20:6:27.4480,-0.01,-0.0,-0.02
2020-08-12 20:6:27.5470,0.02,-0.05,-0.0
2020-08-12 20:6:27.6470,-0.02,-0.05,0.02
2020-08-12 20:6:27.7460,-0.27,-0.08,0.02
2020-08-12 20:6:27.8450,-0.51,0.07,0.09
2020-08-12 20:6:27.9440,-0.43,0.05,-0.09
2020-08-12 20:6:28.0430,-0.24,-0.57,-0.08
2020-08-12 20:6:28.1430,-0.02,0.07,0.15
2020-08-12 20:6:28.2420,-0.05,-0.06,0.02
2020-08-12 20:6:28.3410,-0.03,-0.03,0.03
2020-08-12 20:6:28.4410,-0.04,-0.0,0.02
2020-08-12 20:6:28.5400,0.01,-0.01,0.03
2020-08-12 20:6:28.6390,0.05,-0.01,0.06
2020-08-12 20:6:28.7380,0.02,-0.11,0.02
2020-08-12 20:6:28.8380,0.14,-0.38,0.06
2020-08-12 20:6:28.9370,0.15,-0.27,0.02
2020-08-12 20:6:29.0370,0.04,0.1,0.11
2020-08-12 20:6:29.1360,0.67,0.07,0.07
2020-08-12 20:6:29.2350,0.41,0.08,-0.0
2020-08-12 20:6:29.3340,0.15,-0.06,0.0
2020-08-12 20:6:29.4330,-0.09,-0.16,-0.03
2020-08-12 20:6:29.5330,-0.22,-0.11,0.01
2020-08-12 20:6:29.6320,-0.41,-0.07,0.05
2020-08-12 20:6:29.7310,-0.41,0.03,-0.0
2020-08-12 20:6:29.8300,-0.51,0.07,-0.0
2020-08-12 20:6:29.9300,-0.64,-0.22,-0.32
2020-08-12 20:6:30.0290,-0.2,0.09,0.02
2020-08-12 20:6:30.1280,-0.07,0.02,0.1
2020-08-12 20:6:30.2270,-0.04,0.01,0.01
2020-08-12 20:6:30.3260,-0.06,0.01,0.01
2020-08-12 20:6:30.4260,0.02,-0.02,0.03
2020-08-12 20:6:30.5250,0.01,-0.01,0.01
2020-08-12 20:6:30.6240,0.03,-0.03,-0.05
2020-08-12 20:6:30.7240,0.0,-0.12,0.02
2020-08-12 20:6:30.8230,0.1,-0.55,0.1
2020-08-12 20:6:30.9220,0.13,-0.12,0.15
2020-08-12 20:6:31.0220,0.31,0.3,0.14
2020-08-12 20:6:31.1210,0.35,0.15,0.0
2020-08-12 20:6:31.2200,0.13,0.07,0.01
2020-08-12 20:6:31.3190,0.0,-0.05,-0.06
2020-08-12 20:6:31.4190,-0.06,-0.08,-0.05
2020-08-12 20:6:31.5180,-0.13,-0.06,-0.04
2020-08-12 20:6:31.6170,-0.18,-0.05,0.02
2020-08-12 20:6:31.7160,-0.22,-0.0,0.02
2020-08-12 20:6:31.8160,-0.35,0.05,0.02
2020-08-12 20:6:31.9150,-0.53,-0.02,-0.15
2020-08-12 20:6:32.0140,-0.1,0.06,-0.04
2020-08-12 20:6:32.1130,-0.07,-0.02,0.05
2020-08-12 20:6:32.2130,-0.07,-0.05,0.04
2020-08-12 20:6:32.3120,0.02,0.01,0.01
2020-08-12 20:6:32.4110,0.01,-0.0,0.01
2020-08-12 20:6:32.5100,0.02,0.02,0.04
2020-08-12 20:6:32.6100,0.02,0.03,-0.03
2020-08-12 20:6:32.7090,0.07,-0.19,-0.01
2020-08-12 20:6:32.8080,0.21,-0.53,0.02
2020-08-12 20:6:32.9070,0.1,-0.05,0.25
2020-08-12 20:6:33.0070,0.55,0.21,0.0
2020-08-12 20:6:33.1060,0.26,0.14,-0.07
2020-08-12 20:6:33.2050,0.15,0.02,-0.01
2020-08-12 20:6:33.3050,0.08,-0.0,0.03
2020-08-12 20:6:33.4040,-0.06,-0.06,0.09
2020-08-12 20:6:33.5030,-0.07,-0.1,0.01
2020-08-12 20:6:33.6020,-0.22,-0.03,0.08
2020-08-12 20:6:33.7020,-0.38,-0.01,-0.03
2020-08-12 20:6:33.8010,-0.45,0.06,-0.03
2020-08-12 20:6:33.9000,0.12,-0.56,-0.12
2020-08-12 20:6:33.9990,0.03,0.03,0.17
2020-08-12 20:6:34.0990,0.08,-0.04,0.04
2020-08-12 20:6:34.1980,-0.02,0.02,0.01
2020-08-12 20:6:34.2970,-0.02,-0.01,0.01
2020-08-12 20:6:34.3960,0.06,-0.03,0.03
2020-08-12 20:6:34.4960,0.02,-0.08,0.01
2020-08-12 20:6:34.5950,0.04,-0.4,0.07
2020-08-12 20:6:34.6940,0.14,-0.19,0.07
2020-08-12 20:6:34.7940,0.12,0.14,0.1
2020-08-12 20:6:34.8930,0.61,0.15,0.11
2020-08-12 20:6:34.9920,0.29,0.11,-0.03
2020-08-12 20:6:35.0910,-0.04,0.04,0.01
2020-08-12 20:6:35.1910,-0.07,-0.03,-0.07
2020-08-12 20:6:35.2900,-0.03,-0.04,-0.02
2020-08-12 20:6:35.3900,-0.02,-0.07,-0.05
2020-08-12 20:6:35.4890,-0.19,-0.02,0.06
2020-08-12 20:6:35.5880,-0.33,-0.02,0.06
2020-08-12 20:6:35.6870,-0.39,0.04,-0.12
2020-08-12 20:6:35.7860,-0.69,-0.42,-0.28
2020-08-12 20:6:35.8850,-0.21,0.05,0.15
2020-08-12 20:6:35.9850,-0.14,-0.04,0.05
2020-08-12 20:6:36.0840,-0.02,0.02,0.04
2020-08-12 20:6:36.1840,0.02,-0.01,0.01
2020-08-12 20:6:36.2830,0.03,-0.01,0.04
2020-08-12 20:6:36.3820,0.02,0.01,0.04
2020-08-12 20:6:36.4810,0.02,-0.1,0.03
2020-08-12 20:6:36.5800,0.15,-0.42,0.1
2020-08-12 20:6:36.6800,0.02,-0.29,0.09
2020-08-12 20:6:36.7790,0.09,0.13,0.17
2020-08-12 20:6:36.8780,0.52,0.15,-0.04
2020-08-12 20:6:36.9770,0.2,-0.03,-0.08
2020-08-12 20:6:37.0770,0.08,0.03,0.02
2020-08-12 20:6:37.1760,-0.04,-0.05,0.04
2020-08-12 20:6:37.2750,-0.06,-0.04,0.05
2020-08-12 20:6:37.3750,-0.11,-0.05,0.0
2020-08-12 20:6:37.4740,-0.29,-0.05,0.03
2020-08-12 20:6:37.5730,-0.41,0.02,-0.06
2020-08-12 20:6:37.6720,-0.04,-0.0,0.42
2020-08-12 20:6:37.7720,0.36,-0.07,-0.07
2020-08-12 20:6:37.8710,0.17,-0.06,-0.08
2020-08-12 20:6:37.9700,0.09,-0.01,0.02
2020-08-12 20:6:38.0700,0.01,0.02,0.03
2020-08-12 20:6:38.1690,0.06,-0.01,0.03
2020-08-12 20:6:38.2680,0.07,-0.02,0.01
2020-08-12 20:6:38.3670,-0.08,-0.06,0.06
2020-08-12 20:6:38.4660,0.0,-0.16,0.03
2020-08-12 20:6:38.5660,0.15,-0.49,0.08
2020-08-12 20:6:38.6650,0.18,0.05,0.15
2020-08-12 20:6:38.7640,0.66,0.18,-0.03
2020-08-12 20:6:38.8640,0.27,0.08,-0.09
2020-08-12 20:6:38.9630,0.09,-0.0,0.09
2020-08-12 20:6:39.0620,-0.01,-0.05,-0.02
2020-08-12 20:6:39.1610,-0.02,-0.05,0.01
2020-08-12 20:6:39.2610,-0.05,-0.12,-0.01
2020-08-12 20:6:39.3600,-0.32,-0.08,0.02
2020-08-12 20:6:39.4600,-0.44,0.0,-0.01
2020-08-12 20:6:39.5590,-0.37,0.06,-0.1
2020-08-12 20:6:39.6580,-0.41,-0.59,-0.03
2020-08-12 20:6:39.7570,0.03,0.06,0.14
2020-08-12 20:6:39.8560,0.01,-0.04,0.06
2020-08-12 20:6:39.9560,-0.02,-0.0,0.02
2020-08-12 20:6:40.0550,-0.03,0.01,-0.01
2020-08-12 20:6:40.1540,0.0,-0.03,0.03
2020-08-12 20:6:40.2530,0.01,0.01,0.02
2020-08-12 20:6:40.3530,0.01,-0.1,0.04
2020-08-12 20:6:40.4520,0.15,-0.57,0.02
2020-08-12 20:6:40.5510,0.13,-0.12,0.09
2020-08-12 20:6:40.6500,0.45,0.21,0.2
2020-08-12 20:6:40.7500,0.5,0.18,-0.05
2020-08-12 20:6:40.8490,-0.1,-0.05,0.08
2020-08-12 20:6:40.9480,-0.13,-0.11,-0.01
2020-08-12 20:6:41.0470,-0.04,-0.01,0.02
2020-08-12 20:6:41.1460,-0.11,-0.06,-0.01
2020-08-12 20:6:41.2460,-0.31,-0.03,0.04
2020-08-12 20:6:41.3450,-0.38,0.02,-0.02
2020-08-12 20:6:41.4440,-0.39,0.04,-0.15
2020-08-12 20:6:41.5440,-0.3,0.22,-0.1
2020-08-12 20:6:41.6430,-0.31,-0.03,0.07
2020-08-12 20:6:41.7420,-0.08,-0.01,0.08
2020-08-12 20:6:41.8420,0.0,-0.01,0.01
2020-08-12 20:6:41.9410,0.02,0.0,0.02
2020-08-12 20:6:42.0400,0.03,-0.01,0.03
2020-08-12 20:6:42.1390,0.02,-0.03,0.03
2020-08-12 20:6:42.2390,0.09,-0.21,0.13
2020-08-12 20:6:42.3380,0.12,-0.41,-0.02
2020-08-12 20:6:42.4370,0.26,-0.01,0.15
2020-08-12 20:6:42.5360,0.36,0.14,0.05
2020-08-12 20:6:42.6360,0.22,0.16,-0.09
2020-08-12 20:6:42.7350,-0.06,0.02,0.01
2020-08-12 20:6:42.8340,0.03,0.03,-0.03
2020-08-12 20:6:42.9340,-0.02,0.02,0.07
2020-08-12 20:6:43.0330,-0.02,0.02,0.03
2020-08-12 20:6:43.1320,0.05,-0.02,0.04
2020-08-12 20:6:43.2310,-0.04,-0.07,-0.03
2020-08-12 20:6:43.3300,-0.21,-0.04,-0.03
2020-08-12 20:6:43.4300,-0.4,0.07,-0.09
2020-08-12 20:6:43.5290,-0.01,-0.27,0.27
2020-08-12 20:6:43.6280,0.22,-0.02,0.05
2020-08-12 20:6:43.7280,0.13,-0.04,-0.02
2020-08-12 20:6:43.8270,0.08,-0.03,0.08
2020-08-12 20:6:43.9260,-0.01,-0.02,0.02
2020-08-12 20:6:44.0250,0.01,-0.01,0.0
2020-08-12 20:6:44.1250,0.02,-0.02,0.02
2020-08-12 20:6:44.2240,0.06,-0.0,0.03
2020-08-12 20:6:44.3230,0.02,-0.14,0.06
2020-08-12 20:6:44.4220,0.2,-0.43,0.02
2020-08-12 20:6:44.5220,0.16,-0.05,0.08
2020-08-12 20:6:44.6210,0.22,0.18,0.12
2020-08-12 20:6:44.7200,0.36,0.18,-0.02
2020-08-12 20:6:44.8190,0.15,0.04,0.03
2020-08-12 20:6:44.9190,0.07,-0.07,-0.02
2020-08-12 20:6:45.0180,-0.06,-0.03,-0.0
2020-08-12 20:6:45.1170,-0.12,-0.08,0.0
2020-08-12 20:6:45.2170,-0.3,-0.04,0.06
2020-08-12 20:6:45.3160,-0.39,0.04,0.01
2020-08-12 20:6:45.4150,-0.68,-0.01,-0.1
2020-08-12 20:6:45.5140,0.18,0.04,-0.0
2020-08-12 20:6:45.6140,0.03,0.01,-0.04
2020-08-12 20:6:45.7130,0.03,-0.04,0.05
2020-08-12 20:6:45.8120,-0.0,0.02,0.01
2020-08-12 20:6:45.9110,0.01,-0.01,0.0
2020-08-12 20:6:46.0110,0.1,-0.03,0.0
2020-08-12 20:6:46.1100,0.01,-0.16,0.04
2020-08-12 20:6:46.2090,0.1,-0.51,0.03
2020-08-12 20:6:46.3090,0.2,-0.13,0.16
2020-08-12 20:6:46.4080,0.22,0.34,0.09
2020-08-12 20:6:46.5070,0.3,0.22,-0.05
2020-08-12 20:6:46.6070,0.01,0.01,0.04
2020-08-12 20:6:46.7060,0.03,-0.08,-0.04
2020-08-12 20:6:46.8050,-0.07,-0.12,0.02
2020-08-12 20:6:46.9040,-0.16,-0.07,-0.07
2020-08-12 20:6:47.0030,-0.36,-0.03,0.0
2020-08-12 20:6:47.1030,-0.4,0.01,-0.03
2020-08-12 20:6:47.2020,-0.23,0.11,-0.12
2020-08-12 20:6:47.3010,-0.06,0.08,0.06
2020-08-12 20:6:47.4000,-0.0,-0.03,-0.0
2020-08-12 20:6:47.5000,0.04,-0.02,0.06
2020-08-12 20:6:47.5990,0.01,0.03,0.0
2020-08-12 20:6:47.6980,0.02,-0.0,0.03
2020-08-12 20:6:47.7970,0.03,0.01,0.02
2020-08-12 20:6:47.8970,0.06,-0.04,0.01
2020-08-12 20:6:47.9960,0.1,-0.17,0.03
2020-08-12 20:6:48.0960,0.16,-0.47,0.03
2020-08-12 20:6:48.1950,0.29,-0.06,0.25
2020-08-12 20:6:48.2940,0.63,0.18,0.02
2020-08-12 20:6:48.3930,0.23,0.17,-0.0
2020-08-12 20:6:48.4930,-0.05,0.01,-0.01
2020-08-12 20:6:48.5920,-0.02,-0.02,-0.05
2020-08-12 20:6:48.6910,-0.03,0.03,-0.06
2020-08-12 20:6:48.7900,-0.01,-0.04,-0.11
2020-08-12 20:6:48.8900,-0.08,-0.01,0.04
2020-08-12 20:6:48.9890,-0.2,-0.03,0.05
2020-08-12 20:6:49.0880,-0.41,0.0,0.05
2020-08-12 20:6:49.1870,-0.3,0.05,-0.1
2020-08-12 20:6:49.2870,-0.29,-0.42,-0.05
2020-08-12 20:6:49.3860,-0.01,0.07,0.12
2020-08-12 20:6:49.4850,0.05,-0.03,0.05
2020-08-12 20:6:49.5840,-0.04,0.01,0.04
2020-08-12 20:6:49.6840,-0.05,0.02,0.0
2020-08-12 20:6:49.7830,0.03,-0.01,-0.01
2020-08-12 20:6:49.8820,0.02,-0.05,-0.03
2020-08-12 20:6:49.9810,0.01,-0.14,0.02
2020-08-12 20:6:50.0810,0.09,-0.43,0.09
2020-08-12 20:6:50.1800,0.14,-0.11,0.21
2020-08-12 20:6:50.2800,0.36,0.21,-0.03
2020-08-12 20:6:50.3790,0.27,0.09,-0.02
2020-08-12 20:6:50.4780,0.03,0.07,-0.02
2020-08-12 20:6:50.5770,-0.01,-0.03,-0.02
2020-08-12 20:6:50.6770,0.12,0.0,-0.0
2020-08-12 20:6:50.7760,0.07,-0.03,-0.02
2020-08-12 20:6:50.8750,-0.12,-0.06,0.02
2020-08-12 20:6:50.9740,-0.22,-0.02,0.09
2020-08-12 20:6:51.0730,-0.3,0.0,0.03
2020-08-12 20:6:51.1720,-0.41,0.02,-0.06
2020-08-12 20:6:51.2720,-0.08,-0.36,-0.13
2020-08-12 20:6:51.3710,0.0,0.11,0.11
2020-08-12 20:6:51.4700,-0.03,-0.05,0.06
2020-08-12 20:6:51.5700,0.02,-0.0,0.03
2020-08-12 20:6:51.6690,-0.0,0.02,0.02
2020-08-12 20:6:51.7680,0.05,0.01,0.05
2020-08-12 20:6:51.8680,0.08,-0.09,-0.04
2020-08-12 20:6:51.9670,0.09,-0.16,0.05
2020-08-12 20:6:52.0660,0.24,-0.49,0.07
2020-08-12 20:6:52.1650,0.18,0.1,0.02
2020-08-12 20:6:52.2650,0.8,0.18,0.02
2020-08-12 20:6:52.3640,0.36,0.15,-0.01
2020-08-12 20:6:52.4630,0.1,-0.0,0.04
2020-08-12 20:6:52.5620,-0.05,-0.13,0.01
2020-08-12 20:6:52.6620,-0.06,-0.12,-0.03
2020-08-12 20:6:52.7610,-0.25,-0.11,-0.11
2020-08-12 20:6:52.8610,-0.75,0.04,0.03
2020-08-12 20:6:52.9600,-0.81,0.09,-0.14
2020-08-12 20:6:53.0590,0.06,0.01,-0.09
2020-08-12 20:6:53.1580,-0.04,-0.03,0.02
2020-08-12 20:6:53.2570,-0.04,-0.01,0.03
2020-08-12 20:6:53.3560,0.01,0.03,0.03
2020-08-12 20:6:53.4560,-0.04,-0.06,-0.03
2020-08-12 20:6:53.5550,-0.03,-0.01,0.04
2020-08-12 20:6:53.6540,0.06,-0.03,0.01
2020-08-12 20:6:53.7540,0.04,-0.09,-0.02
2020-08-12 20:6:53.8530,0.1,-0.34,0.02
2020-08-12 20:6:53.9520,0.18,-0.38,0.12
2020-08-12 20:6:54.0510,-0.03,0.26,0.11
2020-08-12 20:6:54.1510,0.39,0.16,-0.06
2020-08-12 20:6:54.2500,0.05,0.03,-0.05
2020-08-12 20:6:54.3490,-0.06,-0.0,0.0
2020-08-12 20:6:54.4490,0.03,0.01,0.04
2020-08-12 20:6:54.5480,0.08,0.02,0.07
2020-08-12 20:6:54.6470,-0.04,-0.05,-0.03
2020-08-12 20:6:54.7460,-0.08,-0.08,-0.0
2020-08-12 20:6:54.8450,-0.3,-0.03,0.02
2020-08-12 20:6:54.9450,-0.48,0.07,-0.03
2020-08-12 20:6:55.0440,0.23,-0.99,-0.16
2020-08-12 20:6:55.1430,-0.1,0.07,0.23
2020-08-12 20:6:55.2430,-0.01,-0.04,0.05
2020-08-12 20:6:55.3420,0.01,-0.01,0.02
2020-08-12 20:6:55.4410,-0.02,0.01,-0.01
2020-08-12 20:6:55.5400,-0.0,-0.0,-0.01
2020-08-12 20:6:55.6400,-0.01,-0.03,0.0
2020-08-12 20:6:55.7390,0.02,-0.06,0.03
2020-08-12 20:6:55.8380,0.08,-0.41,0.06
2020-08-12 20:6:55.9380,0.13,-0.18,0.05
2020-08-12 20:6:56.0370,-0.02,0.19,0.09
2020-08-12 20:6:56.1360,0.38,0.09,0.08
2020-08-12 20:6:56.2350,0.37,0.11,0.04
2020-08-12 20:6:56.3350,0.12,-0.07,0.07
2020-08-12 20:6:56.4340,0.12,-0.07,0.03
2020-08-12 20:6:56.5330,0.01,-0.1,0.01
2020-08-12 20:6:56.6330,-0.12,-0.04,0.05
2020-08-12 20:6:56.7320,-0.21,-0.08,0.01
2020-08-12 20:6:56.8310,-0.39,-0.04,-0.01
2020-08-12 20:6:56.9300,-0.41,0.03,0.01
2020-08-12 20:6:57.0300,-0.7,-0.72,-0.36
2020-08-12 20:6:57.1290,-0.07,0.08,0.13
2020-08-12 20:6:57.2280,-0.07,-0.05,0.02
2020-08-12 20:6:57.3270,-0.01,-0.03,0.07
2020-08-12 20:6:57.4270,-0.08,0.05,0.01
2020-08-12 20:6:57.5260,-0.02,-0.01,0.01
2020-08-12 20:6:57.6250,0.07,0.02,0.0
2020-08-12 20:6:57.7240,0.1,-0.01,-0.02
2020-08-12 20:6:57.8240,0.04,-0.11,0.0
2020-08-12 20:6:57.9230,0.11,-0.66,0.12
2020-08-12 20:6:58.0220,0.07,0.02,0.09
2020-08-12 20:6:58.1210,0.59,0.22,0.02
2020-08-12 20:6:58.2200,0.27,0.11,-0.03
2020-08-12 20:6:58.3200,0.09,0.04,0.04
2020-08-12 20:6:58.4190,0.08,-0.02,0.01
2020-08-12 20:6:58.5180,-0.0,-0.09,-0.01
2020-08-12 20:6:58.6180,-0.09,-0.09,-0.03
2020-08-12 20:6:58.7170,-0.19,-0.0,0.04
2020-08-12 20:6:58.8160,-0.2,-0.03,0.04
2020-08-12 20:6:58.9150,-0.42,0.03,0.03
2020-08-12 20:6:59.0150,-0.54,0.0,-0.25
2020-08-12 20:6:59.1140,-0.33,0.14,0.14
2020-08-12 20:6:59.2130,-0.08,-0.01,0.0
2020-08-12 20:6:59.3130,-0.0,-0.0,0.02
2020-08-12 20:6:59.4120,0.03,-0.0,0.04
2020-08-12 20:6:59.5110,-0.02,-0.02,0.01
2020-08-12 20:6:59.6100,0.03,-0.01,0.02
2020-08-12 20:6:59.7100,-0.01,-0.06,0.04
2020-08-12 20:6:59.8090,0.09,-0.25,0.02
2020-08-12 20:6:59.9080,0.15,-0.44,0.1
2020-08-12 20:7:00.0070,0.18,0.09,0.09
2020-08-12 20:7:00.1070,0.63,0.19,-0.04
2020-08-12 20:7:00.2060,0.22,0.08,-0.04
2020-08-12 20:7:00.3050,0.05,0.05,0.03
2020-08-12 20:7:00.4040,0.02,-0.01,-0.03
2020-08-12 20:7:00.5040,0.06,-0.06,-0.0
2020-08-12 20:7:00.6030,-0.08,-0.05,0.02
2020-08-12 20:7:00.7020,-0.22,-0.06,0.01
2020-08-12 20:7:00.8020,-0.35,-0.01,0.03
2020-08-12 20:7:00.9010,-0.43,0.06,-0.09
2020-08-12 20:7:01.0000,-0.32,-0.37,-0.36
2020-08-12 20:7:01.0990,-0.16,0.06,0.17
2020-08-12 20:7:01.1990,-0.05,-0.03,0.08
2020-08-12 20:7:01.2980,0.01,-0.0,0.01
2020-08-12 20:7:01.3970,-0.03,0.01,0.0
2020-08-12 20:7:01.4970,-0.03,-0.03,0.02
2020-08-12 20:7:01.5960,0.11,0.02,-0.03
2020-08-12 20:7:01.6950,0.13,-0.11,-0.01
2020-08-12 20:7:01.7940,0.14,-0.43,0.06
2020-08-12 20:7:01.8930,0.12,-0.22,0.06
2020-08-12 20:7:01.9930,0.05,0.35,0.04
2020-08-12 20:7:02.0920,0.27,0.19,-0.03
2020-08-12 20:7:02.1910,0.05,0.03,0.04
2020-08-12 20:7:02.2900,0.02,0.04,0.02
2020-08-12 20:7:02.3900,0.12,-0.01,-0.03
2020-08-12 20:7:02.4890,0.03,-0.08,0.05
2020-08-12 20:7:02.5880,-0.08,-0.07,0.08
2020-08-12 20:7:02.6880,-0.27,-0.05,0.11
2020-08-12 20:7:02.7870,-0.42,0.05,-0.02
2020-08-12 20:7:02.8860,-0.84,0.02,-0.29
2020-08-12 20:7:02.9850,0.14,0.04,0.02
2020-08-12 20:7:03.0850,-0.03,-0.05,-0.07
2020-08-12 20:7:03.1840,-0.02,-0.02,0.05
2020-08-12 20:7:03.2830,0.02,0.0,-0.01
2020-08-12 20:7:03.3830,0.04,-0.02,0.0
2020-08-12 20:7:03.4820,0.05,-0.05,0.02
2020-08-12 20:7:03.5810,0.04,-0.11,0.03
2020-08-12 20:7:03.6800,0.09,-0.45,0.16
2020-08-12 20:7:03.7800,0.12,-0.19,0.13
2020-08-12 20:7:03.8790,0.38,0.36,0.09
2020-08-12 20:7:03.9780,0.37,0.15,-0.04
2020-08-12 20:7:04.0770,0.01,-0.04,0.04
2020-08-12 20:7:04.1770,0.05,-0.05,0.03
2020-08-12 20:7:04.2760,-0.07,-0.04,-0.01
2020-08-12 20:7:04.3750,-0.15,-0.05,-0.03
2020-08-12 20:7:04.4740,-0.21,-0.03,-0.0
2020-08-12 20:7:04.5740,-0.26,0.02,0.04
2020-08-12 20:7:04.6730,-0.41,0.05,-0.04
2020-08-12 20:7:04.7720,-0.21,0.0,-0.18
2020-08-12 20:7:04.8720,-0.18,0.11,-0.12
2020-08-12 20:7:04.9710,-0.14,-0.05,0.0
2020-08-12 20:7:05.0700,-0.02,-0.05,0.03
2020-08-12 20:7:05.1690,0.01,-0.01,-0.0
2020-08-12 20:7:05.2690,0.02,-0.0,0.0
2020-08-12 20:7:05.3680,0.05,0.03,0.03
2020-08-12 20:7:05.4670,0.01,0.01,0.01
2020-08-12 20:7:05.5670,0.03,-0.17,-0.0
2020-08-12 20:7:05.6660,0.17,-0.5,0.17
2020-08-12 20:7:05.7650,0.25,-0.27,0.16
2020-08-12 20:7:05.8640,0.46,0.34,0.13
2020-08-12 20:7:05.9630,0.43,0.23,-0.12
2020-08-12 20:7:06.0630,-0.09,-0.09,0.07
2020-08-12 20:7:06.1620,-0.18,-0.06,-0.0
2020-08-12 20:7:06.2610,-0.07,-0.02,-0.03
2020-08-12 20:7:06.3610,-0.04,-0.02,-0.03
2020-08-12 20:7:06.4600,-0.18,-0.04,0.09
2020-08-12 20:7:06.5590,-0.31,-0.01,0.0
2020-08-12 20:7:06.6580,-0.46,0.04,-0.03
2020-08-12 20:7:06.7580,0.59,-0.57,0.11
2020-08-12 20:7:06.8570,0.19,0.05,0.09
2020-08-12 20:7:06.9560,0.05,-0.02,-0.01
2020-08-12 20:7:07.0550,0.01,-0.02,0.03
2020-08-12 20:7:07.1550,0.02,0.01,-0.0
2020-08-12 20:7:07.2540,0.02,-0.01,0.01
2020-08-12 20:7:07.3530,0.01,-0.0,0.01
2020-08-12 20:7:07.4530,0.06,-0.04,-0.0
2020-08-12 20:7:07.5520,0.08,-0.2,0.04
2020-08-12 20:7:07.6510,0.28,-0.66,0.11
2020-08-12 20:7:07.7510,-0.03,0.13,0.01
2020-08-12 20:7:07.8500,0.61,0.26,0.02
2020-08-12 20:7:07.9490,0.22,0.05,-0.09
2020-08-12 20:7:08.0480,-0.14,-0.04,-0.03
2020-08-12 20:7:08.1470,-0.06,-0.05,-0.04
2020-08-12 20:7:08.2470,0.09,0.03,0.02
2020-08-12 20:7:08.3460,0.04,-0.04,0.09
2020-08-12 20:7:08.4450,-0.19,-0.06,0.03
2020-08-12 20:7:08.5440,-0.39,-0.02,-0.01
2020-08-12 20:7:08.6440,-0.52,0.05,-0.16
2020-08-12 20:7:08.7430,-0.81,-0.3,-0.16
2020-08-12 20:7:08.8420,-0.26,0.11,0.15
2020-08-12 20:7:08.9420,-0.09,-0.02,0.06
2020-08-12 20:7:09.0410,0.01,0.0,0.05
2020-08-12 20:7:09.1400,-0.01,-0.0,-0.01
2020-08-12 20:7:09.2390,0.03,-0.02,0.03
2020-08-12 20:7:09.3390,0.08,-0.0,0.02
2020-08-12 20:7:09.4380,-0.12,-0.1,0.04
2020-08-12 20:7:09.5370,0.1,-0.4,0.11
2020-08-12 20:7:09.6360,0.25,-0.42,0.11
2020-08-12 20:7:09.7360,-0.01,0.29,0.04
2020-08-12 20:7:09.8350,0.33,0.16,0.02
2020-08-12 20:7:09.9340,0.13,-0.0,-0.04
2020-08-12 20:7:10.0330,0.05,0.1,0.04
2020-08-12 20:7:10.1330,0.1,-0.08,-0.03
2020-08-12 20:7:10.2320,0.05,-0.05,0.02
2020-08-12 20:7:10.3310,-0.11,-0.12,-0.01
2020-08-12 20:7:10.4300,-0.3,-0.07,0.03
2020-08-12 20:7:10.5300,-0.52,0.06,-0.04
2020-08-12 20:7:10.6290,0.09,-0.1,0.29
2020-08-12 20:7:10.7280,0.31,-0.08,0.03
2020-08-12 20:7:10.8280,0.13,-0.03,-0.05
2020-08-12 20:7:10.9270,0.02,0.01,0.04
2020-08-12 20:7:11.0260,0.03,-0.01,0.01
2020-08-12 20:7:11.1250,0.11,-0.01,0.03
2020-08-12 20:7:11.2250,0.07,-0.04,-0.05
2020-08-12 20:7:11.3240,0.05,-0.11,-0.0
2020-08-12 20:7:11.4230,0.19,-0.62,0.11
2020-08-12 20:7:11.5230,0.25,-0.03,0.08
2020-08-12 20:7:11.6220,0.83,0.24,0.0
2020-08-12 20:7:11.7210,0.36,0.04,-0.1
2020-08-12 20:7:11.8200,-0.08,-0.06,0.01
2020-08-12 20:7:11.9200,-0.13,-0.07,0.02
2020-08-12 20:7:12.0190,-0.11,-0.06,0.01
2020-08-12 20:7:12.1180,-0.25,-0.05,0.0
2020-08-12 20:7:12.2170,-0.34,0.01,0.02
2020-08-12 20:7:12.3160,-0.37,0.04,-0.0
2020-08-12 20:7:12.4160,-0.35,0.08,-0.06
2020-08-12 20:7:12.5150,-0.21,0.19,-0.33
2020-08-12 20:7:12.6140,-0.34,-0.02,-0.01
2020-08-12 20:7:12.7140,-0.09,-0.02,0.06
2020-08-12 20:7:12.8130,-0.02,-0.02,0.05
2020-08-12 20:7:12.9120,0.01,-0.01,0.01
2020-08-12 20:7:13.0120,0.06,0.02,0.02
2020-08-12 20:7:13.1110,0.05,-0.1,-0.02
2020-08-12 20:7:13.2100,0.01,-0.22,-0.0
2020-08-12 20:7:13.3090,0.18,-0.5,0.16
2020-08-12 20:7:13.4080,0.09,0.24,0.16
2020-08-12 20:7:13.5080,0.36,0.18,-0.1
2020-08-12 20:7:13.6070,0.23,0.06,-0.04
2020-08-12 20:7:13.7060,0.04,0.03,-0.05
2020-08-12 20:7:13.8050,0.03,-0.05,-0.03
2020-08-12 20:7:13.9050,-0.05,-0.06,0.02
2020-08-12 20:7:14.0040,-0.13,-0.05,0.05
2020-08-12 20:7:14.1040,-0.2,-0.03,0.07
2020-08-12 20:7:14.2030,-0.44,0.04,-0.02
2020-08-12 20:7:14.3020,-0.54,-0.06,-0.17
2020-08-12 20:7:14.4010,-0.19,0.12,-0.2
2020-08-12 20:7:14.5010,-0.3,0.02,0.1
2020-08-12 20:7:14.6000,-0.05,-0.02,0.07
2020-08-12 20:7:14.6990,-0.01,-0.0,0.02
2020-08-12 20:7:14.7980,0.0,0.02,-0.0
2020-08-12 20:7:14.8970,-0.02,-0.01,0.01
2020-08-12 20:7:14.9970,0.01,-0.02,-0.0
2020-08-12 20:7:15.0960,0.08,-0.08,0.04
2020-08-12 20:7:15.1950,0.05,-0.46,0.09
2020-08-12 20:7:15.2940,0.12,-0.2,0.1
2020-08-12 20:7:15.3940,0.08,0.14,0.17
2020-08-12 20:7:15.4930,0.48,0.17,-0.13
2020-08-12 20:7:15.5930,0.25,0.08,0.04
2020-08-12 20:7:15.6920,0.12,0.02,0.04
2020-08-12 20:7:15.7910,0.04,-0.09,0.01
2020-08-12 20:7:15.8900,-0.04,-0.06,-0.08
2020-08-12 20:7:15.9900,-0.2,-0.07,0.03
2020-08-12 20:7:16.0890,-0.39,-0.01,0.1
2020-08-12 20:7:16.1880,-0.45,0.03,0.04
2020-08-12 20:7:16.2870,-0.61,0.02,-0.27
2020-08-12 20:7:16.3870,-0.06,0.07,-0.02
2020-08-12 20:7:16.4860,-0.05,-0.04,0.02
2020-08-12 20:7:16.5850,0.01,-0.0,0.04
2020-08-12 20:7:16.6840,-0.02,-0.0,0.01
2020-08-12 20:7:16.7830,0.04,-0.01,0.05
2020-08-12 20:7:16.8830,0.05,-0.02,-0.03
2020-08-12 20:7:16.9820,0.05,-0.1,0.0
2020-08-12 20:7:17.0820,0.12,-0.28,-0.0
2020-08-12 20:7:17.1810,0.08,-0.32,0.12
2020-08-12 20:7:17.2800,0.12,0.12,0.14
2020-08-12 20:7:17.3790,0.61,0.11,-0.07
2020-08-12 20:7:17.4780,0.33,0.1,0.02
2020-08-12 20:7:17.5780,0.11,0.02,0.05
2020-08-12 20:7:17.6770,-0.05,-0.01,-0.05
2020-08-12 20:7:17.7760,-0.08,-0.07,-0.06
2020-08-12 20:7:17.8760,-0.13,-0.04,-0.03
2020-08-12 20:7:17.9750,-0.3,-0.02,0.05
2020-08-12 20:7:18.0740,-0.41,-0.0,0.06
2020-08-12 20:7:18.1730,-0.28,0.06,-0.19
2020-08-12 20:7:18.2730,-0.22,0.06,-0.09
2020-08-12 20:7:18.3720,-0.19,-0.02,0.03
2020-08-12 20:7:18.4710,-0.01,-0.03,0.04
2020-08-12 20:7:18.5700,0.01,0.02,0.01
2020-08-12 20:7:18.6690,0.03,-0.01,-0.02
2020-08-12 20:7:18.7690,0.01,0.0,0.03
2020-08-12 20:7:18.8680,0.13,-0.03,0.05
2020-08-12 20:7:18.9670,0.1,-0.16,0.01
2020-08-12 20:7:19.0670,0.24,-0.53,0.04
2020-08-12 20:7:19.1660,0.08,0.09,-0.01
2020-08-12 20:7:19.2650,0.67,0.25,-0.0
2020-08-12 20:7:19.3640,0.26,0.06,-0.02
2020-08-12 20:7:19.4640,0.1,-0.01,0.1
2020-08-12 20:7:19.5630,0.15,-0.05,0.02
2020-08-12 20:7:19.6620,-0.06,-0.07,0.01
2020-08-12 20:7:19.7620,-0.15,-0.11,0.03
2020-08-12 20:7:19.8610,-0.41,-0.05,0.08
2020-08-12 20:7:19.9600,-0.53,0.03,-0.05
2020-08-12 20:7:20.0590,-0.02,-0.06,0.11
2020-08-12 20:7:20.1590,0.37,-0.02,0.01
2020-08-12 20:7:20.2580,0.12,-0.05,-0.06
2020-08-12 20:7:20.3570,0.02,-0.02,0.04
2020-08-12 20:7:20.4570,-0.01,0.0,-0.0
2020-08-12 20:7:20.5560,0.0,-0.0,0.0
2020-08-12 20:7:20.6550,-0.01,-0.02,-0.0
2020-08-12 20:7:20.7540,0.07,-0.14,-0.06
2020-08-12 20:7:20.8530,0.16,-0.53,0.16
2020-08-12 20:7:20.9530,0.14,-0.21,0.09
2020-08-12 20:7:21.0520,0.34,0.33,0.13
2020-08-12 20:7:21.1510,0.39,0.16,-0.05
2020-08-12 20:7:21.2510,0.04,0.03,0.02
2020-08-12 20:7:21.3500,0.01,-0.07,-0.03
2020-08-12 20:7:21.4490,-0.07,-0.07,-0.02
2020-08-12 20:7:21.5480,-0.21,-0.06,-0.01
2020-08-12 20:7:21.6480,-0.29,-0.06,-0.0
2020-08-12 20:7:21.7470,-0.43,-0.0,0.01
2020-08-12 20:7:21.8460,-0.36,0.06,-0.05
2020-08-12 20:7:21.9450,-0.46,-0.38,-0.2
2020-08-12 20:7:22.0450,-0.19,0.03,0.14
2020-08-12 20:7:22.1440,-0.05,0.0,0.08
2020-08-12 20:7:22.2430,0.01,-0.01,0.01
2020-08-12 20:7:22.3430,0.0,-0.0,-0.0
2020-08-12 20:7:22.4420,-0.0,-0.02,0.03
2020-08-12 20:7:22.5410,0.04,-0.01,0.02
2020-08-12 20:7:22.6400,0.04,-0.12,0.03
2020-08-12 20:7:22.7400,0.17,-0.51,0.03
2020-08-12 20:7:22.8390,0.08,-0.2,0.14
2020-08-12 20:7:22.9380,-0.03,0.15,0.04
2020-08-12 20:7:23.0370,0.4,0.11,0.01
2020-08-12 20:7:23.1370,0.28,0.04,0.06
2020-08-12 20:7:23.2360,0.16,-0.01,0.05
2020-08-12 20:7:23.3360,-0.0,-0.12,-0.02
2020-08-12 20:7:23.4340,-0.23,-0.14,0.03
2020-08-12 20:7:23.5330,-0.44,-0.04,0.06
2020-08-12 20:7:23.6330,-0.62,0.05,0.0
2020-08-12 20:7:23.7320,-0.46,0.0,-0.19
2020-08-12 20:7:23.8310,0.13,0.06,0.01
2020-08-12 20:7:23.9310,-0.02,-0.03,-0.07
2020-08-12 20:7:24.0300,-0.01,-0.02,0.09
2020-08-12 20:7:24.1290,0.01,0.0,0.02
2020-08-12 20:7:24.2290,0.06,-0.0,0.01
2020-08-12 20:7:24.3280,0.02,-0.1,0.01
2020-08-12 20:7:24.4270,0.02,-0.17,0.02
2020-08-12 20:7:24.5270,0.18,-0.41,0.11
2020-08-12 20:7:24.6260,0.02,0.11,0.0
2020-08-12 20:7:24.7250,0.55,0.19,-0.11
2020-08-12 20:7:24.8240,0.28,0.05,0.02
2020-08-12 20:7:24.9230,0.11,0.01,0.03
2020-08-12 20:7:25.0230,0.08,-0.05,-0.02
2020-08-12 20:7:25.1220,0.02,-0.08,-0.06
2020-08-12 20:7:25.2210,-0.06,-0.1,-0.03
2020-08-12 20:7:25.3200,-0.29,-0.06,0.07
2020-08-12 20:7:25.4200,-0.4,-0.0,-0.0
2020-08-12 20:7:25.5190,-0.44,0.02,-0.17
2020-08-12 20:7:25.6180,-0.42,0.15,-0.21
2020-08-12 20:7:25.7170,-0.31,0.0,0.03
2020-08-12 20:7:25.8170,-0.14,-0.01,0.09
2020-08-12 20:7:25.9160,0.02,0.03,0.05
2020-08-12 20:7:26.0150,0.03,0.0,-0.03
2020-08-12 20:7:26.1150,-0.0,-0.02,0.01
2020-08-12 20:7:26.2140,0.05,-0.05,0.02
2020-08-12 20:7:26.3130,0.03,-0.15,0.01
2020-08-12 20:7:26.4120,0.23,-0.53,0.04
2020-08-12 20:7:26.5120,0.24,-0.09,0.15
2020-08-12 20:7:26.6110,0.29,0.28,0.09
2020-08-12 20:7:26.7100,0.29,0.15,-0.06
2020-08-12 20:7:26.8090,0.05,0.06,0.02
2020-08-12 20:7:26.9090,0.12,0.01,0.04
2020-08-12 20:7:27.0080,0.16,-0.08,-0.01
2020-08-12 20:7:27.1070,-0.09,-0.12,0.06
2020-08-12 20:7:27.2060,-0.34,-0.08,0.06
2020-08-12 20:7:27.3060,-0.5,0.03,0.01
2020-08-12 20:7:27.4050,-0.5,-0.01,-0.27
2020-08-12 20:7:27.5040,-0.12,0.15,-0.05
2020-08-12 20:7:27.6030,-0.13,0.03,-0.01
2020-08-12 20:7:27.7030,-0.07,-0.06,0.06
2020-08-12 20:7:27.8020,-0.04,0.01,0.01
2020-08-12 20:7:27.9020,0.01,-0.01,-0.0
2020-08-12 20:7:28.0010,0.02,0.01,0.02
2020-08-12 20:7:28.1000,0.07,-0.09,-0.01
2020-08-12 20:7:28.1990,0.09,-0.36,0.08
2020-08-12 20:7:28.2990,0.11,-0.22,0.01
2020-08-12 20:7:28.3980,0.07,0.15,0.04
2020-08-12 20:7:28.4970,0.5,0.11,-0.04
2020-08-12 20:7:28.5960,0.24,0.1,-0.02
2020-08-12 20:7:28.6960,0.06,0.01,0.06
2020-08-12 20:7:28.7950,0.12,-0.03,0.08
2020-08-12 20:7:28.8940,0.12,-0.05,0.05
2020-08-12 20:7:28.9930,-0.07,-0.13,-0.07
2020-08-12 20:7:29.0930,-0.23,-0.05,-0.01
2020-08-12 20:7:29.1920,-0.36,0.02,0.02
2020-08-12 20:7:29.2910,-0.4,0.04,0.01
2020-08-12 20:7:29.3910,-0.02,-0.22,0.13
2020-08-12 20:7:29.4900,0.04,0.03,-0.01
2020-08-12 20:7:29.5890,0.08,-0.06,-0.05
2020-08-12 20:7:29.6880,0.04,-0.03,0.11
2020-08-12 20:7:29.7870,-0.06,0.03,0.0
2020-08-12 20:7:29.8870,0.02,-0.01,0.01
2020-08-12 20:7:29.9860,0.02,-0.02,-0.02
2020-08-12 20:7:30.0850,-0.02,-0.14,0.03
2020-08-12 20:7:30.1840,0.11,-0.46,0.15
2020-08-12 20:7:30.2840,0.11,-0.17,0.11
2020-08-12 20:7:30.3830,-0.05,0.3,0.04
2020-08-12 20:7:30.4820,0.3,0.16,-0.04
2020-08-12 20:7:30.5820,0.2,0.01,-0.03
2020-08-12 20:7:30.6810,0.05,0.04,-0.01
2020-08-12 20:7:30.7800,-0.09,-0.02,-0.02
2020-08-12 20:7:30.8790,-0.03,-0.07,0.01
2020-08-12 20:7:30.9790,-0.07,-0.06,0.06
2020-08-12 20:7:31.0780,-0.32,-0.02,0.11
2020-08-12 20:7:31.1770,-0.35,0.02,0.01
2020-08-12 20:7:31.2760,-0.45,0.06,-0.13
2020-08-12 20:7:31.3760,-0.04,-0.62,-0.16
2020-08-12 20:7:31.4750,0.12,0.08,0.08
2020-08-12 20:7:31.5740,0.05,-0.05,-0.09
2020-08-12 20:7:31.6740,0.01,-0.0,0.06
2020-08-12 20:7:31.7730,-0.0,0.01,0.03
2020-08-12 20:7:31.8720,-0.04,-0.01,0.0
2020-08-12 20:7:31.9710,0.01,-0.01,-0.01
2020-08-12 20:7:32.0700,0.0,-0.07,0.01
2020-08-12 20:7:32.1700,-0.01,-0.24,0.05
2020-08-12 20:7:32.2690,0.18,-0.39,0.09
2020-08-12 20:7:32.3680,0.25,0.12,0.07
2020-08-12 20:7:32.4680,0.59,0.19,0.02
2020-08-12 20:7:32.5670,0.22,0.09,0.01
2020-08-12 20:7:32.6660,0.07,0.02,0.05
2020-08-12 20:7:32.7650,-0.02,-0.02,0.04
2020-08-12 20:7:32.8650,0.02,-0.05,0.01
2020-08-12 20:7:32.9640,-0.03,-0.05,-0.06
2020-08-12 20:7:33.0630,-0.1,-0.07,-0.04
2020-08-12 20:7:33.1620,-0.38,-0.05,0.02
2020-08-12 20:7:33.2620,-0.4,0.05,-0.03
2020-08-12 20:7:33.3610,-0.48,0.02,0.03
2020-08-12 20:7:33.4600,0.2,0.0,-0.07
2020-08-12 20:7:33.5600,0.02,-0.02,-0.06
2020-08-12 20:7:33.6590,0.04,-0.02,0.05
2020-08-12 20:7:33.7580,-0.02,-0.0,0.01
2020-08-12 20:7:33.8570,0.0,-0.01,0.01
2020-08-12 20:7:33.9570,0.03,-0.01,0.01
2020-08-12 20:7:34.0560,-0.02,-0.05,-0.0
2020-08-12 20:7:34.1550,0.01,-0.17,0.01
2020-08-12 20:7:34.2540,0.2,-0.57,0.15
2020-08-12 20:7:34.3540,0.06,0.06,0.08
2020-08-12 20:7:34.4540,0.63,0.27,-0.08
2020-08-12 20:7:34.5520,0.19,0.02,-0.1
2020-08-12 20:7:34.6520,0.01,-0.02,0.13
2020-08-12 20:7:34.7510,0.11,-0.01,0.04
2020-08-12 20:7:34.8500,0.11,-0.05,0.02
2020-08-12 20:7:34.9490,-0.0,-0.08,0.03
2020-08-12 20:7:35.0490,-0.18,-0.09,0.01
2020-08-12 20:7:35.1480,-0.43,-0.02,0.01
2020-08-12 20:7:35.2480,-0.59,0.05,-0.02
2020-08-12 20:7:35.3460,1.01,-0.45,0.36
2020-08-12 20:7:35.4460,0.35,-0.02,0.07
2020-08-12 20:7:35.5450,0.1,-0.03,-0.06
2020-08-12 20:7:35.6440,0.06,-0.02,0.02
2020-08-12 20:7:35.7430,-0.02,0.02,-0.0
2020-08-12 20:7:35.8430,0.05,0.02,0.02
2020-08-12 20:7:35.9420,-0.07,-0.04,0.02
2020-08-12 20:7:36.0410,-0.01,-0.19,0.03
2020-08-12 20:7:36.1400,0.2,-0.51,0.07
2020-08-12 20:7:36.2400,0.28,-0.05,0.18
2020-08-12 20:7:36.3390,0.84,0.19,0.07
2020-08-12 20:7:36.4380,0.25,0.07,-0.11
2020-08-12 20:7:36.5380,-0.05,0.02,-0.05
2020-08-12 20:7:36.6370,-0.07,0.01,-0.04
2020-08-12 20:7:36.7360,-0.02,0.0,-0.03
2020-08-12 20:7:36.8360,0.01,-0.01,-0.01
2020-08-12 20:7:36.9350,-0.03,-0.01,0.03
2020-08-12 20:7:37.0340,-0.17,-0.01,0.1
2020-08-12 20:7:37.1330,-0.31,-0.0,0.07
2020-08-12 20:7:37.2320,-0.4,-0.03,-0.13
2020-08-12 20:7:37.3320,-0.04,-0.15,-0.15
2020-08-12 20:7:37.4310,-0.14,0.04,0.06
2020-08-12 20:7:37.5300,-0.01,-0.03,0.09
2020-08-12 20:7:37.6300,0.03,-0.0,0.0
2020-08-12 20:7:37.7290,-0.03,-0.0,0.01
2020-08-12 20:7:37.8280,0.0,-0.01,0.02
2020-08-12 20:7:37.9280,0.05,-0.06,0.01
2020-08-12 20:7:38.0260,0.05,-0.19,0.02
2020-08-12 20:7:38.1260,0.21,-0.47,0.11
2020-08-12 20:7:38.2250,-0.06,0.23,0.08
2020-08-12 20:7:38.3240,0.46,0.09,-0.09
2020-08-12 20:7:38.4230,0.32,0.04,0.02
2020-08-12 20:7:38.5230,0.25,-0.02,0.1
2020-08-12 20:7:38.6220,0.01,-0.08,0.03
2020-08-12 20:7:38.7210,-0.06,-0.08,0.04
2020-08-12 20:7:38.8210,-0.15,-0.07,0.04
2020-08-12 20:7:38.9210,-0.32,-0.05,0.11
2020-08-12 20:7:39.0200,-0.45,-0.0,-0.01
2020-08-12 20:7:39.1190,-0.44,0.03,-0.15
2020-08-12 20:7:39.2180,-0.88,-0.27,-0.19
2020-08-12 20:7:39.3170,-0.15,0.13,0.16
2020-08-12 20:7:39.4160,-0.05,-0.05,0.0
2020-08-12 20:7:39.5160,0.0,-0.02,0.0
2020-08-12 20:7:39.6150,-0.02,0.0,-0.01
2020-08-12 20:7:39.7140,0.04,-0.01,0.04
2020-08-12 20:7:39.8130,0.1,-0.02,0.02
2020-08-12 20:7:39.9130,0.07,-0.1,0.02
2020-08-12 20:7:40.0120,0.11,-0.47,0.07
2020-08-12 20:7:40.1110,0.32,-0.45,0.13
2020-08-12 20:7:40.2100,0.24,0.36,0.02
2020-08-12 20:7:40.3100,0.34,0.15,0.02
2020-08-12 20:7:40.4090,0.17,0.03,0.03
2020-08-12 20:7:40.5090,0.19,0.02,-0.01
2020-08-12 20:7:40.6080,0.07,-0.05,0.0
2020-08-12 20:7:40.7070,0.01,-0.1,0.03
2020-08-12 20:7:40.8060,-0.13,-0.13,0.12
2020-08-12 20:7:40.9050,-0.35,-0.03,0.06
2020-08-12 20:7:41.0050,-0.41,0.02,-0.05
2020-08-12 20:7:41.1040,-0.48,-0.07,-0.14
2020-08-12 20:7:41.2030,-0.31,0.04,-0.29
2020-08-12 20:7:41.3020,-0.24,0.04,0.07
2020-08-12 20:7:41.4020,-0.14,-0.02,0.06
2020-08-12 20:7:41.5010,0.04,0.01,0.03
2020-08-12 20:7:41.6000,-0.03,0.01,-0.0
2020-08-12 20:7:41.7000,0.01,-0.02,0.03
2020-08-12 20:7:41.7990,0.01,-0.07,-0.02
2020-08-12 20:7:41.8980,0.04,-0.26,0.04
2020-08-12 20:7:41.9970,0.19,-0.43,0.08
2020-08-12 20:7:42.0960,0.06,0.21,0.09
2020-08-12 20:7:42.1960,0.42,0.15,-0.03
2020-08-12 20:7:42.2950,0.18,0.03,0.0
2020-08-12 20:7:42.3940,-0.06,-0.01,-0.05
2020-08-12 20:7:42.4940,-0.05,-0.02,-0.05
2020-08-12 20:7:42.5930,-0.01,-0.02,0.01
2020-08-12 20:7:42.6920,-0.1,-0.08,0.01
2020-08-12 20:7:42.7910,-0.33,-0.06,0.04
2020-08-12 20:7:42.8910,-0.42,0.04,-0.02
2020-08-12 20:7:42.9900,-0.49,-0.02,-0.09
2020-08-12 20:7:43.0890,0.17,-0.02,0.0
2020-08-12 20:7:43.1890,0.09,-0.03,-0.05
2020-08-12 20:7:43.2880,0.02,-0.02,0.06
2020-08-12 20:7:43.3870,0.01,0.01,0.02
2020-08-12 20:7:43.4860,0.01,-0.01,-0.01
2020-08-12 20:7:43.5860,0.04,-0.03,0.02
2020-08-12 20:7:43.6850,0.04,-0.05,-0.02
2020-08-12 20:7:43.7840,0.05,-0.17,0.01
2020-08-12 20:7:43.8830,0.16,-0.46,0.04
2020-08-12 20:7:43.9830,0.15,0.16,0.01
2020-08-12 20:7:44.0820,0.57,0.11,0.07
2020-08-12 20:7:44.1810,0.3,0.11,-0.07
2020-08-12 20:7:44.2800,-0.0,0.04,0.09
2020-08-12 20:7:44.3800,0.03,-0.06,0.01
2020-08-12 20:7:44.4790,-0.12,-0.03,-0.01
2020-08-12 20:7:44.5780,0.0,-0.01,0.03
2020-08-12 20:7:44.6770,-0.02,-0.04,0.04
2020-08-12 20:7:44.7770,-0.28,0.0,0.05
2020-08-12 20:7:44.8760,-0.45,0.02,-0.04
2020-08-12 20:7:44.9750,-0.17,-0.35,-0.02
2020-08-12 20:7:45.0750,-0.17,0.05,0.02
2020-08-12 20:7:45.1740,-0.02,-0.05,0.01
2020-08-12 20:7:45.2730,0.02,-0.01,0.04
2020-08-12 20:7:45.3720,-0.02,-0.01,0.01
2020-08-12 20:7:45.4720,-0.01,-0.0,0.04
2020-08-12 20:7:45.5710,0.05,-0.01,-0.0
2020-08-12 20:7:45.6700,0.06,-0.08,0.01
2020-08-12 20:7:45.7690,0.14,-0.5,0.12
2020-08-12 20:7:45.8690,0.1,-0.22,-0.04
2020-08-12 20:7:45.9680,0.03,0.18,0.11
2020-08-12 20:7:46.0670,0.43,0.14,-0.07
2020-08-12 20:7:46.1660,-0.01,0.11,0.04
2020-08-12 20:7:46.2660,-0.01,0.0,0.02
2020-08-12 20:7:46.3650,0.06,-0.03,0.03
2020-08-12 20:7:46.4640,0.03,-0.03,-0.03
2020-08-12 20:7:46.5630,0.02,-0.07,-0.01
2020-08-12 20:7:46.6630,-0.09,-0.07,0.03
2020-08-12 20:7:46.7620,-0.32,-0.02,0.04
2020-08-12 20:7:46.8620,-0.46,0.04,-0.07
2020-08-12 20:7:46.9610,-0.82,-0.63,-0.31
2020-08-12 20:7:47.0600,-0.18,0.11,0.17
2020-08-12 20:7:47.1590,-0.1,-0.04,0.06
2020-08-12 20:7:47.2590,-0.04,-0.0,0.03
2020-08-12 20:7:47.3580,-0.03,0.01,0.01
2020-08-12 20:7:47.4570,0.03,-0.01,0.01
2020-08-12 20:7:47.5560,0.06,-0.11,-0.02
2020-08-12 20:7:47.6550,0.09,-0.35,0.05
2020-08-12 20:7:47.7550,0.18,-0.3,0.05
2020-08-12 20:7:47.8540,0.11,0.19,0.05
2020-08-12 20:7:47.9530,0.31,0.13,-0.01
2020-08-12 20:7:48.0530,0.16,0.04,-0.01
2020-08-12 20:7:48.1520,0.07,0.01,0.01
2020-08-12 20:7:48.2510,0.07,-0.04,-0.02
2020-08-12 20:7:48.3500,-0.0,-0.04,-0.07
2020-08-12 20:7:48.4500,-0.03,-0.05,0.03
2020-08-12 20:7:48.5490,-0.2,-0.05,0.09
2020-08-12 20:7:48.6490,-0.34,0.01,0.06
2020-08-12 20:7:48.7470,-0.38,0.07,-0.11
2020-08-12 20:7:48.8470,0.25,-0.29,-0.08
2020-08-12 20:7:48.9460,-0.13,0.09,0.12
2020-08-12 20:7:49.0450,-0.04,-0.03,0.03
2020-08-12 20:7:49.1450,0.04,-0.01,0.01
2020-08-12 20:7:49.2440,-0.02,0.01,0.01
2020-08-12 20:7:49.3430,0.01,-0.03,0.0
2020-08-12 20:7:49.4430,0.06,-0.05,0.0
2020-08-12 20:7:49.5420,0.03,-0.13,0.01
2020-08-12 20:7:49.6440,0.06,-0.46,0.08
2020-08-12 20:7:49.7400,-0.04,0.03,-0.0
2020-08-12 20:7:49.8390,-0.01,0.17,0.07
2020-08-12 20:7:49.9390,0.52,0.12,-0.06
2020-08-12 20:7:50.0380,0.14,0.1,0.03
2020-08-12 20:7:50.1370,0.16,-0.02,0.02
2020-08-12 20:7:50.2370,0.1,-0.04,0.03
2020-08-12 20:7:50.3360,0.18,-0.05,-0.05
2020-08-12 20:7:50.4350,-0.06,-0.11,0.04
2020-08-12 20:7:50.5340,-0.26,-0.07,0.1
2020-08-12 20:7:50.6330,-0.43,-0.03,0.07
2020-08-12 20:7:50.7330,-0.52,0.07,-0.03
2020-08-12 20:7:50.8320,-0.05,-0.69,-0.28
2020-08-12 20:7:50.9310,-0.05,0.08,0.17
2020-08-12 20:7:51.0310,-0.01,-0.02,0.01
2020-08-12 20:7:51.1300,-0.05,-0.0,0.03
2020-08-12 20:7:51.2290,-0.03,0.02,-0.01
2020-08-12 20:7:51.3280,0.02,-0.02,0.02
2020-08-12 20:7:51.4280,0.05,-0.04,0.02
2020-08-12 20:7:51.5270,0.01,-0.1,-0.01
2020-08-12 20:7:51.6260,0.11,-0.34,0.04
2020-08-12 20:7:51.7260,0.29,-0.35,0.14
2020-08-12 20:7:51.8250,-0.05,0.28,0.02
2020-08-12 20:7:51.9240,0.31,0.17,-0.03
2020-08-12 20:7:52.0240,0.2,0.04,0.01
2020-08-12 20:7:52.1220,-0.03,-0.03,0.03
2020-08-12 20:7:52.2220,-0.04,-0.01,-0.04
2020-08-12 20:7:52.3210,-0.01,0.0,0.02
2020-08-12 20:7:52.4200,0.01,-0.02,0.02
2020-08-12 20:7:52.5190,-0.19,-0.06,0.02
2020-08-12 20:7:52.6190,-0.26,-0.03,-0.0
2020-08-12 20:7:52.7180,-0.41,0.07,-0.09
2020-08-12 20:7:52.8180,-0.29,0.06,0.35
2020-08-12 20:7:52.9170,0.49,-0.07,-0.13
2020-08-12 20:7:53.0160,0.05,-0.03,-0.06
2020-08-12 20:7:53.1150,0.05,-0.04,0.05
2020-08-12 20:7:53.2150,-0.02,0.05,0.04
2020-08-12 20:7:53.3140,0.02,-0.01,0.03
2020-08-12 20:7:53.4130,-0.02,-0.01,-0.0
2020-08-12 20:7:53.5120,-0.0,-0.02,0.03
2020-08-12 20:7:53.6120,0.09,-0.19,0.02
2020-08-12 20:7:53.7110,0.17,-0.58,0.1
2020-08-12 20:7:53.8100,0.16,0.06,0.06
2020-08-12 20:7:53.9090,0.42,0.2,0.02
2020-08-12 20:7:54.0090,0.22,0.16,-0.04
2020-08-12 20:7:54.1080,0.19,0.04,0.12
2020-08-12 20:7:54.2070,0.17,-0.03,0.01
2020-08-12 20:7:54.3070,0.0,-0.05,-0.0
2020-08-12 20:7:54.4060,-0.01,-0.1,-0.03
2020-08-12 20:7:54.5050,-0.2,-0.09,-0.04
2020-08-12 20:7:54.6040,-0.47,-0.01,0.02
2020-08-12 20:7:54.7030,-0.49,0.1,-0.09
2020-08-12 20:7:54.8030,-0.66,-0.08,-0.38
2020-08-12 20:7:54.9030,-0.38,0.05,0.17
2020-08-12 20:7:55.0010,-0.19,-0.05,0.02
2020-08-12 20:7:55.1010,-0.06,0.01,0.04
2020-08-12 20:7:55.2000,-0.0,-0.0,0.01
2020-08-12 20:7:55.2990,0.03,-0.01,0.05
2020-08-12 20:7:55.3980,0.04,-0.02,0.02
2020-08-12 20:7:55.4980,0.05,-0.15,0.01
2020-08-12 20:7:55.5970,0.09,-0.61,0.12
2020-08-12 20:7:55.6960,-0.02,-0.1,0.22
2020-08-12 20:7:55.7950,0.69,0.38,0.06
2020-08-12 20:7:55.8950,0.21,0.2,-0.14
2020-08-12 20:7:55.9940,0.03,0.03,-0.02
2020-08-12 20:7:56.0930,0.05,-0.0,0.03
2020-08-12 20:7:56.1930,0.09,0.0,0.0
2020-08-12 20:7:56.2920,-0.05,-0.03,0.05
2020-08-12 20:7:56.3910,-0.07,-0.04,0.03
2020-08-12 20:7:56.4900,-0.13,-0.05,0.05
2020-08-12 20:7:56.5900,-0.29,-0.0,-0.04
2020-08-12 20:7:56.6890,-0.5,0.1,-0.15
2020-08-12 20:7:56.7880,-0.39,0.1,-0.44
2020-08-12 20:7:56.8870,-0.27,-0.01,0.02
2020-08-12 20:7:56.9870,-0.09,-0.01,0.06
2020-08-12 20:7:57.0860,-0.04,0.01,0.01
2020-08-12 20:7:57.1850,0.04,-0.02,0.02
2020-08-12 20:7:57.2850,0.07,-0.04,0.02
2020-08-12 20:7:57.3840,0.04,-0.1,-0.0
2020-08-12 20:7:57.4830,0.05,-0.22,0.04
2020-08-12 20:7:57.5820,0.15,-0.36,0.06
2020-08-12 20:7:57.6810,-0.05,0.2,0.16
2020-08-12 20:7:57.7810,0.44,0.19,-0.09
2020-08-12 20:7:57.8800,0.18,0.09,0.03
2020-08-12 20:7:57.9790,0.14,0.01,0.0
2020-08-12 20:7:58.0790,0.11,-0.03,-0.14
2020-08-12 20:7:58.1780,0.09,-0.01,0.04
2020-08-12 20:7:58.2770,-0.01,-0.06,0.04
2020-08-12 20:7:58.3760,-0.06,-0.07,0.04
2020-08-12 20:7:58.4760,-0.33,-0.06,0.04
2020-08-12 20:7:58.5750,-0.46,0.02,-0.05
2020-08-12 20:7:58.6740,-0.55,-0.03,-0.29
2020-08-12 20:7:58.7740,0.09,0.1,0.01
2020-08-12 20:7:58.8730,-0.11,-0.0,0.0
2020-08-12 20:7:58.9720,-0.04,-0.02,0.06
2020-08-12 20:7:59.0710,-0.01,0.02,0.01
2020-08-12 20:7:59.1700,-0.08,-0.03,0.04
2020-08-12 20:7:59.2700,0.03,-0.01,0.04
2020-08-12 20:7:59.3690,0.06,-0.01,-0.03
2020-08-12 20:7:59.4680,0.05,-0.18,0.07
2020-08-12 20:7:59.5680,0.23,-0.55,0.06
2020-08-12 20:7:59.6670,0.03,0.14,0.09
2020-08-12 20:7:59.7660,0.61,0.21,-0.12
2020-08-12 20:7:59.8660,0.28,0.14,-0.08
2020-08-12 20:7:59.9650,0.18,-0.03,0.07
2020-08-12 20:8:00.0640,0.1,-0.09,-0.03
2020-08-12 20:8:00.1630,0.04,-0.03,0.03
2020-08-12 20:8:00.2620,-0.08,-0.09,0.04
2020-08-12 20:8:00.3620,-0.41,-0.05,0.07
2020-08-12 20:8:00.4610,-0.5,0.05,-0.05
2020-08-12 20:8:00.5600,-0.47,-0.18,0.32
2020-08-12 20:8:00.6600,0.43,-0.06,-0.01
2020-08-12 20:8:00.7590,0.14,-0.03,-0.09
2020-08-12 20:8:00.8580,-0.03,0.0,0.04
2020-08-12 20:8:00.9570,-0.01,0.01,0.01
2020-08-12 20:8:01.0560,0.01,-0.02,0.02
2020-08-12 20:8:01.1560,0.06,-0.01,-0.04
2020-08-12 20:8:01.2550,0.01,-0.05,0.03
2020-08-12 20:8:01.3540,0.03,-0.17,0.06
2020-08-12 20:8:01.4540,0.28,-0.54,0.07
2020-08-12 20:8:01.5530,0.06,0.22,-0.12
2020-08-12 20:8:01.6520,0.49,0.21,0.01
2020-08-12 20:8:01.7520,0.26,0.11,0.02
2020-08-12 20:8:01.8510,0.22,-0.0,-0.02
2020-08-12 20:8:01.9500,0.13,-0.01,0.13
2020-08-12 20:8:02.0490,-0.04,-0.14,-0.04
2020-08-12 20:8:02.1480,-0.21,-0.14,-0.01
2020-08-12 20:8:02.2480,-0.46,-0.06,-0.12
2020-08-12 20:8:02.3470,-0.54,0.07,-0.1
2020-08-12 20:8:02.4460,-0.53,0.2,-0.19
2020-08-12 20:8:02.5460,-0.17,-0.0,0.06
2020-08-12 20:8:02.6450,-0.07,-0.03,0.03
2020-08-12 20:8:02.7440,-0.03,0.0,0.0
2020-08-12 20:8:02.8440,-0.02,-0.01,0.01
2020-08-12 20:8:02.9430,-0.0,-0.01,0.04
2020-08-12 20:8:03.0420,-0.03,0.0,-0.04
2020-08-12 20:8:03.1410,0.09,-0.14,0.07
2020-08-12 20:8:03.2400,0.23,-0.58,0.01
2020-08-12 20:8:03.3400,0.28,-0.0,0.15
2020-08-12 20:8:03.4390,0.64,0.23,0.06
2020-08-12 20:8:03.5380,0.07,0.18,0.01
2020-08-12 20:8:03.6370,0.07,0.03,-0.0
2020-08-12 20:8:03.7370,0.09,-0.06,-0.02
2020-08-12 20:8:03.8360,0.03,-0.08,0.03
2020-08-12 20:8:03.9350,-0.01,-0.1,-0.02
2020-08-12 20:8:04.0350,-0.16,-0.07,-0.05
2020-08-12 20:8:04.1340,-0.32,0.01,0.02
2020-08-12 20:8:04.2330,-0.4,0.07,-0.05
2020-08-12 20:8:04.3320,0.53,-0.83,0.35
2020-08-12 20:8:04.4320,0.22,0.09,0.14
2020-08-12 20:8:04.5310,0.03,-0.02,0.04
2020-08-12 20:8:04.6300,0.03,-0.01,0.01
2020-08-12 20:8:04.7300,-0.03,0.02,-0.01
2020-08-12 20:8:04.8290,0.05,0.0,0.02
2020-08-12 20:8:04.9280,0.1,-0.06,-0.05
2020-08-12 20:8:05.0270,-0.02,-0.15,0.04
2020-08-12 20:8:05.1260,0.18,-0.5,0.1
2020-08-12 20:8:05.2260,0.17,-0.07,0.01
2020-08-12 20:8:05.3250,0.02,0.32,0.13
2020-08-12 20:8:05.4240,0.29,0.15,0.03
2020-08-12 20:8:05.5240,0.12,0.03,0.02
2020-08-12 20:8:05.6230,0.02,-0.01,0.04
2020-08-12 20:8:05.7220,-0.09,-0.03,0.02
2020-08-12 20:8:05.8210,0.06,-0.03,-0.05
2020-08-12 20:8:05.9210,-0.11,-0.09,0.0
2020-08-12 20:8:06.0200,-0.41,-0.06,0.03
2020-08-12 20:8:06.1190,-0.58,0.08,-0.0
2020-08-12 20:8:06.2190,0.68,-0.2,0.35
2020-08-12 20:8:06.3180,0.35,-0.05,0.02
2020-08-12 20:8:06.4170,0.14,-0.07,-0.09
2020-08-12 20:8:06.5160,-0.02,-0.0,0.06
2020-08-12 20:8:06.6160,0.0,0.01,0.0
2020-08-12 20:8:06.7150,0.02,-0.01,0.0
2020-08-12 20:8:06.8140,0.04,-0.01,0.0
2020-08-12 20:8:06.9140,0.0,-0.05,0.02
2020-08-12 20:8:07.0130,0.03,-0.18,0.03
2020-08-12 20:8:07.1120,0.21,-0.46,0.13
2020-08-12 20:8:07.2110,0.0,0.11,0.06
2020-08-12 20:8:07.3100,0.54,0.17,-0.06
2020-08-12 20:8:07.4100,0.27,0.1,-0.03
2020-08-12 20:8:07.5090,0.16,0.06,0.06
2020-08-12 20:8:07.6080,0.15,-0.05,-0.02
2020-08-12 20:8:07.7080,-0.1,-0.04,-0.06
2020-08-12 20:8:07.8070,-0.1,-0.01,0.07
2020-08-12 20:8:07.9060,-0.15,-0.03,0.11
2020-08-12 20:8:08.0050,-0.33,-0.01,0.05
2020-08-12 20:8:08.1040,-0.44,0.01,-0.06
2020-08-12 20:8:08.2040,0.42,-0.62,0.1
2020-08-12 20:8:08.3030,0.11,0.04,0.13
2020-08-12 20:8:08.4020,0.03,-0.04,0.02
2020-08-12 20:8:08.5020,0.02,-0.03,0.05
2020-08-12 20:8:08.6010,-0.02,0.01,0.01
2020-08-12 20:8:08.7000,0.01,0.02,0.0
2020-08-12 20:8:08.8000,0.08,-0.04,0.0
2020-08-12 20:8:08.8990,0.01,-0.09,-0.02
2020-08-12 20:8:08.9980,0.08,-0.27,0.07
2020-08-12 20:8:09.0970,0.22,-0.3,0.02
2020-08-12 20:8:09.1970,-0.04,0.22,0.01
2020-08-12 20:8:09.2960,0.47,0.12,-0.08
2020-08-12 20:8:09.3950,0.29,0.01,0.03
2020-08-12 20:8:09.4940,0.11,0.03,0.06
2020-08-12 20:8:09.5930,0.16,-0.04,0.03
2020-08-12 20:8:09.6930,0.07,-0.06,-0.01
2020-08-12 20:8:09.7920,-0.1,-0.08,0.03
2020-08-12 20:8:09.8910,-0.27,-0.05,0.09
2020-08-12 20:8:09.9910,-0.54,-0.0,-0.02
2020-08-12 20:8:10.0900,-0.58,0.08,-0.15
2020-08-12 20:8:10.1890,-0.94,0.09,-0.31
2020-08-12 20:8:10.2880,-0.48,0.08,0.16
2020-08-12 20:8:10.3880,-0.14,-0.02,0.03
2020-08-12 20:8:10.4870,0.02,-0.01,0.02
2020-08-12 20:8:10.5860,-0.0,0.0,0.02
2020-08-12 20:8:10.6860,-0.0,0.01,0.01
2020-08-12 20:8:10.7850,-0.0,0.0,0.01
2020-08-12 20:8:10.8840,-0.04,-0.06,0.03
2020-08-12 20:8:10.9840,0.03,-0.09,0.03
2020-08-12 20:8:11.0830,0.09,-0.36,0.04
2020-08-12 20:8:11.1820,0.14,-0.14,0.09
2020-08-12 20:8:11.2810,-0.01,0.21,0.02
2020-08-12 20:8:11.3800,0.5,0.12,-0.06
2020-08-12 20:8:11.4800,0.24,0.05,-0.01
2020-08-12 20:8:11.5790,0.16,-0.01,0.07
2020-08-12 20:8:11.6780,0.16,-0.05,0.05
2020-08-12 20:8:11.7780,0.13,-0.06,0.04
2020-08-12 20:8:11.8770,-0.03,-0.1,0.05
2020-08-12 20:8:11.9760,-0.19,-0.05,0.08
2020-08-12 20:8:12.0750,-0.38,-0.08,0.1
2020-08-12 20:8:12.1750,-0.6,-0.02,-0.08
2020-08-12 20:8:12.2740,0.52,-0.7,-0.0
2020-08-12 20:8:12.3730,0.21,0.09,0.2
2020-08-12 20:8:12.4720,0.03,-0.02,0.03
2020-08-12 20:8:12.5710,-0.01,0.01,0.04
2020-08-12 20:8:12.6710,-0.03,-0.0,0.01
2020-08-12 20:8:12.7700,0.01,-0.02,0.02
2020-08-12 20:8:12.8690,0.04,-0.02,0.0
2020-08-12 20:8:12.9690,0.03,-0.07,0.02
2020-08-12 20:8:13.0680,0.06,-0.45,0.13
2020-08-12 20:8:13.1670,0.25,-0.29,0.11
2020-08-12 20:8:13.2660,0.13,0.28,0.06
2020-08-12 20:8:13.3660,0.42,0.17,-0.02
2020-08-12 20:8:13.4650,0.19,-0.02,0.02
2020-08-12 20:8:13.5640,0.09,-0.02,0.04
2020-08-12 20:8:13.6630,0.0,-0.1,0.02
2020-08-12 20:8:13.7630,-0.09,-0.02,0.03
2020-08-12 20:8:13.8620,0.03,0.02,0.02
2020-08-12 20:8:13.9610,-0.11,-0.07,-0.03
2020-08-12 20:8:14.0610,-0.43,-0.01,0.05
2020-08-12 20:8:14.1600,-0.74,-0.05,-0.17
2020-08-12 20:8:14.2590,-0.8,-0.42,0.12
2020-08-12 20:8:14.3580,-0.14,0.09,0.15
2020-08-12 20:8:14.4580,-0.07,-0.02,0.03
2020-08-12 20:8:14.5570,0.01,0.01,0.06
2020-08-12 20:8:14.6560,0.01,-0.01,-0.0
2020-08-12 20:8:14.7550,-0.01,-0.01,0.01
2020-08-12 20:8:14.8550,0.01,-0.0,0.04
2020-08-12 20:8:14.9540,0.01,-0.09,0.03
2020-08-12 20:8:15.0530,0.04,-0.41,0.12
2020-08-12 20:8:15.1530,0.19,-0.15,-0.0
2020-08-12 20:8:15.2520,0.05,0.17,0.04
2020-08-12 20:8:15.3510,0.41,0.13,0.03
2020-08-12 20:8:15.4500,0.33,0.07,0.05
2020-08-12 20:8:15.5500,0.18,-0.02,0.01
2020-08-12 20:8:15.6490,0.07,-0.08,0.03
2020-08-12 20:8:15.7480,-0.01,-0.08,0.02
2020-08-12 20:8:15.8470,-0.12,-0.05,0.05
2020-08-12 20:8:15.9460,-0.25,-0.04,0.08
2020-08-12 20:8:16.0460,-0.65,0.0,0.06
2020-08-12 20:8:16.1450,-0.68,-0.07,-0.31
2020-08-12 20:8:16.2440,-0.13,0.17,0.16
2020-08-12 20:8:16.3440,-0.15,-0.05,0.01
2020-08-12 20:8:16.4430,-0.0,-0.03,0.02
2020-08-12 20:8:16.5420,-0.0,0.03,0.0
2020-08-12 20:8:16.6420,0.02,-0.01,0.0
2020-08-12 20:8:16.7410,0.0,-0.01,0.03
2020-08-12 20:8:16.8400,0.04,-0.03,0.01
2020-08-12 20:8:16.9390,0.05,-0.16,0.04
2020-08-12 20:8:17.0390,0.15,-0.57,0.13
2020-08-12 20:8:17.1380,0.08,0.04,0.08
2020-08-12 20:8:17.2370,0.59,0.16,-0.04
2020-08-12 20:8:17.3370,0.33,0.06,-0.01
2020-08-12 20:8:17.4360,0.08,-0.0,-0.01
2020-08-12 20:8:17.5350,-0.0,0.02,-0.04
2020-08-12 20:8:17.6340,-0.03,-0.04,-0.03
2020-08-12 20:8:17.7330,-0.06,-0.05,-0.09
2020-08-12 20:8:17.8330,-0.28,-0.03,0.03
2020-08-12 20:8:17.9320,-0.37,0.02,0.06
2020-08-12 20:8:18.0310,-1.52,-0.21,-0.13
2020-08-12 20:8:18.1310,0.16,-0.04,-0.01
2020-08-12 20:8:18.2300,0.08,-0.05,-0.05
2020-08-12 20:8:18.3290,0.05,-0.04,0.04
2020-08-12 20:8:18.4280,-0.05,0.03,0.02
2020-08-12 20:8:18.5270,0.0,-0.02,0.01
2020-08-12 20:8:18.6270,0.02,-0.01,0.04
2020-08-12 20:8:18.7260,-0.06,0.01,0.04
2020-08-12 20:8:18.8250,-0.14,-0.09,-0.0
2020-08-12 20:8:18.9250,0.1,-0.28,0.02
2020-08-12 20:8:19.0240,0.15,-0.34,0.14
2020-08-12 20:8:19.1230,0.09,0.23,0.0
2020-08-12 20:8:19.2230,0.38,0.21,0.01
2020-08-12 20:8:19.3220,0.29,-0.01,0.03
2020-08-12 20:8:19.4210,0.06,-0.02,-0.01
2020-08-12 20:8:19.5200,-0.15,-0.04,-0.05
2020-08-12 20:8:19.6200,-0.31,-0.03,-0.01
2020-08-12 20:8:19.7190,-0.51,0.01,-0.04
2020-08-12 20:8:19.8180,-0.21,0.03,-0.13
2020-08-12 20:8:19.9170,-0.7,-0.34,0.44
2020-08-12 20:8:20.0160,0.19,-0.07,-0.08
2020-08-12 20:8:20.1160,0.05,-0.05,-0.02
2020-08-12 20:8:20.2150,0.0,-0.01,0.06
2020-08-12 20:8:20.3140,-0.01,-0.0,0.04
2020-08-12 20:8:20.4130,-0.07,-0.03,0.03
2020-08-12 20:8:20.5130,-0.06,-0.04,-0.04
2020-08-12 20:8:20.6120,-0.16,0.02,0.01
2020-08-12 20:8:20.7110,-0.13,-0.03,-0.09
2020-08-12 20:8:20.8110,-0.08,0.06,0.05
2020-08-12 20:8:20.9100,-0.01,0.01,-0.03
2020-08-12 20:8:21.0090,0.02,-0.01,-0.01
2020-08-12 20:8:21.1080,0.03,-0.02,0.0
2020-08-12 20:8:21.2080,-0.04,0.03,0.01
2020-08-12 20:8:21.3070,0.0,-0.03,-0.0
2020-08-12 20:8:21.4060,-0.03,0.01,0.01
2020-08-12 20:8:21.5060,-0.0,-0.02,-0.01
2020-08-12 20:8:21.6050,-0.01,0.0,-0.0
2020-08-12 20:8:21.7040,-0.03,0.02,0.02
2020-08-12 20:8:21.8040,-0.01,0.0,0.0
2020-08-12 20:8:21.9030,0.0,-0.0,-0.0
2020-08-12 20:8:22.0020,-0.0,-0.0,0.0
2020-08-12 20:8:22.1010,0.0,-0.02,-0.01
2020-08-12 20:8:22.2000,0.0,0.0,0.01
2020-08-12 20:8:22.3000,-0.01,0.01,0.0
2020-08-12 20:8:22.3990,0.01,-0.01,0.0
2020-08-12 20:8:22.4980,-0.0,-0.01,0.0
2020-08-12 20:8:22.5980,0.03,-0.02,0.01
2020-08-12 20:8:22.6970,0.02,0.02,-0.0
2020-08-12 20:8:22.7960,-0.01,-0.02,-0.02
2020-08-12 20:8:22.8950,0.0,0.03,-0.03
