time,ax,ay,az
2020-08-12 20:15:33.7130,0.01,-0.0,-0.01
2020-08-12 20:15:33.8120,-0.0,0.0,-0.0
2020-08-12 20:15:33.9110,0.0,0.0,0.0
2020-08-12 20:15:34.0110,-0.0,-0.0,-0.0
2020-08-12 20:15:34.1100,0.0,-0.01,0.0
2020-08-12 20:15:34.2090,-0.01,-0.0,-0.0
2020-08-12 20:15:34.3090,0.0,-0.0,-0.0
2020-08-12 20:15:34.4080,-0.01,0.01,-0.0
2020-08-12 20:15:34.5070,0.0,-0.01,0.0
2020-08-12 20:15:34.6060,-0.0,0.01,0.0
2020-08-12 20:15:34.7060,0.0,-0.0,0.0
2020-08-12 20:15:34.8050,-0.0,-0.01,0.0
2020-08-12 20:15:34.9040,-0.01,0.0,-0.01
2020-08-12 20:15:35.0030,0.0,-0.0,-0.01
2020-08-12 20:15:35.1030,0.0,-0.01,-0.01
2020-08-12 20:15:35.2020,0.03,-0.01,0.01
2020-08-12 20:15:35.3010,-0.05,0.04,0.02
2020-08-12 20:15:35.4000,0.01,-0.01,0.01
2020-08-12 20:15:35.5000,0.01,-0.03,0.02
2020-08-12 20:15:35.5990,0.0,0.0,0.01
2020-08-12 20:15:35.6980,-0.0,-0.04,-0.04
2020-08-12 20:15:35.7980,0.02,0.02,0.01
2020-08-12 20:15:35.8970,0.04,-0.02,-0.03
2020-08-12 20:15:35.9960,0.06,0.01,-0.01
2020-08-12 20:15:36.0960,-0.03,0.0,-0.01
2020-08-12 20:15:36.1950,-0.01,-0.02,-0.01
2020-08-12 20:15:36.2940,0.03,0.03,-0.01
2020-08-12 20:15:36.3930,0.06,0.01,-0.09
2020-08-12 20:15:36.4920,-0.36,0.07,0.19
2020-08-12 20:15:36.5920,-0.03,-0.11,0.03
2020-08-12 20:15:36.6910,0.05,0.0,-0.03
2020-08-12 20:15:36.7900,-0.08,0.0,-0.03
2020-08-12 20:15:36.8900,-0.01,0.04,0.03
2020-08-12 20:15:36.9890,-0.0,-0.01,0.05
2020-08-12 20:15:37.0880,0.06,-0.02,-0.0
2020-08-12 20:15:37.1870,0.0,0.03,0.04
2020-08-12 20:15:37.2870,-0.01,-0.05,0.02
2020-08-12 20:15:37.3860,0.05,-0.15,0.03
2020-08-12 20:15:37.4850,0.35,-0.63,0.04
2020-08-12 20:15:37.5850,0.05,-0.29,0.21
2020-08-12 20:15:37.6840,0.39,0.02,0.1
2020-08-12 20:15:37.7830,0.59,0.31,-0.16
2020-08-12 20:15:37.8820,0.31,0.27,-0.1
2020-08-12 20:15:37.9810,-0.24,-0.13,-0.08
2020-08-12 20:15:38.0810,-0.4,-0.22,0.12
2020-08-12 20:15:38.1800,-0.64,-0.09,0.05
2020-08-12 20:15:38.2790,-0.62,0.02,0.02
2020-08-12 20:15:38.3790,-0.68,-0.13,-0.11
2020-08-12 20:15:38.4780,-0.19,0.02,0.06
2020-08-12 20:15:38.5770,-0.01,0.04,0.08
2020-08-12 20:15:38.6760,0.01,-0.03,-0.0
2020-08-12 20:15:38.7760,0.02,-0.02,0.01
2020-08-12 20:15:38.8750,0.06,-0.02,0.0
2020-08-12 20:15:38.9740,0.03,-0.0,0.0
2020-08-12 20:15:39.0730,0.01,0.0,0.0
2020-08-12 20:15:39.1730,0.05,-0.11,-0.04
2020-08-12 20:15:39.2720,0.25,-0.46,0.06
2020-08-12 20:15:39.3710,0.31,-0.34,0.12
2020-08-12 20:15:39.4710,0.51,-0.11,0.06
2020-08-12 20:15:39.5700,0.44,0.17,-0.1
2020-08-12 20:15:39.6690,0.24,0.13,-0.08
2020-08-12 20:15:39.7680,-0.13,-0.03,0.02
2020-08-12 20:15:39.8680,-0.55,-0.33,0.15
2020-08-12 20:15:39.9670,-0.79,-0.1,0.15
2020-08-12 20:15:40.0660,-0.57,0.03,-0.04
2020-08-12 20:15:40.1660,-1.3,-0.48,-0.16
2020-08-12 20:15:40.2650,-0.16,0.16,0.19
2020-08-12 20:15:40.3640,-0.04,-0.01,0.02
2020-08-12 20:15:40.4630,-0.05,0.01,0.01
2020-08-12 20:15:40.5630,-0.01,-0.01,0.02
2020-08-12 20:15:40.6620,0.04,-0.01,0.03
2020-08-12 20:15:40.7610,0.03,-0.01,-0.05
2020-08-12 20:15:40.8600,0.01,-0.01,-0.01
2020-08-12 20:15:40.9600,0.03,0.05,0.03
2020-08-12 20:15:41.0590,0.07,-0.11,-0.04
2020-08-12 20:15:41.1580,0.05,-0.4,-0.01
2020-08-12 20:15:41.2580,0.46,-0.17,0.01
2020-08-12 20:15:41.3570,0.08,-0.09,0.21
2020-08-12 20:15:41.4560,0.48,0.08,-0.02
2020-08-12 20:15:41.5550,0.31,0.14,0.03
2020-08-12 20:15:41.6550,0.15,0.07,-0.06
2020-08-12 20:15:41.7540,-0.18,-0.04,-0.02
2020-08-12 20:15:41.8530,-0.47,-0.22,-0.01
2020-08-12 20:15:41.9530,-0.72,-0.09,0.12
2020-08-12 20:15:42.0520,0.71,0.07,-0.13
2020-08-12 20:15:42.1510,0.07,0.01,0.04
2020-08-12 20:15:42.2500,0.0,-0.01,0.0
2020-08-12 20:15:42.3490,0.04,-0.02,0.0
2020-08-12 20:15:42.4490,0.02,-0.01,0.02
2020-08-12 20:15:42.5480,-0.0,0.02,-0.03
2020-08-12 20:15:42.6470,0.02,-0.01,-0.01
2020-08-12 20:15:42.7470,0.02,-0.01,0.01
2020-08-12 20:15:42.8460,-0.02,-0.04,0.01
2020-08-12 20:15:42.9450,0.01,-0.1,-0.02
2020-08-12 20:15:43.0440,0.17,-0.39,0.08
2020-08-12 20:15:43.1440,0.26,-0.36,0.02
2020-08-12 20:15:43.2430,0.27,-0.1,0.19
2020-08-12 20:15:43.3420,0.51,0.2,-0.05
2020-08-12 20:15:43.4410,0.34,0.15,-0.09
2020-08-12 20:15:43.5410,-0.07,0.01,-0.07
2020-08-12 20:15:43.6400,-0.54,-0.3,0.05
2020-08-12 20:15:43.7390,-0.5,-0.13,0.18
2020-08-12 20:15:43.8390,-0.47,0.01,-0.01
2020-08-12 20:15:43.9380,0.97,-0.25,0.07
2020-08-12 20:15:44.0370,0.58,-0.08,-0.04
2020-08-12 20:15:44.1360,0.16,0.01,-0.03
2020-08-12 20:15:44.2360,0.03,-0.0,0.05
2020-08-12 20:15:44.3350,0.03,-0.02,0.03
2020-08-12 20:15:44.4340,0.01,-0.01,0.0
2020-08-12 20:15:44.5340,0.06,-0.0,-0.04
2020-08-12 20:15:44.6330,0.0,-0.01,-0.02
2020-08-12 20:15:44.7320,0.03,0.0,0.0
2020-08-12 20:15:44.8310,0.06,-0.04,0.01
2020-08-12 20:15:44.9310,0.09,-0.21,0.01
2020-08-12 20:15:45.0300,0.2,-0.46,-0.02
2020-08-12 20:15:45.1290,0.08,-0.1,0.09
2020-08-12 20:15:45.2280,0.42,0.13,0.05
2020-08-12 20:15:45.3280,0.45,0.14,-0.09
2020-08-12 20:15:45.4270,0.2,0.06,0.04
2020-08-12 20:15:45.5260,-0.07,-0.2,0.01
2020-08-12 20:15:45.6250,-0.23,-0.14,0.07
2020-08-12 20:15:45.7250,-0.42,-0.09,0.14
2020-08-12 20:15:45.8240,-0.57,0.02,0.03
2020-08-12 20:15:45.9230,-0.28,0.14,-0.03
2020-08-12 20:15:46.0220,-0.5,0.11,-0.11
2020-08-12 20:15:46.1220,-0.41,-0.05,0.08
2020-08-12 20:15:46.2210,-0.0,-0.04,-0.01
2020-08-12 20:15:46.3200,0.05,0.03,0.03
2020-08-12 20:15:46.4200,-0.09,-0.07,0.03
2020-08-12 20:15:46.5190,-0.01,-0.01,0.02
2020-08-12 20:15:46.6180,-0.0,0.0,-0.05
2020-08-12 20:15:46.7180,0.0,0.03,0.06
2020-08-12 20:15:46.8170,-0.02,-0.05,0.01
2020-08-12 20:15:46.9160,0.13,-0.24,0.1
2020-08-12 20:15:47.0150,0.14,-0.33,-0.1
2020-08-12 20:15:47.1140,0.11,-0.12,0.08
2020-08-12 20:15:47.2140,0.58,0.04,0.01
2020-08-12 20:15:47.3130,0.45,0.16,-0.04
2020-08-12 20:15:47.4120,0.06,-0.04,0.04
2020-08-12 20:15:47.5110,-0.07,-0.18,-0.09
2020-08-12 20:15:47.6110,-0.39,-0.13,0.07
2020-08-12 20:15:47.7100,-0.45,-0.07,0.05
2020-08-12 20:15:47.8090,-0.54,0.01,0.12
2020-08-12 20:15:47.9090,0.5,-0.2,-0.29
2020-08-12 20:15:48.0080,0.4,-0.04,0.24
2020-08-12 20:15:48.1070,0.13,-0.02,-0.01
2020-08-12 20:15:48.2060,-0.02,-0.01,0.04
2020-08-12 20:15:48.3060,-0.02,0.01,0.06
2020-08-12 20:15:48.4050,0.01,-0.0,-0.02
2020-08-12 20:15:48.5040,0.01,0.01,-0.03
2020-08-12 20:15:48.6040,0.04,0.01,-0.01
2020-08-12 20:15:48.7030,0.03,0.01,0.09
2020-08-12 20:15:48.8020,-0.03,-0.07,0.03
2020-08-12 20:15:48.9010,0.15,-0.3,0.12
2020-08-12 20:15:49.0010,0.22,-0.39,-0.12
2020-08-12 20:15:49.1000,0.06,-0.12,0.13
2020-08-12 20:15:49.1990,0.51,0.13,-0.15
2020-08-12 20:15:49.2980,0.32,0.21,-0.04
2020-08-12 20:15:49.3980,0.13,0.07,-0.05
2020-08-12 20:15:49.4970,-0.22,-0.1,0.06
2020-08-12 20:15:49.5960,-0.24,-0.09,0.14
2020-08-12 20:15:49.6950,-0.36,-0.07,0.08
2020-08-12 20:15:49.7950,-0.52,-0.01,0.06
2020-08-12 20:15:49.8940,0.5,-0.19,-0.27
2020-08-12 20:15:49.9930,0.08,0.05,0.19
2020-08-12 20:15:50.0930,0.0,-0.02,0.06
2020-08-12 20:15:50.1920,-0.0,-0.03,0.02
2020-08-12 20:15:50.2910,-0.01,0.01,0.03
2020-08-12 20:15:50.3900,0.01,-0.01,0.01
2020-08-12 20:15:50.4900,0.05,0.04,-0.03
2020-08-12 20:15:50.5890,-0.02,-0.02,0.06
2020-08-12 20:15:50.6880,-0.01,-0.08,0.03
2020-08-12 20:15:50.7870,0.15,-0.29,0.06
2020-08-12 20:15:50.8870,0.17,-0.37,-0.1
2020-08-12 20:15:50.9860,0.07,-0.05,0.09
2020-08-12 20:15:51.0850,0.52,0.17,-0.11
2020-08-12 20:15:51.1850,0.43,0.12,-0.07
2020-08-12 20:15:51.2840,0.17,-0.01,0.03
2020-08-12 20:15:51.3830,-0.12,-0.22,0.04
2020-08-12 20:15:51.4820,-0.36,-0.16,0.14
2020-08-12 20:15:51.5820,-0.57,-0.07,0.09
2020-08-12 20:15:51.6810,-0.55,0.07,0.03
2020-08-12 20:15:51.7800,-1.01,-0.43,-0.22
2020-08-12 20:15:51.8790,-0.33,0.07,0.17
2020-08-12 20:15:51.9790,-0.13,-0.05,0.07
2020-08-12 20:15:52.0780,0.01,-0.01,0.01
2020-08-12 20:15:52.1770,-0.06,-0.02,0.01
2020-08-12 20:15:52.2770,0.03,-0.01,-0.0
2020-08-12 20:15:52.3760,-0.02,0.03,-0.03
2020-08-12 20:15:52.4750,0.01,-0.0,0.01
2020-08-12 20:15:52.5740,-0.03,-0.09,0.0
2020-08-12 20:15:52.6740,0.17,-0.24,0.06
2020-08-12 20:15:52.7730,0.25,-0.4,-0.07
2020-08-12 20:15:52.8720,0.21,-0.13,0.04
2020-08-12 20:15:52.9710,0.44,0.05,0.09
2020-08-12 20:15:53.0710,0.5,0.19,-0.07
2020-08-12 20:15:53.1700,0.18,0.05,-0.03
2020-08-12 20:15:53.2690,-0.09,-0.11,-0.01
2020-08-12 20:15:53.3690,-0.41,-0.14,0.21
2020-08-12 20:15:53.4680,-0.61,-0.13,0.01
2020-08-12 20:15:53.5670,-0.53,-0.03,-0.08
2020-08-12 20:15:53.6660,-0.45,0.15,-0.09
2020-08-12 20:15:53.7660,-0.39,-0.03,-0.05
2020-08-12 20:15:53.8650,-0.08,-0.04,-0.01
2020-08-12 20:15:53.9640,-0.01,-0.0,-0.03
2020-08-12 20:15:54.0630,-0.0,-0.01,0.02
2020-08-12 20:15:54.1630,0.06,-0.01,-0.0
2020-08-12 20:15:54.2620,-0.02,0.02,0.01
2020-08-12 20:15:54.3610,0.02,0.02,0.04
2020-08-12 20:15:54.4600,-0.0,-0.06,0.02
2020-08-12 20:15:54.5600,0.08,-0.18,-0.0
2020-08-12 20:15:54.6590,0.06,-0.26,-0.06
2020-08-12 20:15:54.7580,0.27,-0.19,0.1
2020-08-12 20:15:54.8580,0.3,0.0,0.23
2020-08-12 20:15:54.9570,0.54,0.16,-0.07
2020-08-12 20:15:55.0560,0.3,0.03,-0.03
2020-08-12 20:15:55.1550,0.0,-0.09,0.0
2020-08-12 20:15:55.2550,-0.45,-0.31,0.17
2020-08-12 20:15:55.3540,-0.75,-0.11,0.1
2020-08-12 20:15:55.4530,-0.72,0.02,-0.11
2020-08-12 20:15:55.5530,-0.39,0.2,-0.12
2020-08-12 20:15:55.6520,-0.32,-0.08,-0.01
2020-08-12 20:15:55.7510,-0.04,-0.01,0.02
2020-08-12 20:15:55.8500,0.01,0.02,0.0
2020-08-12 20:15:55.9500,0.01,-0.02,0.02
2020-08-12 20:15:56.0490,0.02,0.01,-0.03
2020-08-12 20:15:56.1480,-0.04,-0.03,-0.01
2020-08-12 20:15:56.2470,-0.0,-0.03,-0.01
2020-08-12 20:15:56.3470,-0.01,-0.07,0.02
2020-08-12 20:15:56.4460,0.13,-0.32,0.02
2020-08-12 20:15:56.5450,0.25,-0.45,-0.08
2020-08-12 20:15:56.6440,0.01,-0.04,0.13
2020-08-12 20:15:56.7440,0.53,0.24,-0.16
2020-08-12 20:15:56.8430,0.37,0.09,-0.06
2020-08-12 20:15:56.9420,0.01,-0.01,0.07
2020-08-12 20:15:57.0410,-0.18,-0.11,0.1
2020-08-12 20:15:57.1410,-0.48,-0.09,0.13
2020-08-12 20:15:57.2400,-0.47,-0.08,-0.0
2020-08-12 20:15:57.3390,0.19,-0.01,-0.09
2020-08-12 20:15:57.4390,-0.04,0.14,-0.02
2020-08-12 20:15:57.5390,0.01,-0.05,-0.02
2020-08-12 20:15:57.6370,0.04,-0.02,0.01
2020-08-12 20:15:57.7360,-0.04,0.01,0.02
2020-08-12 20:15:57.8360,0.04,-0.04,0.02
2020-08-12 20:15:57.9350,0.01,0.02,-0.02
2020-08-12 20:15:58.0340,-0.04,0.01,0.01
2020-08-12 20:15:58.1340,0.02,-0.05,0.04
2020-08-12 20:15:58.2330,0.03,-0.06,0.03
2020-08-12 20:15:58.3320,0.12,-0.15,-0.01
2020-08-12 20:15:58.4310,0.12,-0.47,-0.05
2020-08-12 20:15:58.5310,0.4,-0.27,0.08
2020-08-12 20:15:58.6300,0.35,0.21,0.16
2020-08-12 20:15:58.7290,0.4,0.24,-0.02
2020-08-12 20:15:58.8280,0.12,0.05,-0.02
2020-08-12 20:15:58.9280,-0.16,-0.05,0.03
2020-08-12 20:15:59.0270,-0.36,-0.07,0.03
2020-08-12 20:15:59.1260,-0.5,-0.08,0.03
2020-08-12 20:15:59.2250,-0.57,0.0,0.05
2020-08-12 20:15:59.3250,-0.84,-0.48,-0.07
2020-08-12 20:15:59.4240,-0.06,0.08,0.12
2020-08-12 20:15:59.5230,0.0,-0.05,0.08
2020-08-12 20:15:59.6230,-0.0,-0.0,0.03
2020-08-12 20:15:59.7220,0.03,0.03,0.01
2020-08-12 20:15:59.8210,0.1,0.0,0.02
2020-08-12 20:15:59.9200,0.01,0.0,-0.02
2020-08-12 20:16:00.0200,0.03,-0.02,0.04
2020-08-12 20:16:00.1190,-0.01,-0.03,-0.02
2020-08-12 20:16:00.2180,0.01,-0.06,0.01
2020-08-12 20:16:00.3170,0.16,-0.25,-0.0
2020-08-12 20:16:00.4170,0.3,-0.29,-0.03
2020-08-12 20:16:00.5160,-0.02,-0.18,0.14
2020-08-12 20:16:00.6150,0.63,0.18,-0.21
2020-08-12 20:16:00.7140,0.43,0.16,-0.01
2020-08-12 20:16:00.8140,0.12,-0.02,-0.03
2020-08-12 20:16:00.9130,-0.26,-0.26,0.13
2020-08-12 20:16:01.0120,-0.47,-0.09,0.2
2020-08-12 20:16:01.1120,-0.54,-0.02,0.06
2020-08-12 20:16:01.2110,-0.43,0.03,-0.06
2020-08-12 20:16:01.3100,-0.07,0.07,-0.0
2020-08-12 20:16:01.4090,0.0,-0.01,-0.09
2020-08-12 20:16:01.5090,-0.07,-0.02,0.06
2020-08-12 20:16:01.6080,0.03,0.0,0.03
2020-08-12 20:16:01.7070,0.01,-0.0,0.01
2020-08-12 20:16:01.8060,0.05,-0.0,-0.04
2020-08-12 20:16:01.9060,0.03,0.0,0.01
2020-08-12 20:16:02.0050,0.01,0.01,0.01
2020-08-12 20:16:02.1040,-0.08,-0.04,-0.0
2020-08-12 20:16:02.2040,0.02,-0.13,0.07
2020-08-12 20:16:02.3030,0.13,-0.33,-0.09
2020-08-12 20:16:02.4020,0.15,-0.25,0.11
2020-08-12 20:16:02.5010,0.09,-0.1,0.14
2020-08-12 20:16:02.6010,0.5,0.18,-0.1
2020-08-12 20:16:02.7000,0.3,0.11,-0.1
2020-08-12 20:16:02.7990,0.15,-0.02,-0.01
2020-08-12 20:16:02.8980,-0.38,-0.22,0.18
2020-08-12 20:16:02.9980,-0.62,-0.03,0.21
2020-08-12 20:16:03.0970,-0.54,0.0,0.05
2020-08-12 20:16:03.1960,-0.29,-0.36,-0.19
2020-08-12 20:16:03.2960,0.05,0.04,0.07
2020-08-12 20:16:03.3950,-0.03,-0.03,-0.02
2020-08-12 20:16:03.4940,-0.01,0.0,0.04
2020-08-12 20:16:03.5930,-0.01,0.0,0.04
2020-08-12 20:16:03.6930,-0.0,-0.03,-0.01
2020-08-12 20:16:03.7920,0.04,-0.01,0.0
2020-08-12 20:16:03.8910,-0.02,0.02,0.02
2020-08-12 20:16:03.9900,0.0,0.02,0.02
2020-08-12 20:16:04.0900,0.05,-0.09,-0.05
2020-08-12 20:16:04.1890,0.16,-0.24,0.03
2020-08-12 20:16:04.2880,0.25,-0.32,-0.09
2020-08-12 20:16:04.3880,0.03,0.1,0.05
2020-08-12 20:16:04.4870,0.35,0.17,0.08
2020-08-12 20:16:04.5860,0.37,0.12,-0.1
2020-08-12 20:16:04.6850,0.22,-0.09,-0.03
2020-08-12 20:16:04.7850,-0.09,-0.14,0.09
2020-08-12 20:16:04.8840,-0.2,-0.04,0.08
2020-08-12 20:16:04.9830,-0.15,0.07,0.02
2020-08-12 20:16:05.0830,-0.23,-0.03,0.04
2020-08-12 20:16:05.1820,-0.53,-0.04,0.07
2020-08-12 20:16:05.2810,0.68,-0.28,0.0
2020-08-12 20:16:05.3800,-0.03,0.03,0.12
2020-08-12 20:16:05.4800,-0.06,-0.01,-0.07
2020-08-12 20:16:05.5790,0.05,-0.01,0.06
2020-08-12 20:16:05.6780,-0.0,-0.0,-0.0
2020-08-12 20:16:05.7770,0.03,-0.01,0.03
2020-08-12 20:16:05.8770,0.03,0.01,-0.02
2020-08-12 20:16:05.9760,-0.0,0.04,-0.02
2020-08-12 20:16:06.0750,-0.04,-0.01,-0.01
2020-08-12 20:16:06.1740,0.08,-0.06,0.06
2020-08-12 20:16:06.2740,0.18,-0.26,-0.02
2020-08-12 20:16:06.3730,0.2,-0.18,0.06
2020-08-12 20:16:06.4720,0.05,-0.05,0.09
2020-08-12 20:16:06.5710,0.44,0.19,-0.08
2020-08-12 20:16:06.6710,0.28,0.05,-0.01
2020-08-12 20:16:06.7700,0.15,-0.07,-0.01
2020-08-12 20:16:06.8690,-0.24,-0.13,0.01
2020-08-12 20:16:06.9690,-0.3,-0.02,0.07
2020-08-12 20:16:07.0680,-0.49,-0.01,0.1
2020-08-12 20:16:07.1670,-0.53,0.01,0.01
2020-08-12 20:16:07.2660,0.83,-0.38,0.06
2020-08-12 20:16:07.3660,0.19,0.02,0.05
2020-08-12 20:16:07.4650,0.06,-0.02,-0.03
2020-08-12 20:16:07.5640,0.04,-0.0,0.04
2020-08-12 20:16:07.6640,0.01,0.0,0.08
2020-08-12 20:16:07.7630,0.04,-0.02,-0.02
2020-08-12 20:16:07.8620,-0.01,0.03,-0.03
2020-08-12 20:16:07.9610,0.01,0.02,0.01
2020-08-12 20:16:08.0610,0.01,-0.03,0.04
2020-08-12 20:16:08.1600,0.03,-0.06,-0.02
2020-08-12 20:16:08.2590,0.12,-0.32,-0.02
2020-08-12 20:16:08.3580,0.13,-0.27,0.11
2020-08-12 20:16:08.4580,0.01,0.06,0.06
2020-08-12 20:16:08.5570,0.38,0.13,-0.09
2020-08-12 20:16:08.6560,0.21,-0.02,-0.06
2020-08-12 20:16:08.7550,0.06,-0.08,0.02
2020-08-12 20:16:08.8550,-0.01,-0.03,-0.02
2020-08-12 20:16:08.9540,-0.22,0.08,0.05
2020-08-12 20:16:09.0530,-0.48,-0.04,0.14
2020-08-12 20:16:09.1530,-0.6,-0.01,0.08
2020-08-12 20:16:09.2520,-0.21,-0.66,-0.35
2020-08-12 20:16:09.3510,0.05,0.04,0.26
2020-08-12 20:16:09.4500,0.03,-0.03,0.01
2020-08-12 20:16:09.5500,0.05,-0.02,0.01
2020-08-12 20:16:09.6490,0.0,-0.01,0.01
2020-08-12 20:16:09.7480,-0.01,-0.01,-0.01
2020-08-12 20:16:09.8470,0.02,0.04,-0.03
2020-08-12 20:16:09.9470,0.03,0.01,0.0
2020-08-12 20:16:10.0460,-0.01,-0.05,0.01
2020-08-12 20:16:10.1450,0.11,-0.2,0.04
2020-08-12 20:16:10.2450,0.19,-0.28,-0.01
2020-08-12 20:16:10.3440,0.23,-0.2,0.11
2020-08-12 20:16:10.4430,0.02,0.12,0.11
2020-08-12 20:16:10.5420,0.35,0.15,-0.12
2020-08-12 20:16:10.6420,0.24,0.02,-0.05
2020-08-12 20:16:10.7410,0.03,-0.24,0.05
2020-08-12 20:16:10.8400,-0.14,-0.05,0.05
2020-08-12 20:16:10.9390,-0.41,-0.03,0.06
2020-08-12 20:16:11.0390,-0.61,-0.03,0.09
2020-08-12 20:16:11.1380,-0.47,0.09,0.07
2020-08-12 20:16:11.2370,-0.02,0.11,-0.14
2020-08-12 20:16:11.3360,-0.14,0.01,-0.0
2020-08-12 20:16:11.4360,-0.11,-0.02,0.05
2020-08-12 20:16:11.5350,0.02,0.0,0.03
2020-08-12 20:16:11.6340,0.01,-0.02,0.01
2020-08-12 20:16:11.7340,0.01,-0.0,-0.01
2020-08-12 20:16:11.8330,-0.0,0.02,0.0
2020-08-12 20:16:11.9320,0.02,-0.02,0.0
2020-08-12 20:16:12.0310,0.04,-0.06,0.04
2020-08-12 20:16:12.1310,0.12,-0.22,0.07
2020-08-12 20:16:12.2300,0.13,-0.25,-0.04
2020-08-12 20:16:12.3290,0.11,-0.05,0.11
2020-08-12 20:16:12.4290,0.06,-0.02,0.07
2020-08-12 20:16:12.5280,0.53,0.08,-0.09
2020-08-12 20:16:12.6270,0.34,0.03,-0.06
2020-08-12 20:16:12.7260,0.14,-0.07,-0.05
2020-08-12 20:16:12.8260,-0.08,-0.09,-0.03
2020-08-12 20:16:12.9250,-0.43,-0.08,0.09
2020-08-12 20:16:13.0240,-0.4,-0.07,0.03
2020-08-12 20:16:13.1230,-0.57,0.02,0.07
2020-08-12 20:16:13.2230,-0.41,-0.47,-0.11
2020-08-12 20:16:13.3220,0.04,0.03,0.15
2020-08-12 20:16:13.4210,-0.05,-0.04,0.05
2020-08-12 20:16:13.5200,-0.0,-0.0,0.03
2020-08-12 20:16:13.6200,-0.02,-0.0,-0.01
2020-08-12 20:16:13.7190,0.05,-0.01,0.02
2020-08-12 20:16:13.8180,0.05,0.04,-0.05
2020-08-12 20:16:13.9180,-0.01,-0.04,0.03
2020-08-12 20:16:14.0170,-0.0,-0.05,0.04
2020-08-12 20:16:14.1160,0.01,-0.02,0.02
2020-08-12 20:16:14.2150,0.21,-0.29,-0.02
2020-08-12 20:16:14.3150,0.22,-0.09,0.04
2020-08-12 20:16:14.4140,0.07,-0.1,0.08
2020-08-12 20:16:14.5130,0.48,0.02,-0.03
2020-08-12 20:16:14.6120,0.36,0.13,-0.06
2020-08-12 20:16:14.7120,0.16,-0.02,-0.03
2020-08-12 20:16:14.8110,-0.14,-0.07,0.01
2020-08-12 20:16:14.9100,-0.26,-0.08,0.06
2020-08-12 20:16:15.0090,-0.32,-0.04,0.07
2020-08-12 20:16:15.1090,-0.56,0.01,0.03
2020-08-12 20:16:15.2080,-0.62,0.08,0.08
2020-08-12 20:16:15.3070,0.04,0.08,-0.08
2020-08-12 20:16:15.4070,-0.16,-0.04,-0.03
2020-08-12 20:16:15.5060,0.01,-0.02,0.05
2020-08-12 20:16:15.6050,-0.01,-0.01,0.01
2020-08-12 20:16:15.7040,0.03,-0.01,0.0
2020-08-12 20:16:15.8040,0.01,-0.01,-0.02
2020-08-12 20:16:15.9030,-0.04,-0.01,0.02
2020-08-12 20:16:16.0020,0.01,-0.02,-0.01
2020-08-12 20:16:16.1010,0.01,-0.05,-0.03
2020-08-12 20:16:16.2010,0.09,-0.24,0.06
2020-08-12 20:16:16.3000,0.08,-0.25,-0.03
2020-08-12 20:16:16.3990,0.29,-0.1,0.04
2020-08-12 20:16:16.4990,0.28,0.08,0.14
2020-08-12 20:16:16.5980,0.46,0.17,-0.14
2020-08-12 20:16:16.6970,0.19,-0.02,-0.05
2020-08-12 20:16:16.7960,0.04,-0.11,0.03
2020-08-12 20:16:16.8960,-0.26,-0.08,0.12
2020-08-12 20:16:16.9950,-0.33,-0.07,0.11
2020-08-12 20:16:17.0940,-0.55,-0.02,0.06
2020-08-12 20:16:17.1940,-0.5,-0.1,-0.01
2020-08-12 20:16:17.2930,-0.32,-0.36,-0.15
2020-08-12 20:16:17.3920,-0.04,0.11,0.06
2020-08-12 20:16:17.4910,-0.05,-0.05,0.04
2020-08-12 20:16:17.5900,-0.01,-0.01,0.01
2020-08-12 20:16:17.6900,-0.01,-0.02,0.01
2020-08-12 20:16:17.7890,0.03,-0.01,-0.01
2020-08-12 20:16:17.8880,0.02,0.03,-0.03
2020-08-12 20:16:17.9880,0.03,-0.04,0.02
2020-08-12 20:16:18.0870,-0.02,-0.04,-0.01
2020-08-12 20:16:18.1860,0.05,-0.09,-0.01
2020-08-12 20:16:18.2850,0.16,-0.28,-0.05
2020-08-12 20:16:18.3850,0.09,-0.08,0.0
2020-08-12 20:16:18.4840,0.1,-0.04,0.07
2020-08-12 20:16:18.5830,-0.05,0.06,0.11
2020-08-12 20:16:18.6820,0.44,0.07,-0.11
2020-08-12 20:16:18.7820,0.26,0.02,-0.13
2020-08-12 20:16:18.8810,-0.01,-0.12,-0.07
2020-08-12 20:16:18.9800,-0.45,-0.33,0.14
2020-08-12 20:16:19.0800,-0.62,-0.08,0.19
2020-08-12 20:16:19.1790,-0.52,0.03,0.08
2020-08-12 20:16:19.2780,-0.6,-0.48,0.23
2020-08-12 20:16:19.3770,0.11,0.07,0.01
2020-08-12 20:16:19.4770,0.01,-0.02,0.01
2020-08-12 20:16:19.5760,0.03,-0.02,0.04
2020-08-12 20:16:19.6750,-0.02,0.01,0.03
2020-08-12 20:16:19.7740,0.03,-0.01,-0.0
2020-08-12 20:16:19.8740,-0.01,-0.01,-0.03
2020-08-12 20:16:19.9730,-0.03,-0.0,0.0
2020-08-12 20:16:20.0720,0.01,-0.0,0.01
2020-08-12 20:16:20.1720,0.0,-0.04,0.02
2020-08-12 20:16:20.2710,0.15,-0.29,0.03
2020-08-12 20:16:20.3700,0.22,-0.22,0.05
2020-08-12 20:16:20.4690,0.07,-0.02,0.03
2020-08-12 20:16:20.5690,0.39,0.13,0.02
2020-08-12 20:16:20.6680,0.28,0.07,-0.06
2020-08-12 20:16:20.7670,0.1,-0.04,-0.02
2020-08-12 20:16:20.8670,-0.22,-0.14,0.05
2020-08-12 20:16:20.9660,-0.31,-0.05,0.03
2020-08-12 20:16:21.0660,-0.47,-0.04,0.09
2020-08-12 20:16:21.1640,-0.49,0.01,0.01
2020-08-12 20:16:21.2640,0.71,-0.22,0.04
2020-08-12 20:16:21.3630,0.11,0.0,-0.0
2020-08-12 20:16:21.4620,-0.04,-0.06,-0.07
2020-08-12 20:16:21.5610,0.0,-0.01,0.05
2020-08-12 20:16:21.6600,-0.04,0.0,0.05
2020-08-12 20:16:21.7600,-0.01,-0.03,0.02
2020-08-12 20:16:21.8590,0.02,0.02,-0.02
2020-08-12 20:16:21.9580,0.04,-0.02,0.03
2020-08-12 20:16:22.0580,-0.04,-0.01,0.04
2020-08-12 20:16:22.1570,-0.01,-0.04,0.04
2020-08-12 20:16:22.2560,0.15,-0.27,-0.02
2020-08-12 20:16:22.3550,0.23,-0.38,-0.02
2020-08-12 20:16:22.4550,0.09,0.01,0.01
2020-08-12 20:16:22.5540,0.57,0.25,-0.06
2020-08-12 20:16:22.6530,0.38,0.12,-0.06
2020-08-12 20:16:22.7530,0.11,-0.09,0.01
2020-08-12 20:16:22.8520,-0.17,-0.2,0.03
2020-08-12 20:16:22.9510,-0.37,-0.13,0.12
2020-08-12 20:16:23.0500,-0.46,-0.03,0.09
2020-08-12 20:16:23.1500,-0.47,0.03,0.02
2020-08-12 20:16:23.2490,0.44,-0.37,-0.05
2020-08-12 20:16:23.3480,0.23,-0.01,0.01
2020-08-12 20:16:23.4480,0.03,-0.05,-0.05
2020-08-12 20:16:23.5470,0.02,-0.02,0.09
2020-08-12 20:16:23.6460,-0.0,0.02,0.04
2020-08-12 20:16:23.7450,-0.04,0.0,-0.0
2020-08-12 20:16:23.8450,0.06,0.01,-0.0
2020-08-12 20:16:23.9440,0.01,0.05,-0.0
2020-08-12 20:16:24.0430,0.05,-0.01,0.02
2020-08-12 20:16:24.1420,-0.01,-0.05,0.06
2020-08-12 20:16:24.2420,0.14,-0.2,0.03
2020-08-12 20:16:24.3410,0.17,-0.42,-0.05
2020-08-12 20:16:24.4400,0.12,-0.1,0.09
2020-08-12 20:16:24.5390,0.48,0.17,-0.14
2020-08-12 20:16:24.6390,0.31,0.16,-0.12
2020-08-12 20:16:24.7380,0.09,0.06,0.01
2020-08-12 20:16:24.8370,-0.03,-0.04,0.05
2020-08-12 20:16:24.9370,-0.12,-0.09,0.05
2020-08-12 20:16:25.0360,-0.36,0.0,0.15
2020-08-12 20:16:25.1350,-0.38,-0.05,0.04
2020-08-12 20:16:25.2340,-0.58,-0.1,-0.06
2020-08-12 20:16:25.3340,-0.34,-0.19,-0.11
2020-08-12 20:16:25.4330,-0.19,0.03,0.13
2020-08-12 20:16:25.5320,-0.09,-0.03,0.0
2020-08-12 20:16:25.6320,0.04,-0.01,0.02
2020-08-12 20:16:25.7310,-0.02,-0.02,0.03
2020-08-12 20:16:25.8300,0.04,0.01,0.01
2020-08-12 20:16:25.9290,0.02,0.02,-0.02
2020-08-12 20:16:26.0290,-0.04,-0.01,0.02
2020-08-12 20:16:26.1280,-0.05,-0.05,-0.01
2020-08-12 20:16:26.2270,0.02,-0.08,0.04
2020-08-12 20:16:26.3260,0.26,-0.19,0.04
2020-08-12 20:16:26.4260,0.17,-0.23,0.03
2020-08-12 20:16:26.5250,0.05,-0.07,0.06
2020-08-12 20:16:26.6240,0.56,0.1,-0.11
2020-08-12 20:16:26.7230,0.33,0.12,-0.03
2020-08-12 20:16:26.8230,0.12,-0.08,-0.03
2020-08-12 20:16:26.9220,-0.22,-0.11,0.08
2020-08-12 20:16:27.0210,-0.25,-0.07,0.08
2020-08-12 20:16:27.1200,-0.49,-0.07,0.09
2020-08-12 20:16:27.2200,-0.67,0.01,0.06
2020-08-12 20:16:27.3190,-0.15,-0.25,0.06
2020-08-12 20:16:27.4180,0.2,0.05,0.04
2020-08-12 20:16:27.5180,0.04,-0.03,-0.04
2020-08-12 20:16:27.6170,0.03,-0.03,0.02
2020-08-12 20:16:27.7160,-0.01,0.0,0.02
2020-08-12 20:16:27.8150,0.01,-0.02,-0.01
2020-08-12 20:16:27.9150,0.05,-0.01,-0.03
2020-08-12 20:16:28.0140,-0.02,-0.01,-0.01
2020-08-12 20:16:28.1130,-0.01,-0.05,-0.02
2020-08-12 20:16:28.2120,-0.01,-0.04,0.03
2020-08-12 20:16:28.3110,0.17,-0.22,0.03
2020-08-12 20:16:28.4110,0.24,-0.2,-0.03
2020-08-12 20:16:28.5100,0.12,-0.02,0.09
2020-08-12 20:16:28.6100,0.52,0.1,-0.02
2020-08-12 20:16:28.7090,0.41,-0.0,-0.07
2020-08-12 20:16:28.8080,0.11,-0.09,-0.03
2020-08-12 20:16:28.9070,-0.08,-0.04,-0.04
2020-08-12 20:16:29.0070,-0.5,-0.12,0.08
2020-08-12 20:16:29.1060,-0.71,-0.02,0.12
2020-08-12 20:16:29.2060,-0.59,-0.03,0.02
2020-08-12 20:16:29.3040,-0.31,-0.04,-0.34
2020-08-12 20:16:29.4040,-0.24,0.0,0.05
2020-08-12 20:16:29.5030,-0.01,-0.01,0.07
2020-08-12 20:16:29.6020,-0.05,-0.03,0.04
2020-08-12 20:16:29.7020,0.01,-0.01,-0.0
2020-08-12 20:16:29.8010,0.03,0.01,-0.02
2020-08-12 20:16:29.9000,0.02,-0.01,0.0
2020-08-12 20:16:29.9990,0.01,-0.01,0.04
2020-08-12 20:16:30.0980,-0.04,-0.04,0.01
2020-08-12 20:16:30.1980,0.07,-0.2,0.06
2020-08-12 20:16:30.2970,0.21,-0.35,-0.11
2020-08-12 20:16:30.3960,0.27,-0.18,0.09
2020-08-12 20:16:30.4960,0.56,0.03,0.06
2020-08-12 20:16:30.5950,0.53,0.25,-0.15
2020-08-12 20:16:30.6940,0.16,-0.12,-0.06
2020-08-12 20:16:30.7930,-0.33,-0.25,0.23
2020-08-12 20:16:30.8930,-0.3,-0.17,0.11
2020-08-12 20:16:30.9920,-0.55,-0.0,0.06
2020-08-12 20:16:31.0910,-0.57,0.04,-0.01
2020-08-12 20:16:31.1900,-0.28,-0.56,0.09
2020-08-12 20:16:31.2900,0.3,0.04,0.07
2020-08-12 20:16:31.3890,0.01,-0.02,-0.04
2020-08-12 20:16:31.4880,0.02,0.01,0.04
2020-08-12 20:16:31.5880,-0.03,0.0,0.01
2020-08-12 20:16:31.6870,0.01,-0.02,0.04
2020-08-12 20:16:31.7860,0.03,0.0,-0.03
2020-08-12 20:16:31.8850,0.03,0.01,-0.03
2020-08-12 20:16:31.9850,-0.03,-0.04,-0.01
2020-08-12 20:16:32.0840,0.03,-0.07,-0.01
2020-08-12 20:16:32.1830,0.11,-0.31,0.04
2020-08-12 20:16:32.2820,0.16,-0.28,0.05
2020-08-12 20:16:32.3820,0.06,0.01,0.03
2020-08-12 20:16:32.4810,0.47,0.24,-0.04
2020-08-12 20:16:32.5800,0.4,0.05,-0.14
2020-08-12 20:16:32.6800,-0.02,-0.08,0.05
2020-08-12 20:16:32.7790,-0.22,-0.17,0.05
2020-08-12 20:16:32.8780,-0.43,-0.14,0.02
2020-08-12 20:16:32.9770,-0.64,-0.05,0.04
2020-08-12 20:16:33.0770,-0.6,0.05,0.06
2020-08-12 20:16:33.1760,-0.74,-0.32,-0.2
2020-08-12 20:16:33.2750,-0.23,0.11,0.21
2020-08-12 20:16:33.3740,0.01,-0.06,0.06
2020-08-12 20:16:33.4740,0.03,0.0,0.01
2020-08-12 20:16:33.5730,0.0,-0.0,-0.0
2020-08-12 20:16:33.6720,0.03,-0.02,0.02
2020-08-12 20:16:33.7720,0.02,-0.0,-0.01
2020-08-12 20:16:33.8710,-0.03,-0.01,0.01
2020-08-12 20:16:33.9700,0.01,-0.01,-0.01
2020-08-12 20:16:34.0690,0.01,-0.04,0.0
2020-08-12 20:16:34.1690,0.06,-0.22,0.03
2020-08-12 20:16:34.2680,0.12,-0.19,-0.02
2020-08-12 20:16:34.3670,0.15,-0.14,0.03
2020-08-12 20:16:34.4660,-0.05,-0.06,0.11
2020-08-12 20:16:34.5660,0.43,0.1,-0.06
2020-08-12 20:16:34.6650,0.3,0.04,-0.04
2020-08-12 20:16:34.7640,0.11,-0.06,0.01
2020-08-12 20:16:34.8630,-0.11,-0.14,0.04
2020-08-12 20:16:34.9630,-0.37,-0.18,0.11
2020-08-12 20:16:35.0620,-0.55,-0.07,0.06
2020-08-12 20:16:35.1610,-0.28,0.03,-0.04
2020-08-12 20:16:35.2610,-0.26,0.17,-0.12
2020-08-12 20:16:35.3600,-0.22,-0.01,-0.04
2020-08-12 20:16:35.4590,-0.06,-0.02,0.05
2020-08-12 20:16:35.5580,-0.01,0.0,0.01
2020-08-12 20:16:35.6580,-0.04,0.0,-0.01
2020-08-12 20:16:35.7570,0.01,0.01,0.01
2020-08-12 20:16:35.8560,-0.03,0.01,0.02
2020-08-12 20:16:35.9550,-0.02,-0.02,0.02
2020-08-12 20:16:36.0550,0.02,-0.07,0.05
2020-08-12 20:16:36.1540,0.14,-0.27,0.04
2020-08-12 20:16:36.2530,0.31,-0.26,-0.0
2020-08-12 20:16:36.3520,0.19,-0.16,0.1
2020-08-12 20:16:36.4520,0.57,0.2,-0.04
2020-08-12 20:16:36.5510,0.39,0.15,-0.08
2020-08-12 20:16:36.6500,0.1,-0.1,-0.01
2020-08-12 20:16:36.7500,-0.23,-0.16,0.06
2020-08-12 20:16:36.8490,-0.32,-0.14,0.05
2020-08-12 20:16:36.9480,-0.53,-0.05,0.1
2020-08-12 20:16:37.0470,-0.52,0.02,0.06
2020-08-12 20:16:37.1470,-0.05,-0.37,-0.11
2020-08-12 20:16:37.2460,0.11,0.06,0.1
2020-08-12 20:16:37.3460,-0.04,-0.03,-0.04
2020-08-12 20:16:37.4450,0.04,-0.02,0.03
2020-08-12 20:16:37.5440,0.02,-0.02,0.02
2020-08-12 20:16:37.6430,0.03,0.01,-0.01
2020-08-12 20:16:37.7420,0.02,-0.01,-0.02
2020-08-12 20:16:37.8420,0.0,-0.01,0.02
2020-08-12 20:16:37.9410,0.03,-0.01,0.02
2020-08-12 20:16:38.0400,0.02,-0.05,-0.02
2020-08-12 20:16:38.1390,0.13,-0.32,0.01
2020-08-12 20:16:38.2390,0.24,-0.4,0.07
2020-08-12 20:16:38.3380,0.18,0.0,0.08
2020-08-12 20:16:38.4370,0.47,0.18,-0.11
2020-08-12 20:16:38.5360,0.24,0.1,0.01
2020-08-12 20:16:38.6360,0.04,-0.02,-0.03
2020-08-12 20:16:38.7350,-0.18,-0.15,0.03
2020-08-12 20:16:38.8340,-0.45,-0.22,0.06
2020-08-12 20:16:38.9340,-0.66,-0.03,0.05
2020-08-12 20:16:39.0330,0.7,-0.02,-0.03
2020-08-12 20:16:39.1320,-0.25,0.07,0.11
2020-08-12 20:16:39.2310,-0.1,-0.03,-0.02
2020-08-12 20:16:39.3310,-0.03,-0.02,0.01
2020-08-12 20:16:39.4300,-0.03,0.01,0.02
2020-08-12 20:16:39.5290,-0.01,-0.03,0.06
2020-08-12 20:16:39.6280,0.04,-0.0,0.0
2020-08-12 20:16:39.7280,-0.02,0.02,-0.02
2020-08-12 20:16:39.8270,0.03,0.0,-0.01
2020-08-12 20:16:39.9260,0.02,-0.05,0.02
2020-08-12 20:16:40.0260,0.11,-0.23,0.04
2020-08-12 20:16:40.1250,0.26,-0.38,-0.06
2020-08-12 20:16:40.2240,0.14,-0.08,0.08
2020-08-12 20:16:40.3230,0.57,0.12,-0.07
2020-08-12 20:16:40.4230,0.45,0.15,-0.1
2020-08-12 20:16:40.5220,0.17,-0.08,-0.0
2020-08-12 20:16:40.6210,-0.12,-0.19,0.07
2020-08-12 20:16:40.7200,-0.43,-0.16,0.14
2020-08-12 20:16:40.8200,-0.64,-0.09,0.06
2020-08-12 20:16:40.9190,-0.66,0.03,0.1
2020-08-12 20:16:41.0180,-0.6,-0.51,0.35
2020-08-12 20:16:41.1180,0.18,0.03,0.0
2020-08-12 20:16:41.2170,0.08,-0.04,0.02
2020-08-12 20:16:41.3160,-0.01,0.0,0.01
2020-08-12 20:16:41.4150,-0.03,-0.01,-0.01
2020-08-12 20:16:41.5150,0.02,-0.0,0.0
2020-08-12 20:16:41.6140,0.03,0.01,0.01
2020-08-12 20:16:41.7130,0.01,0.0,0.02
2020-08-12 20:16:41.8120,-0.01,-0.01,0.02
2020-08-12 20:16:41.9120,0.12,-0.23,0.04
2020-08-12 20:16:42.0110,0.34,-0.37,-0.04
2020-08-12 20:16:42.1100,0.21,-0.13,0.14
2020-08-12 20:16:42.2090,0.62,0.15,-0.12
2020-08-12 20:16:42.3090,0.42,0.12,-0.09
2020-08-12 20:16:42.4080,-0.01,-0.11,-0.03
2020-08-12 20:16:42.5070,-0.33,-0.18,0.13
2020-08-12 20:16:42.6070,-0.5,-0.13,0.08
2020-08-12 20:16:42.7060,-0.71,-0.06,0.03
2020-08-12 20:16:42.8050,0.66,-0.4,-0.36
2020-08-12 20:16:42.9040,-0.03,0.04,0.29
2020-08-12 20:16:43.0040,-0.04,-0.06,-0.02
2020-08-12 20:16:43.1030,0.07,-0.01,0.01
2020-08-12 20:16:43.2020,-0.01,-0.0,-0.01
2020-08-12 20:16:43.3010,-0.0,0.0,0.0
2020-08-12 20:16:43.4010,-0.01,-0.01,-0.01
2020-08-12 20:16:43.5000,-0.03,-0.01,-0.01
2020-08-12 20:16:43.5990,-0.01,-0.01,-0.0
2020-08-12 20:16:43.6990,0.03,-0.05,0.02
2020-08-12 20:16:43.7980,0.17,-0.29,0.01
2020-08-12 20:16:43.8970,0.32,-0.54,0.04
2020-08-12 20:16:43.9960,0.28,-0.07,0.09
2020-08-12 20:16:44.0960,0.55,0.36,-0.06
2020-08-12 20:16:44.1950,0.21,-0.0,-0.07
2020-08-12 20:16:44.2940,-0.21,-0.1,0.06
2020-08-12 20:16:44.3930,-0.28,-0.16,0.12
2020-08-12 20:16:44.4930,-0.44,-0.12,0.08
2020-08-12 20:16:44.5920,-0.65,-0.03,0.11
2020-08-12 20:16:44.6910,0.61,-0.26,-0.33
2020-08-12 20:16:44.7900,-0.04,0.06,0.1
2020-08-12 20:16:44.8900,-0.03,-0.07,-0.05
2020-08-12 20:16:44.9890,0.08,-0.01,0.03
2020-08-12 20:16:45.0880,0.01,-0.02,-0.0
2020-08-12 20:16:45.1870,-0.03,-0.02,-0.04
2020-08-12 20:16:45.2870,-0.0,0.01,-0.01
2020-08-12 20:16:45.3860,-0.04,0.01,0.03
2020-08-12 20:16:45.4850,0.06,-0.0,0.01
2020-08-12 20:16:45.5850,0.02,-0.06,-0.01
2020-08-12 20:16:45.6840,0.17,-0.28,0.11
2020-08-12 20:16:45.7830,0.28,-0.54,-0.05
2020-08-12 20:16:45.8820,0.15,-0.01,0.12
2020-08-12 20:16:45.9820,0.61,0.26,-0.08
2020-08-12 20:16:46.0810,0.26,0.13,-0.04
2020-08-12 20:16:46.1800,0.01,-0.12,0.0
2020-08-12 20:16:46.2800,-0.31,-0.22,0.09
2020-08-12 20:16:46.3790,-0.55,-0.17,0.06
2020-08-12 20:16:46.4780,-0.78,-0.01,0.13
2020-08-12 20:16:46.5770,0.36,-0.47,-0.22
2020-08-12 20:16:46.6770,0.08,-0.03,0.04
2020-08-12 20:16:46.7760,-0.06,0.0,0.03
2020-08-12 20:16:46.8750,0.0,0.0,0.04
2020-08-12 20:16:46.9740,-0.03,-0.01,0.03
2020-08-12 20:16:47.0740,-0.01,-0.0,-0.0
2020-08-12 20:16:47.1730,-0.01,0.0,-0.01
2020-08-12 20:16:47.2720,-0.0,0.02,0.01
2020-08-12 20:16:47.3720,-0.02,0.0,-0.01
2020-08-12 20:16:47.4710,0.0,-0.03,0.0
2020-08-12 20:16:47.5700,0.09,-0.16,0.06
2020-08-12 20:16:47.6690,0.21,-0.44,0.01
2020-08-12 20:16:47.7680,0.17,-0.21,0.12
2020-08-12 20:16:47.8680,0.62,0.04,-0.09
2020-08-12 20:16:47.9670,0.41,0.15,-0.05
2020-08-12 20:16:48.0660,0.16,0.03,-0.08
2020-08-12 20:16:48.1660,-0.16,-0.09,0.04
2020-08-12 20:16:48.2650,-0.5,-0.19,0.25
2020-08-12 20:16:48.3640,-0.67,-0.1,0.12
2020-08-12 20:16:48.4630,-0.18,-0.16,-0.19
2020-08-12 20:16:48.5630,-0.39,-0.2,-0.16
2020-08-12 20:16:48.6620,-0.14,0.02,0.03
2020-08-12 20:16:48.7610,-0.0,-0.01,0.04
2020-08-12 20:16:48.8610,-0.0,0.0,0.04
2020-08-12 20:16:48.9600,0.0,-0.01,-0.01
2020-08-12 20:16:49.0590,0.03,0.01,-0.03
2020-08-12 20:16:49.1580,-0.03,-0.02,0.02
2020-08-12 20:16:49.2570,0.01,0.01,-0.02
2020-08-12 20:16:49.3570,-0.0,-0.03,0.01
2020-08-12 20:16:49.4560,0.09,-0.13,0.03
2020-08-12 20:16:49.5560,0.26,-0.43,-0.09
2020-08-12 20:16:49.6550,0.25,-0.26,0.11
2020-08-12 20:16:49.7540,0.58,0.06,-0.03
2020-08-12 20:16:49.8530,0.42,0.25,-0.04
2020-08-12 20:16:49.9530,0.13,-0.02,-0.08
2020-08-12 20:16:50.0520,-0.13,-0.09,0.0
2020-08-12 20:16:50.1510,-0.5,-0.26,0.14
2020-08-12 20:16:50.2500,-0.78,-0.08,0.14
2020-08-12 20:16:50.3500,0.11,-0.03,-0.19
2020-08-12 20:16:50.4490,-0.44,-0.03,-0.21
2020-08-12 20:16:50.5480,-0.14,-0.01,0.01
2020-08-12 20:16:50.6470,-0.01,-0.03,0.01
2020-08-12 20:16:50.7470,-0.02,0.0,0.04
2020-08-12 20:16:50.8460,-0.03,-0.02,-0.01
2020-08-12 20:16:50.9450,0.03,0.01,0.02
2020-08-12 20:16:51.0450,0.03,0.0,0.02
2020-08-12 20:16:51.1440,0.01,-0.03,0.01
2020-08-12 20:16:51.2430,-0.01,-0.02,0.04
2020-08-12 20:16:51.3420,0.07,-0.18,-0.01
2020-08-12 20:16:51.4410,0.22,-0.37,-0.08
2020-08-12 20:16:51.5410,0.35,-0.39,0.09
2020-08-12 20:16:51.6400,0.48,0.16,0.14
2020-08-12 20:16:51.7390,0.59,0.25,-0.15
2020-08-12 20:16:51.8390,0.1,-0.08,-0.03
2020-08-12 20:16:51.9380,-0.24,-0.35,0.1
2020-08-12 20:16:52.0370,-0.5,-0.2,0.16
2020-08-12 20:16:52.1360,-0.72,-0.03,0.09
2020-08-12 20:16:52.2360,-0.28,-0.05,-0.07
2020-08-12 20:16:52.3350,-0.36,-0.26,-0.28
2020-08-12 20:16:52.4340,-0.25,0.03,0.09
2020-08-12 20:16:52.5330,-0.02,0.0,0.06
2020-08-12 20:16:52.6330,0.01,0.0,0.05
2020-08-12 20:16:52.7320,0.02,-0.01,-0.0
2020-08-12 20:16:52.8310,0.03,-0.01,0.02
2020-08-12 20:16:52.9310,0.01,-0.02,-0.02
2020-08-12 20:16:53.0300,0.0,-0.01,0.04
2020-08-12 20:16:53.1290,0.01,-0.06,0.02
2020-08-12 20:16:53.2280,0.09,-0.22,0.07
2020-08-12 20:16:53.3280,0.27,-0.46,0.0
2020-08-12 20:16:53.4270,0.16,-0.1,0.04
2020-08-12 20:16:53.5260,0.5,0.12,-0.13
2020-08-12 20:16:53.6250,0.36,0.14,-0.04
2020-08-12 20:16:53.7250,0.19,0.02,-0.02
2020-08-12 20:16:53.8240,-0.08,-0.02,-0.01
2020-08-12 20:16:53.9230,-0.41,-0.14,0.14
2020-08-12 20:16:54.0230,-0.59,-0.2,0.06
2020-08-12 20:16:54.1220,-0.7,-0.12,0.06
2020-08-12 20:16:54.2210,-0.44,-0.6,0.2
2020-08-12 20:16:54.3200,0.04,0.1,0.04
2020-08-12 20:16:54.4200,-0.06,-0.03,0.06
2020-08-12 20:16:54.5190,-0.02,-0.01,0.03
2020-08-12 20:16:54.6180,-0.0,-0.01,0.01
2020-08-12 20:16:54.7170,0.0,0.01,0.02
2020-08-12 20:16:54.8170,-0.07,-0.03,-0.01
2020-08-12 20:16:54.9160,-0.0,-0.03,0.02
2020-08-12 20:16:55.0150,0.08,-0.05,0.03
2020-08-12 20:16:55.1140,0.14,-0.31,0.02
2020-08-12 20:16:55.2140,0.18,-0.38,0.11
2020-08-12 20:16:55.3130,0.12,-0.05,0.1
2020-08-12 20:16:55.4120,0.47,0.17,-0.1
2020-08-12 20:16:55.5110,0.36,0.11,-0.14
2020-08-12 20:16:55.6110,0.17,0.06,-0.06
2020-08-12 20:16:55.7100,-0.24,-0.18,0.05
2020-08-12 20:16:55.8090,-0.44,-0.21,0.21
2020-08-12 20:16:55.9090,-0.58,-0.1,-0.0
2020-08-12 20:16:56.0080,-0.62,0.0,0.04
2020-08-12 20:16:56.1070,-0.37,-0.49,0.27
2020-08-12 20:16:56.2060,0.18,0.05,-0.01
2020-08-12 20:16:56.3060,0.05,-0.01,-0.01
2020-08-12 20:16:56.4050,0.04,-0.04,0.02
2020-08-12 20:16:56.5040,-0.04,-0.0,0.02
2020-08-12 20:16:56.6030,0.03,-0.0,0.0
2020-08-12 20:16:56.7030,-0.01,-0.0,-0.03
2020-08-12 20:16:56.8020,-0.05,-0.03,-0.0
2020-08-12 20:16:56.9010,0.04,-0.06,-0.02
2020-08-12 20:16:57.0010,0.04,-0.11,-0.04
2020-08-12 20:16:57.1000,0.2,-0.27,-0.03
2020-08-12 20:16:57.1990,0.19,-0.22,0.07
2020-08-12 20:16:57.2980,0.11,-0.06,0.11
2020-08-12 20:16:57.3980,0.56,0.21,-0.09
2020-08-12 20:16:57.4970,0.42,0.1,-0.15
2020-08-12 20:16:57.5960,0.03,-0.07,0.06
2020-08-12 20:16:57.6960,-0.14,-0.18,0.02
2020-08-12 20:16:57.7950,-0.45,-0.26,0.14
2020-08-12 20:16:57.8940,-0.71,-0.04,0.16
2020-08-12 20:16:57.9930,-0.25,0.02,0.02
2020-08-12 20:16:58.0930,-0.27,-0.22,-0.31
2020-08-12 20:16:58.1920,-0.18,0.05,0.14
2020-08-12 20:16:58.2910,-0.03,-0.04,0.08
2020-08-12 20:16:58.3900,0.03,-0.01,0.06
2020-08-12 20:16:58.4900,-0.0,0.0,0.0
2020-08-12 20:16:58.5890,0.04,0.01,0.01
2020-08-12 20:16:58.6880,0.02,0.01,-0.02
2020-08-12 20:16:58.7870,0.02,0.0,-0.0
2020-08-12 20:16:58.8870,0.03,-0.02,0.0
2020-08-12 20:16:58.9860,0.07,-0.15,0.04
2020-08-12 20:16:59.0860,0.27,-0.43,-0.03
2020-08-12 20:16:59.1850,0.2,-0.17,0.11
2020-08-12 20:16:59.2840,0.63,0.07,-0.09
2020-08-12 20:16:59.3830,0.52,0.18,-0.1
2020-08-12 20:16:59.4820,0.14,-0.01,0.05
2020-08-12 20:16:59.5820,-0.22,-0.17,0.01
2020-08-12 20:16:59.6810,-0.48,-0.19,0.18
2020-08-12 20:16:59.7800,-0.73,-0.05,0.12
2020-08-12 20:16:59.8790,-0.6,-0.04,0.02
2020-08-12 20:16:59.9790,-0.48,-0.23,0.27
2020-08-12 20:17:00.0780,0.27,0.12,0.06
2020-08-12 20:17:00.1770,0.1,-0.03,-0.04
2020-08-12 20:17:00.2760,0.02,-0.01,0.02
2020-08-12 20:17:00.3760,-0.04,-0.02,0.01
2020-08-12 20:17:00.4750,0.05,0.0,0.01
2020-08-12 20:17:00.5740,-0.05,0.03,-0.05
2020-08-12 20:17:00.6740,0.03,-0.01,-0.02
2020-08-12 20:17:00.7730,0.03,-0.02,0.03
2020-08-12 20:17:00.8720,0.02,-0.06,-0.03
2020-08-12 20:17:00.9710,0.21,-0.26,-0.04
2020-08-12 20:17:01.0710,0.21,-0.28,0.05
2020-08-12 20:17:01.1700,0.13,-0.11,0.16
2020-08-12 20:17:01.2690,0.6,0.26,-0.11
2020-08-12 20:17:01.3680,0.39,0.09,-0.15
2020-08-12 20:17:01.4680,0.04,-0.15,-0.04
2020-08-12 20:17:01.5670,-0.37,-0.37,0.09
2020-08-12 20:17:01.6660,-0.8,-0.13,0.17
2020-08-12 20:17:01.7650,-0.72,0.02,0.12
2020-08-12 20:17:01.8650,-0.53,-0.6,0.22
2020-08-12 20:17:01.9640,0.23,0.06,0.02
2020-08-12 20:17:02.0630,-0.01,-0.02,-0.04
2020-08-12 20:17:02.1630,0.05,-0.02,0.03
2020-08-12 20:17:02.2620,0.03,0.01,0.03
2020-08-12 20:17:02.3610,0.02,-0.01,0.0
2020-08-12 20:17:02.4600,0.02,0.01,-0.0
2020-08-12 20:17:02.5600,-0.02,-0.04,0.02
2020-08-12 20:17:02.6590,0.03,-0.03,0.03
2020-08-12 20:17:02.7580,0.05,-0.21,0.06
2020-08-12 20:17:02.8580,0.25,-0.34,-0.08
2020-08-12 20:17:02.9570,0.19,-0.19,0.17
2020-08-12 20:17:03.0560,0.62,0.03,0.01
2020-08-12 20:17:03.1550,0.56,0.33,-0.07
2020-08-12 20:17:03.2550,0.18,-0.1,-0.01
2020-08-12 20:17:03.3540,-0.22,-0.26,0.07
2020-08-12 20:17:03.4530,-0.44,-0.22,0.05
2020-08-12 20:17:03.5520,-0.74,-0.07,0.08
2020-08-12 20:17:03.6520,-0.68,-0.03,0.06
2020-08-12 20:17:03.7510,-0.7,-0.56,0.24
2020-08-12 20:17:03.8500,0.06,0.08,0.02
2020-08-12 20:17:03.9490,0.04,-0.02,0.01
2020-08-12 20:17:04.0490,0.0,-0.01,0.0
2020-08-12 20:17:04.1480,-0.0,-0.02,0.01
2020-08-12 20:17:04.2470,0.04,0.01,0.01
2020-08-12 20:17:04.3470,-0.01,0.01,-0.0
2020-08-12 20:17:04.4460,-0.03,-0.0,0.05
2020-08-12 20:17:04.5450,0.03,-0.05,0.01
2020-08-12 20:17:04.6440,0.16,-0.3,0.04
2020-08-12 20:17:04.7440,0.31,-0.43,-0.03
2020-08-12 20:17:04.8430,0.13,-0.21,0.11
2020-08-12 20:17:04.9420,0.74,0.19,-0.05
2020-08-12 20:17:05.0410,0.52,0.25,-0.07
2020-08-12 20:17:05.1410,0.09,-0.14,0.04
2020-08-12 20:17:05.2400,-0.33,-0.24,0.11
2020-08-12 20:17:05.3390,-0.53,-0.17,0.13
2020-08-12 20:17:05.4390,-0.84,-0.0,0.2
2020-08-12 20:17:05.5380,0.87,-0.14,-0.36
2020-08-12 20:17:05.6370,-0.37,0.22,0.25
2020-08-12 20:17:05.7360,-0.15,-0.04,0.04
2020-08-12 20:17:05.8360,-0.0,-0.01,0.06
2020-08-12 20:17:05.9350,-0.01,-0.01,0.04
2020-08-12 20:17:06.0340,0.0,0.0,-0.0
2020-08-12 20:17:06.1330,0.01,0.02,-0.02
2020-08-12 20:17:06.2330,0.0,0.0,0.02
2020-08-12 20:17:06.3320,0.08,-0.05,0.04
2020-08-12 20:17:06.4310,0.08,-0.13,0.05
2020-08-12 20:17:06.5310,0.22,-0.34,-0.08
2020-08-12 20:17:06.6300,0.27,-0.27,0.14
2020-08-12 20:17:06.7290,0.39,0.08,0.16
2020-08-12 20:17:06.8280,0.5,0.26,-0.06
2020-08-12 20:17:06.9280,0.25,0.0,-0.06
2020-08-12 20:17:07.0270,-0.14,-0.22,0.0
2020-08-12 20:17:07.1260,-0.37,-0.18,0.07
2020-08-12 20:17:07.2250,-0.42,-0.11,-0.03
2020-08-12 20:17:07.3250,-0.64,-0.05,0.1
2020-08-12 20:17:07.4240,0.49,-0.04,-0.4
2020-08-12 20:17:07.5230,-0.29,0.16,0.05
2020-08-12 20:17:07.6220,-0.1,-0.02,-0.01
2020-08-12 20:17:07.7220,-0.05,-0.03,0.07
2020-08-12 20:17:07.8210,-0.0,-0.0,-0.01
2020-08-12 20:17:07.9200,-0.01,-0.01,0.01
2020-08-12 20:17:08.0200,0.02,-0.01,0.02
2020-08-12 20:17:08.1190,-0.0,0.05,-0.03
2020-08-12 20:17:08.2180,-0.02,-0.01,-0.02
2020-08-12 20:17:08.3170,0.01,-0.09,-0.01
2020-08-12 20:17:08.4170,0.09,-0.19,0.01
2020-08-12 20:17:08.5160,0.18,-0.37,0.07
2020-08-12 20:17:08.6150,0.14,-0.04,0.06
2020-08-12 20:17:08.7150,0.6,0.17,-0.15
2020-08-12 20:17:08.8140,0.51,0.06,-0.17
2020-08-12 20:17:08.9130,0.08,-0.17,0.04
2020-08-12 20:17:09.0120,-0.25,-0.31,0.06
2020-08-12 20:17:09.1110,-0.49,-0.18,0.15
2020-08-12 20:17:09.2110,-0.63,0.01,0.11
2020-08-12 20:17:09.3100,-0.54,-0.08,0.07
2020-08-12 20:17:09.4090,-0.32,-0.5,-0.23
2020-08-12 20:17:09.5090,-0.21,0.05,0.01
2020-08-12 20:17:09.6080,-0.06,-0.01,0.09
2020-08-12 20:17:09.7070,0.02,-0.01,0.03
2020-08-12 20:17:09.8060,0.02,0.01,0.02
2020-08-12 20:17:09.9060,-0.03,-0.02,-0.01
2020-08-12 20:17:10.0050,-0.0,0.01,-0.01
2020-08-12 20:17:10.1040,0.03,-0.03,0.04
2020-08-12 20:17:10.2030,0.02,-0.03,0.02
2020-08-12 20:17:10.3030,0.09,-0.2,0.05
2020-08-12 20:17:10.4020,0.16,-0.43,0.03
2020-08-12 20:17:10.5010,0.18,-0.07,0.07
2020-08-12 20:17:10.6000,0.61,0.12,-0.05
2020-08-12 20:17:10.7000,0.48,0.21,-0.07
2020-08-12 20:17:10.7990,0.17,-0.06,0.03
2020-08-12 20:17:10.8980,-0.04,-0.21,0.02
2020-08-12 20:17:10.9980,-0.26,-0.24,0.11
2020-08-12 20:17:11.0970,-0.6,-0.08,0.1
2020-08-12 20:17:11.1960,-0.72,0.02,0.11
2020-08-12 20:17:11.2950,0.72,-0.09,-0.27
2020-08-12 20:17:11.3950,-0.32,0.11,-0.03
2020-08-12 20:17:11.4940,-0.18,-0.06,-0.01
2020-08-12 20:17:11.5930,-0.05,-0.03,0.05
2020-08-12 20:17:11.6930,-0.03,-0.0,0.05
2020-08-12 20:17:11.7920,0.03,-0.02,0.02
2020-08-12 20:17:11.8910,-0.02,0.0,-0.03
2020-08-12 20:17:11.9900,0.01,0.02,0.0
2020-08-12 20:17:12.0900,-0.03,-0.04,-0.04
2020-08-12 20:17:12.1890,0.01,-0.06,0.0
2020-08-12 20:17:12.2880,0.11,-0.25,-0.05
2020-08-12 20:17:12.3870,0.29,-0.27,-0.0
2020-08-12 20:17:12.4870,0.1,-0.13,0.1
2020-08-12 20:17:12.5860,0.66,0.11,-0.09
2020-08-12 20:17:12.6850,0.45,0.18,-0.07
2020-08-12 20:17:12.7850,0.15,-0.05,-0.04
2020-08-12 20:17:12.8840,-0.09,-0.23,-0.01
2020-08-12 20:17:12.9830,-0.56,-0.22,0.24
2020-08-12 20:17:13.0820,-0.81,-0.07,0.08
2020-08-12 20:17:13.1820,-0.32,-0.06,0.11
2020-08-12 20:17:13.2810,-0.21,-0.22,-0.31
2020-08-12 20:17:13.3800,-0.19,0.05,0.08
2020-08-12 20:17:13.4790,-0.06,-0.02,0.08
2020-08-12 20:17:13.5790,0.03,-0.03,0.04
2020-08-12 20:17:13.6780,-0.01,-0.01,-0.01
2020-08-12 20:17:13.7770,-0.01,0.01,0.02
2020-08-12 20:17:13.8760,-0.01,0.01,-0.01
2020-08-12 20:17:13.9760,-0.03,-0.02,0.01
2020-08-12 20:17:14.0750,0.04,-0.04,-0.01
2020-08-12 20:17:14.1740,0.08,-0.11,-0.0
2020-08-12 20:17:14.2740,0.28,-0.37,-0.04
2020-08-12 20:17:14.3730,0.18,-0.42,0.1
2020-08-12 20:17:14.4720,0.22,0.23,0.12
2020-08-12 20:17:14.5710,0.53,0.24,-0.08
2020-08-12 20:17:14.6710,0.18,-0.1,-0.04
2020-08-12 20:17:14.7700,-0.09,-0.16,0.08
2020-08-12 20:17:14.8690,-0.34,-0.22,0.13
2020-08-12 20:17:14.9680,-0.61,-0.04,0.12
2020-08-12 20:17:15.0680,-0.72,-0.01,0.0
2020-08-12 20:17:15.1670,1.13,-0.12,-0.14
2020-08-12 20:17:15.2660,-0.36,-0.07,-0.2
2020-08-12 20:17:15.3660,-0.13,0.01,0.02
2020-08-12 20:17:15.4650,0.03,-0.0,0.07
2020-08-12 20:17:15.5640,-0.01,0.0,0.07
2020-08-12 20:17:15.6630,0.01,-0.02,-0.03
2020-08-12 20:17:15.7630,0.01,0.0,0.02
2020-08-12 20:17:15.8620,0.02,0.03,-0.03
2020-08-12 20:17:15.9610,0.06,0.02,0.02
2020-08-12 20:17:16.0600,0.08,-0.06,0.01
2020-08-12 20:17:16.1600,0.14,-0.28,0.08
2020-08-12 20:17:16.2590,0.34,-0.38,-0.06
2020-08-12 20:17:16.3580,0.2,-0.24,0.1
2020-08-12 20:17:16.4570,0.73,0.18,-0.05
2020-08-12 20:17:16.5570,0.52,0.22,-0.1
2020-08-12 20:17:16.6560,0.12,-0.18,-0.03
2020-08-12 20:17:16.7550,-0.28,-0.25,0.13
2020-08-12 20:17:16.8540,-0.46,-0.21,0.12
2020-08-12 20:17:16.9540,-0.87,-0.01,0.09
2020-08-12 20:17:17.0530,1.29,-0.16,-0.07
2020-08-12 20:17:17.1520,-0.14,0.11,0.24
2020-08-12 20:17:17.2520,-0.1,-0.05,-0.0
2020-08-12 20:17:17.3510,-0.11,-0.08,0.01
2020-08-12 20:17:17.4500,-0.05,-0.01,0.02
2020-08-12 20:17:17.5490,0.0,-0.0,0.02
2020-08-12 20:17:17.6490,0.04,0.01,0.02
2020-08-12 20:17:17.7480,-0.01,0.0,0.0
2020-08-12 20:17:17.8470,0.01,-0.03,0.03
2020-08-12 20:17:17.9460,0.1,-0.24,0.03
2020-08-12 20:17:18.0460,0.29,-0.4,-0.05
2020-08-12 20:17:18.1450,0.2,-0.17,0.16
2020-08-12 20:17:18.2440,0.79,0.16,-0.05
2020-08-12 20:17:18.3440,0.53,0.17,-0.09
2020-08-12 20:17:18.4430,0.12,-0.23,0.04
2020-08-12 20:17:18.5420,-0.2,-0.26,0.06
2020-08-12 20:17:18.6410,-0.55,-0.22,0.14
2020-08-12 20:17:18.7410,-0.92,-0.04,0.12
2020-08-12 20:17:18.8400,1.14,-0.08,-0.12
2020-08-12 20:17:18.9390,-0.59,0.02,-0.02
2020-08-12 20:17:19.0380,-0.18,-0.05,-0.0
2020-08-12 20:17:19.1380,-0.04,-0.02,0.03
2020-08-12 20:17:19.2370,-0.02,0.0,0.02
2020-08-12 20:17:19.3360,0.01,-0.03,0.02
2020-08-12 20:17:19.4360,0.05,0.02,-0.0
2020-08-12 20:17:19.5350,-0.07,-0.03,-0.01
2020-08-12 20:17:19.6340,-0.04,-0.05,0.03
2020-08-12 20:17:19.7330,0.03,-0.04,0.04
2020-08-12 20:17:19.8330,0.08,-0.22,0.11
2020-08-12 20:17:19.9320,0.13,-0.31,-0.07
2020-08-12 20:17:20.0310,0.19,-0.23,0.13
2020-08-12 20:17:20.1300,0.27,0.0,0.2
2020-08-12 20:17:20.2300,0.61,0.3,-0.13
2020-08-12 20:17:20.3290,0.36,0.0,-0.07
2020-08-12 20:17:20.4280,-0.04,-0.18,0.01
2020-08-12 20:17:20.5280,-0.44,-0.35,0.14
2020-08-12 20:17:20.6270,-0.87,-0.1,0.07
2020-08-12 20:17:20.7260,-0.11,-0.04,-0.07
2020-08-12 20:17:20.8250,-0.4,-0.18,-0.34
2020-08-12 20:17:20.9250,-0.19,-0.04,0.01
2020-08-12 20:17:21.0240,-0.07,-0.03,0.02
2020-08-12 20:17:21.1230,-0.02,-0.02,0.05
2020-08-12 20:17:21.2220,0.02,-0.02,0.0
2020-08-12 20:17:21.3220,0.06,0.05,-0.01
2020-08-12 20:17:21.4210,0.05,-0.02,0.02
2020-08-12 20:17:21.5200,0.05,-0.07,-0.0
2020-08-12 20:17:21.6200,0.08,-0.13,0.02
2020-08-12 20:17:21.7190,0.25,-0.47,-0.05
2020-08-12 20:17:21.8180,0.28,-0.34,0.07
2020-08-12 20:17:21.9170,0.66,0.13,0.07
2020-08-12 20:17:22.0170,0.54,0.3,-0.09
2020-08-12 20:17:22.1160,0.13,-0.15,-0.08
2020-08-12 20:17:22.2150,-0.32,-0.29,0.13
2020-08-12 20:17:22.3140,-0.56,-0.22,0.14
2020-08-12 20:17:22.4140,-0.92,-0.02,0.22
2020-08-12 20:17:22.5130,1.0,-0.14,-0.46
2020-08-12 20:17:22.6120,-0.4,0.18,0.18
2020-08-12 20:17:22.7110,-0.28,-0.09,-0.02
2020-08-12 20:17:22.8110,-0.07,-0.01,0.06
2020-08-12 20:17:22.9100,-0.02,0.02,0.05
2020-08-12 20:17:23.0090,-0.01,-0.01,-0.0
2020-08-12 20:17:23.1090,-0.01,-0.01,-0.0
2020-08-12 20:17:23.2080,-0.01,-0.0,0.04
2020-08-12 20:17:23.3070,0.01,-0.04,0.0
2020-08-12 20:17:23.4060,0.08,-0.15,0.02
2020-08-12 20:17:23.5060,0.19,-0.35,-0.04
2020-08-12 20:17:23.6050,0.23,-0.31,0.11
2020-08-12 20:17:23.7040,0.54,0.12,0.13
2020-08-12 20:17:23.8030,0.62,0.25,-0.12
2020-08-12 20:17:23.9030,0.17,-0.18,-0.05
2020-08-12 20:17:24.0020,-0.26,-0.28,0.09
2020-08-12 20:17:24.1010,-0.63,-0.21,0.11
2020-08-12 20:17:24.2000,-0.79,0.0,0.07
2020-08-12 20:17:24.3000,0.47,-0.04,-0.13
2020-08-12 20:17:24.3990,-0.31,0.2,-0.09
2020-08-12 20:17:24.4980,-0.13,-0.05,0.02
2020-08-12 20:17:24.5980,0.0,-0.0,0.04
2020-08-12 20:17:24.6970,0.0,-0.01,0.04
2020-08-12 20:17:24.7960,0.02,-0.02,0.0
2020-08-12 20:17:24.8960,0.02,-0.01,-0.01
2020-08-12 20:17:24.9950,0.01,-0.02,0.0
2020-08-12 20:17:25.0940,0.02,-0.03,0.02
2020-08-12 20:17:25.1930,0.07,-0.1,0.0
2020-08-12 20:17:25.2920,0.25,-0.41,-0.1
2020-08-12 20:17:25.3920,0.17,-0.21,0.08
2020-08-12 20:17:25.4910,0.54,0.16,0.09
2020-08-12 20:17:25.5900,0.48,0.26,-0.01
2020-08-12 20:17:25.6900,0.2,-0.12,-0.04
2020-08-12 20:17:25.7890,-0.15,-0.18,0.07
2020-08-12 20:17:25.8880,-0.47,-0.2,0.14
2020-08-12 20:17:25.9870,-0.75,-0.12,0.06
2020-08-12 20:17:26.0870,-0.35,-0.12,-0.14
2020-08-12 20:17:26.1860,-0.16,-0.45,0.02
2020-08-12 20:17:26.2850,0.02,0.05,0.15
2020-08-12 20:17:26.3840,0.0,-0.02,0.09
2020-08-12 20:17:26.4840,0.0,0.01,0.04
2020-08-12 20:17:26.5830,0.03,-0.02,0.01
2020-08-12 20:17:26.6820,0.02,-0.01,-0.01
2020-08-12 20:17:26.7810,-0.01,0.01,-0.01
2020-08-12 20:17:26.8810,-0.0,-0.02,0.0
2020-08-12 20:17:26.9800,0.04,-0.06,-0.0
2020-08-12 20:17:27.0790,0.17,-0.34,0.13
2020-08-12 20:17:27.1790,0.34,-0.4,-0.02
2020-08-12 20:17:27.2780,0.03,-0.15,0.13
2020-08-12 20:17:27.3770,0.63,0.28,-0.18
2020-08-12 20:17:27.4760,0.36,0.19,-0.07
2020-08-12 20:17:27.5760,-0.02,-0.22,0.04
2020-08-12 20:17:27.6750,-0.28,-0.21,0.06
2020-08-12 20:17:27.7740,-0.57,-0.12,0.19
2020-08-12 20:17:27.8750,-0.71,-0.01,-0.0
2020-08-12 20:17:27.9730,1.2,-0.13,-0.16
2020-08-12 20:17:28.0720,-0.25,0.06,0.26
2020-08-12 20:17:28.1710,-0.11,-0.03,-0.02
2020-08-12 20:17:28.2700,-0.02,-0.05,0.01
2020-08-12 20:17:28.3700,-0.05,0.0,0.02
2020-08-12 20:17:28.4690,-0.01,-0.02,0.02
2020-08-12 20:17:28.5680,0.04,-0.01,0.02
2020-08-12 20:17:28.6680,-0.02,-0.01,-0.01
2020-08-12 20:17:28.7670,-0.03,0.01,0.01
2020-08-12 20:17:28.8660,-0.01,-0.04,-0.02
2020-08-12 20:17:28.9650,0.1,-0.18,-0.04
2020-08-12 20:17:29.0650,0.22,-0.21,-0.04
2020-08-12 20:17:29.1640,0.18,-0.16,0.1
2020-08-12 20:17:29.2630,0.71,0.08,-0.07
2020-08-12 20:17:29.3620,0.52,0.16,-0.1
2020-08-12 20:17:29.4620,0.11,-0.08,-0.04
2020-08-12 20:17:29.5610,-0.23,-0.33,0.06
2020-08-12 20:17:29.6600,-0.47,-0.23,0.13
2020-08-12 20:17:29.7600,-0.76,0.0,0.07
2020-08-12 20:17:29.8590,0.88,-0.54,-0.33
2020-08-12 20:17:29.9580,0.13,-0.08,0.19
2020-08-12 20:17:30.0570,-0.01,-0.02,-0.0
2020-08-12 20:17:30.1570,0.04,-0.03,-0.0
2020-08-12 20:17:30.2560,-0.0,0.01,-0.03
2020-08-12 20:17:30.3550,-0.0,0.0,-0.01
2020-08-12 20:17:30.4540,-0.01,0.01,0.0
2020-08-12 20:17:30.5540,-0.01,-0.01,-0.01
2020-08-12 20:17:30.6530,-0.01,-0.03,0.01
2020-08-12 20:17:30.7520,0.04,-0.1,-0.0
2020-08-12 20:17:30.8520,0.29,-0.48,-0.03
2020-08-12 20:17:30.9510,0.16,-0.37,0.19
2020-08-12 20:17:31.0500,0.78,0.22,-0.02
2020-08-12 20:17:31.1490,0.42,0.28,0.03
2020-08-12 20:17:31.2490,0.17,-0.07,-0.08
2020-08-12 20:17:31.3480,-0.23,-0.15,-0.02
2020-08-12 20:17:31.4470,-0.45,-0.27,-0.12
2020-08-12 20:17:31.5460,-0.75,-0.1,-0.01
2020-08-12 20:17:31.6460,-0.34,-0.04,0.24
2020-08-12 20:17:31.7450,-0.6,0.04,-0.42
2020-08-12 20:17:31.8440,-0.24,-0.01,0.08
2020-08-12 20:17:31.9440,-0.08,-0.03,0.04
2020-08-12 20:17:32.0430,-0.06,0.0,0.02
2020-08-12 20:17:32.1420,0.01,-0.01,-0.01
2020-08-12 20:17:32.2410,0.01,-0.02,-0.01
2020-08-12 20:17:32.3400,0.0,0.0,0.03
2020-08-12 20:17:32.4400,-0.02,0.0,0.01
2020-08-12 20:17:32.5390,0.07,-0.06,0.02
2020-08-12 20:17:32.6380,0.25,-0.36,0.1
2020-08-12 20:17:32.7380,0.25,-0.49,0.02
2020-08-12 20:17:32.8370,0.11,0.07,0.02
2020-08-12 20:17:32.9360,0.42,0.16,-0.1
2020-08-12 20:17:33.0350,0.33,0.09,-0.1
2020-08-12 20:17:33.1350,0.17,0.04,0.02
2020-08-12 20:17:33.2340,-0.1,-0.05,0.04
2020-08-12 20:17:33.3330,-0.38,-0.2,0.09
2020-08-12 20:17:33.4330,-0.71,-0.15,0.14
2020-08-12 20:17:33.5320,-0.85,-0.04,-0.06
2020-08-12 20:17:33.6310,-0.65,0.05,-0.2
2020-08-12 20:17:33.7300,-0.17,-0.05,0.05
2020-08-12 20:17:33.8300,-0.03,-0.02,0.04
2020-08-12 20:17:33.9290,0.01,0.01,-0.02
2020-08-12 20:17:34.0280,-0.05,-0.04,-0.03
2020-08-12 20:17:34.1270,-0.03,0.01,0.01
2020-08-12 20:17:34.2270,-0.04,0.0,0.01
2020-08-12 20:17:34.3260,-0.03,-0.03,0.01
2020-08-12 20:17:34.4250,0.03,-0.09,0.02
2020-08-12 20:17:34.5240,0.12,-0.35,-0.01
2020-08-12 20:17:34.6240,0.35,-0.27,0.09
2020-08-12 20:17:34.7230,0.18,0.01,0.15
2020-08-12 20:17:34.8220,0.53,0.24,-0.05
2020-08-12 20:17:34.9220,0.21,0.03,-0.06
2020-08-12 20:17:35.0210,0.05,-0.05,-0.01
2020-08-12 20:17:35.1200,-0.24,-0.16,0.04
2020-08-12 20:17:35.2190,-0.5,-0.18,0.08
2020-08-12 20:17:35.3190,-0.88,-0.02,0.2
2020-08-12 20:17:35.4180,1.14,-0.1,-0.18
2020-08-12 20:17:35.5170,-0.35,0.08,0.3
2020-08-12 20:17:35.6170,-0.07,-0.03,-0.04
2020-08-12 20:17:35.7160,0.06,-0.01,0.02
2020-08-12 20:17:35.8150,0.01,0.01,0.03
2020-08-12 20:17:35.9140,0.02,-0.02,0.03
2020-08-12 20:17:36.0130,0.0,-0.02,0.01
2020-08-12 20:17:36.1130,-0.03,0.01,-0.0
2020-08-12 20:17:36.2120,0.03,-0.04,0.0
2020-08-12 20:17:36.3110,0.05,-0.1,-0.0
2020-08-12 20:17:36.4110,0.14,-0.35,-0.03
2020-08-12 20:17:36.5100,0.31,-0.29,0.02
2020-08-12 20:17:36.6090,0.1,-0.1,0.06
2020-08-12 20:17:36.7080,0.52,0.27,-0.09
2020-08-12 20:17:36.8080,0.37,0.17,-0.09
2020-08-12 20:17:36.9070,0.11,-0.07,-0.04
2020-08-12 20:17:37.0060,-0.24,-0.26,0.01
2020-08-12 20:17:37.1060,-0.54,-0.27,0.17
2020-08-12 20:17:37.2050,-0.82,-0.04,0.1
2020-08-12 20:17:37.3040,1.01,-0.05,-0.22
2020-08-12 20:17:37.4030,-0.36,0.14,0.38
2020-08-12 20:17:37.5030,-0.27,-0.07,0.01
2020-08-12 20:17:37.6020,-0.03,-0.02,0.02
2020-08-12 20:17:37.7010,-0.03,-0.0,-0.0
2020-08-12 20:17:37.8000,-0.01,-0.01,-0.03
2020-08-12 20:17:37.9000,-0.0,-0.01,-0.02
2020-08-12 20:17:37.9990,-0.04,-0.0,-0.0
2020-08-12 20:17:38.0980,0.0,-0.02,0.0
2020-08-12 20:17:38.1970,-0.01,-0.07,0.03
2020-08-12 20:17:38.2970,0.11,-0.31,0.04
2020-08-12 20:17:38.3960,0.43,-0.43,-0.1
2020-08-12 20:17:38.4950,0.02,0.06,0.16
2020-08-12 20:17:38.5950,0.52,0.17,-0.06
2020-08-12 20:17:38.6940,0.42,0.18,-0.1
2020-08-12 20:17:38.7930,0.09,-0.02,0.02
2020-08-12 20:17:38.8920,-0.11,-0.05,-0.05
2020-08-12 20:17:38.9920,-0.39,-0.26,0.12
2020-08-12 20:17:39.0910,-0.74,-0.09,0.15
2020-08-12 20:17:39.1900,-0.22,-0.05,-0.26
2020-08-12 20:17:39.2890,-0.39,0.16,-0.27
2020-08-12 20:17:39.3890,-0.21,-0.07,0.06
2020-08-12 20:17:39.4880,-0.01,-0.02,0.05
2020-08-12 20:17:39.5870,-0.02,0.0,0.02
2020-08-12 20:17:39.6870,-0.01,-0.02,-0.0
2020-08-12 20:17:39.7860,-0.0,-0.01,-0.02
2020-08-12 20:17:39.8850,0.01,-0.01,0.01
2020-08-12 20:17:39.9840,0.03,-0.05,0.04
2020-08-12 20:17:40.0840,0.07,-0.08,0.02
2020-08-12 20:17:40.1830,0.26,-0.44,-0.04
2020-08-12 20:17:40.2820,0.26,-0.23,0.13
2020-08-12 20:17:40.3810,0.61,0.26,0.06
2020-08-12 20:17:40.4810,0.49,0.24,-0.06
2020-08-12 20:17:40.5800,0.22,-0.09,-0.05
2020-08-12 20:17:40.6790,-0.1,-0.22,0.06
2020-08-12 20:17:40.7790,-0.36,-0.27,0.01
2020-08-12 20:17:40.8780,-0.74,-0.05,0.1
2020-08-12 20:17:40.9770,-0.68,0.0,0.08
2020-08-12 20:17:41.0760,-0.1,-0.47,-0.05
2020-08-12 20:17:41.1760,0.13,0.03,0.09
2020-08-12 20:17:41.2750,-0.04,-0.03,-0.02
2020-08-12 20:17:41.3740,-0.02,-0.03,0.01
2020-08-12 20:17:41.4730,0.01,-0.0,0.01
2020-08-12 20:17:41.5730,0.01,0.0,0.0
2020-08-12 20:17:41.6720,0.0,0.01,-0.01
2020-08-12 20:17:41.7710,0.01,-0.03,0.02
2020-08-12 20:17:41.8700,0.01,-0.04,0.02
2020-08-12 20:17:41.9700,0.12,-0.2,-0.03
2020-08-12 20:17:42.0690,0.29,-0.52,0.06
2020-08-12 20:17:42.1680,0.11,-0.13,0.19
2020-08-12 20:17:42.2670,0.62,0.31,-0.13
2020-08-12 20:17:42.3670,0.33,0.17,-0.14
2020-08-12 20:17:42.4660,-0.06,-0.14,0.03
2020-08-12 20:17:42.5650,-0.21,-0.09,0.16
2020-08-12 20:17:42.6640,-0.31,-0.11,0.04
2020-08-12 20:17:42.7640,-0.55,-0.08,0.11
2020-08-12 20:17:42.8630,-0.69,-0.05,0.06
2020-08-12 20:17:42.9620,-0.15,-0.47,0.18
2020-08-12 20:17:43.0620,0.15,0.02,0.09
2020-08-12 20:17:43.1610,0.12,-0.02,0.01
2020-08-12 20:17:43.2600,0.01,-0.03,-0.0
2020-08-12 20:17:43.3590,-0.06,-0.02,-0.04
2020-08-12 20:17:43.4590,0.03,-0.0,0.03
2020-08-12 20:17:43.5580,0.0,0.01,-0.02
2020-08-12 20:17:43.6570,-0.04,0.01,-0.01
2020-08-12 20:17:43.7560,0.05,-0.03,0.04
2020-08-12 20:17:43.8560,0.04,-0.12,-0.04
2020-08-12 20:17:43.9550,0.25,-0.45,-0.05
2020-08-12 20:17:44.0540,0.21,-0.32,0.08
2020-08-12 20:17:44.1540,0.56,0.08,-0.03
2020-08-12 20:17:44.2530,0.48,0.23,-0.09
2020-08-12 20:17:44.3520,0.15,-0.06,-0.02
2020-08-12 20:17:44.4510,-0.13,-0.16,0.07
2020-08-12 20:17:44.5500,-0.45,-0.21,0.18
2020-08-12 20:17:44.6500,-0.63,-0.1,0.02
2020-08-12 20:17:44.7490,-0.78,-0.02,0.11
2020-08-12 20:17:44.8480,-0.41,-0.49,0.38
2020-08-12 20:17:44.9480,0.15,0.04,0.11
2020-08-12 20:17:45.0470,0.05,-0.03,-0.01
2020-08-12 20:17:45.1460,0.03,0.0,0.01
2020-08-12 20:17:45.2460,0.07,0.04,0.0
2020-08-12 20:17:45.3450,-0.12,-0.05,-0.05
2020-08-12 20:17:45.4440,-0.01,0.01,-0.02
2020-08-12 20:17:45.5430,0.02,-0.03,0.0
2020-08-12 20:17:45.6430,0.03,-0.06,0.02
2020-08-12 20:17:45.7420,0.12,-0.25,0.04
2020-08-12 20:17:45.8410,0.38,-0.54,0.01
2020-08-12 20:17:45.9400,0.12,-0.07,0.09
2020-08-12 20:17:46.0400,0.66,0.2,-0.16
2020-08-12 20:17:46.1390,0.42,0.16,-0.09
2020-08-12 20:17:46.2380,0.09,-0.13,0.02
2020-08-12 20:17:46.3370,-0.22,-0.21,0.05
2020-08-12 20:17:46.4370,-0.48,-0.25,0.09
2020-08-12 20:17:46.5360,-0.78,-0.05,0.01
2020-08-12 20:17:46.6350,0.25,-0.08,0.02
2020-08-12 20:17:46.7350,-0.43,-0.05,-0.16
2020-08-12 20:17:46.8340,-0.19,-0.07,-0.06
2020-08-12 20:17:46.9330,-0.01,-0.02,-0.0
2020-08-12 20:17:47.0320,-0.04,0.01,0.02
2020-08-12 20:17:47.1320,-0.0,-0.01,0.02
2020-08-12 20:17:47.2310,-0.02,-0.0,-0.01
2020-08-12 20:17:47.3300,-0.01,0.01,-0.01
2020-08-12 20:17:47.4290,-0.02,-0.03,0.01
2020-08-12 20:17:47.5290,0.05,-0.07,0.01
2020-08-12 20:17:47.6280,0.21,-0.38,0.01
2020-08-12 20:17:47.7270,0.47,-0.49,0.04
2020-08-12 20:17:47.8270,0.25,0.29,0.12
2020-08-12 20:17:47.9260,0.53,0.25,-0.03
2020-08-12 20:17:48.0250,0.23,-0.02,-0.08
2020-08-12 20:17:48.1240,-0.1,-0.19,0.08
2020-08-12 20:17:48.2230,-0.33,-0.17,0.09
2020-08-12 20:17:48.3230,-0.48,-0.1,0.14
2020-08-12 20:17:48.4220,-0.75,-0.01,0.11
2020-08-12 20:17:48.5210,-0.03,-0.44,-0.29
2020-08-12 20:17:48.6210,0.06,-0.03,0.07
2020-08-12 20:17:48.7200,-0.02,-0.02,-0.0
2020-08-12 20:17:48.8190,0.0,-0.02,0.02
2020-08-12 20:17:48.9190,-0.02,-0.01,-0.01
2020-08-12 20:17:49.0180,0.06,-0.0,0.0
2020-08-12 20:17:49.1170,-0.04,-0.0,-0.04
2020-08-12 20:17:49.2160,0.01,-0.01,0.01
2020-08-12 20:17:49.3160,0.04,-0.05,0.03
2020-08-12 20:17:49.4150,0.12,-0.3,0.06
2020-08-12 20:17:49.5140,0.32,-0.47,-0.0
2020-08-12 20:17:49.6130,0.12,-0.05,0.08
2020-08-12 20:17:49.7130,0.61,0.23,-0.06
2020-08-12 20:17:49.8120,0.47,0.11,-0.05
2020-08-12 20:17:49.9110,0.08,-0.17,-0.0
2020-08-12 20:17:50.0110,-0.35,-0.3,0.11
2020-08-12 20:17:50.1100,-0.53,-0.11,0.03
2020-08-12 20:17:50.2090,-0.86,-0.05,0.14
2020-08-12 20:17:50.3080,0.56,-0.54,-0.49
2020-08-12 20:17:50.4070,0.03,0.02,0.26
2020-08-12 20:17:50.5070,0.01,-0.03,-0.02
2020-08-12 20:17:50.6060,0.03,-0.01,0.01
2020-08-12 20:17:50.7050,0.01,-0.01,0.02
2020-08-12 20:17:50.8040,0.02,-0.01,0.0
2020-08-12 20:17:50.9040,0.0,0.03,-0.01
2020-08-12 20:17:51.0030,-0.01,-0.01,0.03
2020-08-12 20:17:51.1020,0.08,-0.07,0.01
2020-08-12 20:17:51.2020,0.16,-0.3,-0.08
2020-08-12 20:17:51.3010,0.34,-0.34,0.03
2020-08-12 20:17:51.4000,0.22,-0.02,0.04
2020-08-12 20:17:51.5000,0.83,0.24,-0.12
2020-08-12 20:17:51.5990,0.46,0.17,-0.07
2020-08-12 20:17:51.6980,0.03,-0.25,0.02
2020-08-12 20:17:51.7970,-0.33,-0.29,0.11
2020-08-12 20:17:51.8970,-0.49,-0.17,0.12
2020-08-12 20:17:51.9960,-0.67,0.03,0.05
2020-08-12 20:17:52.0950,-0.3,-0.02,-0.17
2020-08-12 20:17:52.1940,-0.34,0.12,-0.19
2020-08-12 20:17:52.2940,-0.17,-0.06,-0.05
2020-08-12 20:17:52.3930,-0.0,-0.02,0.01
2020-08-12 20:17:52.4920,-0.03,0.03,0.01
2020-08-12 20:17:52.5910,0.05,-0.02,0.03
2020-08-12 20:17:52.6910,-0.02,-0.0,0.02
2020-08-12 20:17:52.7900,0.02,-0.02,-0.0
2020-08-12 20:17:52.8890,0.04,-0.04,0.01
2020-08-12 20:17:52.9880,0.18,-0.28,-0.04
2020-08-12 20:17:53.0880,0.48,-0.6,0.04
2020-08-12 20:17:53.1870,0.23,0.18,0.1
2020-08-12 20:17:53.2860,0.54,0.37,-0.11
2020-08-12 20:17:53.3860,0.23,-0.11,-0.06
2020-08-12 20:17:53.4850,-0.1,-0.16,0.08
2020-08-12 20:17:53.5840,-0.23,-0.21,0.05
2020-08-12 20:17:53.6830,-0.46,-0.13,0.04
2020-08-12 20:17:53.7830,-0.7,-0.01,0.07
2020-08-12 20:17:53.8820,0.31,-0.03,-0.18
2020-08-12 20:17:53.9810,-0.42,0.1,-0.06
2020-08-12 20:17:54.0810,-0.14,-0.03,-0.03
2020-08-12 20:17:54.1800,-0.03,-0.04,0.03
2020-08-12 20:17:54.2790,0.0,0.02,0.03
2020-08-12 20:17:54.3780,-0.0,0.01,0.02
2020-08-12 20:17:54.4780,0.04,0.02,-0.06
2020-08-12 20:17:54.5770,-0.02,0.01,0.03
2020-08-12 20:17:54.6760,-0.01,-0.03,0.01
2020-08-12 20:17:54.7750,-0.0,-0.07,-0.05
2020-08-12 20:17:54.8740,0.12,-0.33,-0.02
2020-08-12 20:17:54.9740,0.29,-0.32,0.09
2020-08-12 20:17:55.0730,0.11,-0.03,0.18
2020-08-12 20:17:55.1720,0.48,0.11,0.02
2020-08-12 20:17:55.2720,0.29,0.07,-0.1
2020-08-12 20:17:55.3710,0.1,0.07,-0.08
2020-08-12 20:17:55.4700,-0.18,-0.12,0.02
2020-08-12 20:17:55.5700,-0.62,-0.25,0.2
2020-08-12 20:17:55.6690,-0.9,-0.03,0.1
2020-08-12 20:17:55.7680,1.29,-0.1,-0.19
2020-08-12 20:17:55.8670,-0.42,0.09,0.1
2020-08-12 20:17:55.9670,-0.18,-0.08,0.0
2020-08-12 20:17:56.0660,-0.01,-0.04,-0.0
2020-08-12 20:17:56.1650,-0.05,-0.01,0.01
2020-08-12 20:17:56.2640,0.02,-0.02,0.01
2020-08-12 20:17:56.3640,0.0,0.03,-0.0
2020-08-12 20:17:56.4630,-0.04,0.02,0.01
2020-08-12 20:17:56.5620,0.03,-0.02,-0.0
2020-08-12 20:17:56.6610,0.03,-0.09,0.02
2020-08-12 20:17:56.7610,0.32,-0.4,0.01
2020-08-12 20:17:56.8600,0.22,-0.35,0.07
2020-08-12 20:17:56.9590,0.58,0.14,-0.08
2020-08-12 20:17:57.0590,0.5,0.22,-0.15
2020-08-12 20:17:57.1580,0.03,-0.03,0.03
2020-08-12 20:17:57.2570,-0.01,-0.1,0.03
2020-08-12 20:17:57.3560,-0.24,-0.16,0.07
2020-08-12 20:17:57.4560,-0.47,-0.15,0.16
2020-08-12 20:17:57.5550,-0.79,-0.01,0.13
2020-08-12 20:17:57.6540,0.94,-0.14,-0.47
2020-08-12 20:17:57.7530,-0.79,-0.01,0.14
2020-08-12 20:17:57.8530,-0.27,-0.04,0.08
2020-08-12 20:17:57.9520,-0.0,-0.03,0.03
2020-08-12 20:17:58.0510,-0.02,-0.0,0.01
2020-08-12 20:17:58.1510,0.03,0.0,0.0
2020-08-12 20:17:58.2500,0.01,-0.02,-0.0
2020-08-12 20:17:58.3490,-0.07,-0.0,0.0
2020-08-12 20:17:58.4480,-0.03,-0.06,0.0
2020-08-12 20:17:58.5480,0.02,-0.12,0.02
2020-08-12 20:17:58.6470,0.35,-0.36,-0.02
2020-08-12 20:17:58.7460,0.13,-0.37,0.17
2020-08-12 20:17:58.8450,0.63,0.24,-0.1
2020-08-12 20:17:58.9450,0.47,0.21,-0.18
2020-08-12 20:17:59.0440,0.1,-0.1,0.01
2020-08-12 20:17:59.1430,-0.03,-0.17,0.04
2020-08-12 20:17:59.2420,-0.28,-0.19,0.11
2020-08-12 20:17:59.3420,-0.57,-0.08,0.1
2020-08-12 20:17:59.4410,-0.82,-0.02,0.12
2020-08-12 20:17:59.5400,0.99,-0.13,-0.43
2020-08-12 20:17:59.6400,-0.66,0.01,0.1
2020-08-12 20:17:59.7390,-0.18,-0.06,0.01
2020-08-12 20:17:59.8380,-0.02,-0.01,0.01
2020-08-12 20:17:59.9370,0.02,0.02,0.05
2020-08-12 20:18:00.0370,0.04,-0.01,-0.01
2020-08-12 20:18:00.1360,0.0,0.01,-0.01
2020-08-12 20:18:00.2350,-0.1,-0.02,0.05
2020-08-12 20:18:00.3340,-0.0,-0.06,0.02
2020-08-12 20:18:00.4340,-0.0,-0.07,0.01
2020-08-12 20:18:00.5330,0.17,-0.27,0.13
2020-08-12 20:18:00.6320,0.39,-0.34,0.01
2020-08-12 20:18:00.7310,0.19,-0.04,-0.01
2020-08-12 20:18:00.8310,0.51,0.12,-0.05
2020-08-12 20:18:00.9300,0.29,0.03,0.0
2020-08-12 20:18:01.0290,0.08,0.01,-0.0
2020-08-12 20:18:01.1290,-0.22,-0.17,0.08
2020-08-12 20:18:01.2280,-0.53,-0.2,0.23
2020-08-12 20:18:01.3270,-0.71,-0.03,0.06
2020-08-12 20:18:01.4260,0.46,-0.15,-0.42
2020-08-12 20:18:01.5260,-0.26,-0.35,-0.03
2020-08-12 20:18:01.6250,-0.16,-0.02,-0.02
2020-08-12 20:18:01.7240,-0.06,-0.02,0.06
2020-08-12 20:18:01.8230,-0.04,0.01,0.03
2020-08-12 20:18:01.9230,0.0,0.0,0.03
2020-08-12 20:18:02.0220,0.04,0.0,-0.0
2020-08-12 20:18:02.1210,-0.03,-0.0,-0.02
2020-08-12 20:18:02.2200,0.01,-0.02,-0.02
2020-08-12 20:18:02.3200,0.04,-0.02,0.03
2020-08-12 20:18:02.4190,0.11,-0.22,-0.14
2020-08-12 20:18:02.5190,0.18,-0.2,0.01
2020-08-12 20:18:02.6180,0.31,-0.2,0.09
2020-08-12 20:18:02.7170,0.4,0.01,0.07
2020-08-12 20:18:02.8160,0.52,0.22,-0.12
2020-08-12 20:18:02.9150,0.25,0.01,-0.11
2020-08-12 20:18:03.0150,-0.03,-0.24,-0.12
2020-08-12 20:18:03.1140,-0.5,-0.39,0.13
2020-08-12 20:18:03.2130,-1.0,-0.11,0.13
2020-08-12 20:18:03.3120,0.74,-0.03,-0.13
2020-08-12 20:18:03.4120,-0.36,-0.14,-0.08
2020-08-12 20:18:03.5110,-0.1,0.0,0.0
2020-08-12 20:18:03.6100,-0.03,-0.01,0.02
2020-08-12 20:18:03.7090,-0.04,-0.03,0.08
2020-08-12 20:18:03.8090,0.01,-0.01,-0.0
2020-08-12 20:18:03.9080,-0.04,-0.01,-0.02
2020-08-12 20:18:04.0080,-0.03,-0.01,-0.01
2020-08-12 20:18:04.1070,-0.01,-0.01,0.02
2020-08-12 20:18:04.2060,0.07,-0.04,0.01
2020-08-12 20:18:04.3050,0.09,-0.22,0.0
2020-08-12 20:18:04.4050,0.2,-0.27,-0.07
2020-08-12 20:18:04.5040,0.24,-0.1,0.06
2020-08-12 20:18:04.6030,0.55,0.03,-0.02
2020-08-12 20:18:04.7020,0.55,0.15,-0.08
2020-08-12 20:18:04.8010,0.21,-0.1,0.01
2020-08-12 20:18:04.9010,-0.11,-0.19,0.07
2020-08-12 20:18:05.0000,-0.32,-0.21,0.06
2020-08-12 20:18:05.0990,-0.67,-0.09,0.17
2020-08-12 20:18:05.1980,-0.78,0.01,0.09
2020-08-12 20:18:05.2980,-0.72,-0.39,0.18
2020-08-12 20:18:05.3970,0.11,0.08,0.1
2020-08-12 20:18:05.4960,-0.04,0.0,0.02
2020-08-12 20:18:05.5960,-0.01,-0.0,0.01
2020-08-12 20:18:05.6950,-0.02,0.0,0.02
2020-08-12 20:18:05.7940,0.01,-0.02,0.01
2020-08-12 20:18:05.8940,-0.02,-0.01,-0.04
2020-08-12 20:18:05.9930,-0.04,-0.02,0.01
2020-08-12 20:18:06.0920,-0.06,-0.06,-0.01
2020-08-12 20:18:06.1910,0.02,-0.06,0.08
2020-08-12 20:18:06.2910,0.09,-0.28,-0.13
2020-08-12 20:18:06.3900,0.24,-0.22,0.13
2020-08-12 20:18:06.4890,0.09,-0.01,0.11
2020-08-12 20:18:06.5880,0.45,0.17,-0.12
2020-08-12 20:18:06.6880,0.31,0.06,-0.07
2020-08-12 20:18:06.7870,0.13,-0.07,-0.02
2020-08-12 20:18:06.8860,-0.07,-0.09,0.05
2020-08-12 20:18:06.9850,-0.24,-0.09,0.15
2020-08-12 20:18:07.0850,-0.52,-0.07,0.09
2020-08-12 20:18:07.1840,-0.75,-0.08,-0.03
2020-08-12 20:18:07.2830,-0.47,-0.32,0.08
2020-08-12 20:18:07.3820,0.0,0.02,0.04
2020-08-12 20:18:07.4820,-0.08,-0.02,0.03
2020-08-12 20:18:07.5810,-0.04,-0.01,0.03
2020-08-12 20:18:07.6800,0.03,-0.01,0.03
2020-08-12 20:18:07.7790,0.01,0.02,-0.0
2020-08-12 20:18:07.8790,-0.07,-0.01,-0.02
2020-08-12 20:18:07.9780,-0.03,-0.01,0.02
2020-08-12 20:18:08.0770,-0.01,-0.0,0.06
2020-08-12 20:18:08.1770,0.04,-0.26,0.06
2020-08-12 20:18:08.2760,0.22,-0.29,-0.11
2020-08-12 20:18:08.3750,0.21,-0.2,0.16
2020-08-12 20:18:08.4740,0.42,-0.07,0.12
2020-08-12 20:18:08.5740,0.51,0.2,-0.11
2020-08-12 20:18:08.6730,0.17,0.01,-0.02
2020-08-12 20:18:08.7720,0.03,-0.01,-0.08
2020-08-12 20:18:08.8710,-0.38,-0.33,0.1
2020-08-12 20:18:08.9710,-0.71,-0.18,0.18
2020-08-12 20:18:09.0700,-0.79,-0.05,0.01
2020-08-12 20:18:09.1690,-0.41,-0.5,0.36
2020-08-12 20:18:09.2690,0.21,0.06,0.01
2020-08-12 20:18:09.3680,0.02,0.01,0.02
2020-08-12 20:18:09.4670,-0.01,-0.02,0.02
2020-08-12 20:18:09.5660,0.02,-0.03,-0.0
2020-08-12 20:18:09.6660,0.02,0.01,-0.02
2020-08-12 20:18:09.7650,-0.01,0.02,0.01
2020-08-12 20:18:09.8640,-0.04,-0.02,0.04
2020-08-12 20:18:09.9630,0.07,-0.03,0.02
2020-08-12 20:18:10.0630,0.14,-0.25,-0.03
2020-08-12 20:18:10.1620,0.26,-0.32,0.03
2020-08-12 20:18:10.2610,0.18,-0.02,0.02
2020-08-12 20:18:10.3610,0.76,0.07,-0.02
2020-08-12 20:18:10.4600,0.53,0.12,-0.07
2020-08-12 20:18:10.5590,0.16,-0.14,0.06
2020-08-12 20:18:10.6590,-0.17,-0.18,0.09
2020-08-12 20:18:10.7580,-0.52,-0.21,0.08
2020-08-12 20:18:10.8570,-0.91,-0.07,0.09
2020-08-12 20:18:10.9560,-0.85,-0.01,0.13
2020-08-12 20:18:11.0550,-0.3,-0.44,0.24
2020-08-12 20:18:11.1550,0.13,0.07,0.04
2020-08-12 20:18:11.2540,0.07,-0.03,-0.01
2020-08-12 20:18:11.3530,0.04,-0.01,0.01
2020-08-12 20:18:11.4530,0.03,-0.0,0.01
2020-08-12 20:18:11.5520,0.03,-0.01,-0.02
2020-08-12 20:18:11.6510,0.01,0.02,-0.01
2020-08-12 20:18:11.7500,-0.01,0.01,0.02
2020-08-12 20:18:11.8500,0.06,-0.04,0.03
2020-08-12 20:18:11.9490,0.11,-0.23,0.03
2020-08-12 20:18:12.0480,0.25,-0.42,0.02
2020-08-12 20:18:12.1470,0.23,-0.19,0.05
2020-08-12 20:18:12.2470,0.6,0.13,0.0
2020-08-12 20:18:12.3460,0.64,0.25,-0.09
2020-08-12 20:18:12.4450,0.1,-0.18,0.07
2020-08-12 20:18:12.5450,-0.3,-0.36,0.04
2020-08-12 20:18:12.6440,-0.55,-0.15,0.16
2020-08-12 20:18:12.7430,-0.67,-0.01,0.09
2020-08-12 20:18:12.8420,-0.56,0.0,-0.06
2020-08-12 20:18:12.9410,-0.14,-0.51,0.19
2020-08-12 20:18:13.0410,-0.07,0.03,0.07
2020-08-12 20:18:13.1400,-0.01,-0.01,0.03
2020-08-12 20:18:13.2390,0.01,-0.02,0.0
2020-08-12 20:18:13.3390,0.04,-0.02,-0.01
2020-08-12 20:18:13.4380,0.03,-0.01,-0.0
2020-08-12 20:18:13.5370,-0.01,-0.02,-0.02
2020-08-12 20:18:13.6360,-0.02,0.0,0.03
2020-08-12 20:18:13.7360,0.03,-0.08,0.04
2020-08-12 20:18:13.8350,0.17,-0.35,-0.06
2020-08-12 20:18:13.9340,0.34,-0.24,0.14
2020-08-12 20:18:14.0330,0.41,-0.1,0.11
2020-08-12 20:18:14.1330,0.49,0.22,-0.07
2020-08-12 20:18:14.2320,0.31,0.11,-0.1
2020-08-12 20:18:14.3310,0.01,-0.05,-0.06
2020-08-12 20:18:14.4310,-0.28,-0.19,0.05
2020-08-12 20:18:14.5300,-0.61,-0.26,0.06
2020-08-12 20:18:14.6290,-1.11,-0.11,0.14
2020-08-12 20:18:14.7290,-0.15,-0.27,-0.02
2020-08-12 20:18:14.8270,-0.08,0.02,0.17
2020-08-12 20:18:14.9270,-0.02,-0.03,-0.05
2020-08-12 20:18:15.0260,0.01,0.01,0.03
2020-08-12 20:18:15.1250,0.0,0.01,0.04
2020-08-12 20:18:15.2250,0.01,-0.01,0.0
2020-08-12 20:18:15.3240,0.02,0.01,-0.02
2020-08-12 20:18:15.4230,-0.01,0.0,0.01
2020-08-12 20:18:15.5230,0.06,-0.05,-0.01
2020-08-12 20:18:15.6220,0.07,-0.12,0.01
2020-08-12 20:18:15.7210,0.21,-0.31,-0.02
2020-08-12 20:18:15.8200,0.26,-0.28,0.09
2020-08-12 20:18:15.9200,0.05,0.03,0.13
2020-08-12 20:18:16.0190,0.51,0.18,-0.04
2020-08-12 20:18:16.1180,0.3,-0.04,-0.12
2020-08-12 20:18:16.2170,0.02,-0.17,0.03
2020-08-12 20:18:16.3170,-0.3,-0.3,0.12
2020-08-12 20:18:16.4160,-0.8,-0.13,0.17
2020-08-12 20:18:16.5150,-0.93,-0.01,0.01
2020-08-12 20:18:16.6140,-0.7,-0.46,0.25
2020-08-12 20:18:16.7140,0.1,0.09,0.06
2020-08-12 20:18:16.8130,0.01,-0.02,0.01
2020-08-12 20:18:16.9120,0.03,0.01,0.01
2020-08-12 20:18:17.0110,-0.04,-0.04,-0.0
2020-08-12 20:18:17.1110,-0.01,-0.01,-0.01
2020-08-12 20:18:17.2100,-0.02,0.01,-0.0
2020-08-12 20:18:17.3090,-0.04,-0.01,0.0
2020-08-12 20:18:17.4090,-0.01,-0.06,0.01
2020-08-12 20:18:17.5080,0.05,-0.23,0.07
2020-08-12 20:18:17.6070,0.25,-0.29,0.03
2020-08-12 20:18:17.7060,0.31,-0.22,0.11
2020-08-12 20:18:17.8060,0.24,0.03,0.18
2020-08-12 20:18:17.9050,0.49,0.26,-0.14
2020-08-12 20:18:18.0040,0.32,0.01,-0.1
2020-08-12 20:18:18.1030,-0.01,-0.17,-0.02
2020-08-12 20:18:18.2030,-0.44,-0.39,0.13
2020-08-12 20:18:18.3020,-0.98,-0.18,0.23
2020-08-12 20:18:18.4010,0.12,-0.07,-0.23
2020-08-12 20:18:18.5010,-0.14,-0.46,0.32
2020-08-12 20:18:18.6000,0.27,-0.03,-0.15
2020-08-12 20:18:18.6990,0.11,-0.04,0.04
2020-08-12 20:18:18.7980,-0.05,-0.0,0.02
2020-08-12 20:18:18.8980,-0.02,0.01,0.01
2020-08-12 20:18:18.9970,0.02,-0.01,-0.01
2020-08-12 20:18:19.0960,-0.05,0.02,-0.01
2020-08-12 20:18:19.1950,-0.03,-0.05,-0.01
2020-08-12 20:18:19.2950,0.03,-0.1,0.06
2020-08-12 20:18:19.3940,0.23,-0.31,-0.08
2020-08-12 20:18:19.4930,0.19,-0.22,0.13
2020-08-12 20:18:19.5930,0.0,-0.12,0.16
2020-08-12 20:18:19.6920,0.58,0.16,-0.12
2020-08-12 20:18:19.7910,0.42,0.15,-0.07
2020-08-12 20:18:19.8900,0.17,0.02,0.01
2020-08-12 20:18:19.9900,-0.21,-0.22,-0.01
2020-08-12 20:18:20.0890,-0.54,-0.26,0.18
2020-08-12 20:18:20.1880,-0.76,-0.11,-0.03
2020-08-12 20:18:20.2870,0.86,-0.05,-0.23
2020-08-12 20:18:20.3870,-0.54,0.08,-0.0
2020-08-12 20:18:20.4860,-0.19,-0.08,-0.01
2020-08-12 20:18:20.5850,-0.08,-0.01,0.06
2020-08-12 20:18:20.6840,-0.08,-0.01,0.04
2020-08-12 20:18:20.7840,0.01,-0.02,0.0
2020-08-12 20:18:20.8830,0.01,-0.0,-0.01
2020-08-12 20:18:20.9820,-0.02,-0.01,0.0
2020-08-12 20:18:21.0820,0.02,-0.04,-0.01
2020-08-12 20:18:21.1810,-0.01,-0.08,-0.03
2020-08-12 20:18:21.2800,0.12,-0.22,-0.02
2020-08-12 20:18:21.3790,0.3,-0.36,0.12
2020-08-12 20:18:21.4790,0.07,-0.12,0.18
2020-08-12 20:18:21.5780,0.48,0.2,-0.11
2020-08-12 20:18:21.6770,0.33,0.12,-0.15
2020-08-12 20:18:21.7760,0.19,0.04,-0.06
2020-08-12 20:18:21.8750,-0.13,-0.16,0.07
2020-08-12 20:18:21.9750,-0.32,-0.16,0.21
2020-08-12 20:18:22.0740,-0.72,-0.15,0.1
2020-08-12 20:18:22.1740,-0.72,-0.05,0.08
2020-08-12 20:18:22.2730,-0.29,-0.28,0.22
2020-08-12 20:18:22.3720,0.23,0.06,-0.07
2020-08-12 20:18:22.4710,0.03,-0.0,0.01
2020-08-12 20:18:22.5700,0.05,-0.04,-0.01
2020-08-12 20:18:22.6700,-0.05,0.01,0.03
2020-08-12 20:18:22.7690,0.01,-0.0,0.03
2020-08-12 20:18:22.8680,-0.01,-0.01,-0.01
2020-08-12 20:18:22.9680,-0.02,-0.03,0.03
2020-08-12 20:18:23.0670,0.02,-0.1,-0.02
2020-08-12 20:18:23.1660,0.28,-0.41,-0.0
2020-08-12 20:18:23.2650,0.3,-0.26,0.06
2020-08-12 20:18:23.3650,0.53,0.15,0.01
2020-08-12 20:18:23.4640,0.43,0.21,-0.02
2020-08-12 20:18:23.5630,0.18,-0.04,-0.06
2020-08-12 20:18:23.6630,-0.07,-0.1,0.0
2020-08-12 20:18:23.7620,-0.34,-0.26,0.05
2020-08-12 20:18:23.8610,-0.77,-0.05,0.12
2020-08-12 20:18:23.9600,-0.78,-0.02,0.13
2020-08-12 20:18:24.0600,-0.31,-0.42,0.3
2020-08-12 20:18:24.1590,0.24,0.05,-0.01
2020-08-12 20:18:24.2580,0.03,-0.02,0.01
2020-08-12 20:18:24.3570,0.04,-0.01,0.01
2020-08-12 20:18:24.4570,0.01,-0.06,-0.03
2020-08-12 20:18:24.5560,-0.04,-0.0,-0.01
2020-08-12 20:18:24.6550,-0.01,-0.01,0.0
2020-08-12 20:18:24.7540,0.03,-0.02,0.02
2020-08-12 20:18:24.8540,0.03,-0.08,0.01
2020-08-12 20:18:24.9530,0.25,-0.39,0.01
2020-08-12 20:18:25.0520,0.23,-0.45,0.03
2020-08-12 20:18:25.1510,0.23,0.27,0.1
2020-08-12 20:18:25.2510,0.54,0.26,-0.12
2020-08-12 20:18:25.3500,0.2,-0.13,-0.07
2020-08-12 20:18:25.4490,-0.14,-0.19,0.08
2020-08-12 20:18:25.5490,-0.34,-0.16,0.12
2020-08-12 20:18:25.6480,-0.5,-0.03,0.09
2020-08-12 20:18:25.7470,-0.74,-0.01,0.03
2020-08-12 20:18:25.8460,1.58,-0.42,-0.14
2020-08-12 20:18:25.9460,-0.17,-0.04,0.39
2020-08-12 20:18:26.0450,-0.05,-0.03,0.04
2020-08-12 20:18:26.1440,0.06,-0.0,0.01
2020-08-12 20:18:26.2440,-0.01,-0.01,-0.01
2020-08-12 20:18:26.3430,-0.04,-0.01,-0.01
2020-08-12 20:18:26.4420,-0.04,0.01,-0.02
2020-08-12 20:18:26.5410,0.01,-0.03,-0.01
2020-08-12 20:18:26.6410,0.01,-0.04,0.04
2020-08-12 20:18:26.7400,0.08,-0.21,0.04
2020-08-12 20:18:26.8390,0.33,-0.41,-0.06
2020-08-12 20:18:26.9380,0.16,-0.21,0.11
2020-08-12 20:18:27.0380,0.68,0.11,-0.04
2020-08-12 20:18:27.1370,0.46,0.23,-0.04
2020-08-12 20:18:27.2360,0.07,-0.07,-0.05
2020-08-12 20:18:27.3350,-0.15,-0.23,-0.0
2020-08-12 20:18:27.4350,-0.53,-0.26,0.12
2020-08-12 20:18:27.5340,-0.87,-0.08,0.05
2020-08-12 20:18:27.6330,0.95,-0.13,-0.27
2020-08-12 20:18:27.7330,-0.42,0.12,0.21
2020-08-12 20:18:27.8320,-0.16,-0.05,-0.02
2020-08-12 20:18:27.9310,-0.03,-0.01,0.04
2020-08-12 20:18:28.0300,-0.01,0.02,0.02
2020-08-12 20:18:28.1300,-0.01,-0.02,0.01
2020-08-12 20:18:28.2290,0.01,0.02,-0.02
2020-08-12 20:18:28.3280,0.02,-0.02,-0.0
2020-08-12 20:18:28.4280,0.04,-0.05,-0.02
2020-08-12 20:18:28.5270,0.02,-0.16,0.01
2020-08-12 20:18:28.6260,0.29,-0.4,0.0
2020-08-12 20:18:28.7250,0.23,-0.34,0.16
2020-08-12 20:18:28.8240,0.3,0.07,0.11
2020-08-12 20:18:28.9240,0.49,0.27,-0.06
2020-08-12 20:18:29.0230,0.24,0.0,-0.1
2020-08-12 20:18:29.1220,-0.15,-0.13,0.03
2020-08-12 20:18:29.2210,-0.45,-0.38,0.16
2020-08-12 20:18:29.3210,-0.92,-0.16,0.11
2020-08-12 20:18:29.4200,-0.59,-0.07,-0.02
2020-08-12 20:18:29.5190,-0.72,-0.84,0.22
2020-08-12 20:18:29.6190,0.1,0.06,-0.01
2020-08-12 20:18:29.7180,0.01,0.0,0.05
2020-08-12 20:18:29.8170,-0.02,0.0,0.03
2020-08-12 20:18:29.9160,-0.0,0.04,0.04
2020-08-12 20:18:30.0160,0.08,-0.01,0.02
2020-08-12 20:18:30.1150,-0.02,0.01,0.0
2020-08-12 20:18:30.2140,-0.03,-0.02,0.03
2020-08-12 20:18:30.3130,-0.0,-0.07,-0.01
2020-08-12 20:18:30.4130,0.05,-0.19,0.07
2020-08-12 20:18:30.5120,0.2,-0.31,-0.08
2020-08-12 20:18:30.6110,0.19,-0.18,0.21
2020-08-12 20:18:30.7110,0.18,-0.2,0.23
2020-08-12 20:18:30.8100,0.43,0.26,-0.07
2020-08-12 20:18:30.9090,0.4,0.21,-0.16
2020-08-12 20:18:31.0080,0.1,0.05,-0.03
2020-08-12 20:18:31.1080,-0.21,-0.28,0.1
2020-08-12 20:18:31.2070,-0.58,-0.26,0.18
2020-08-12 20:18:31.3060,-0.89,-0.1,0.11
2020-08-12 20:18:31.4050,0.71,-0.05,-0.58
2020-08-12 20:18:31.5050,-0.75,0.09,0.2
2020-08-12 20:18:31.6040,-0.18,-0.05,0.09
2020-08-12 20:18:31.7030,0.06,-0.01,0.02
2020-08-12 20:18:31.8030,-0.04,-0.02,-0.0
2020-08-12 20:18:31.9020,0.02,0.0,0.0
2020-08-12 20:18:32.0010,0.04,0.03,-0.0
2020-08-12 20:18:32.1000,0.04,-0.01,0.02
2020-08-12 20:18:32.2000,0.02,-0.03,-0.0
2020-08-12 20:18:32.2990,0.04,-0.11,0.03
2020-08-12 20:18:32.3980,0.15,-0.3,-0.01
2020-08-12 20:18:32.4970,0.31,-0.21,0.17
2020-08-12 20:18:32.5970,0.22,-0.16,0.14
2020-08-12 20:18:32.6960,0.58,0.23,-0.09
2020-08-12 20:18:32.7950,0.37,0.19,-0.12
2020-08-12 20:18:32.8950,0.05,-0.17,-0.08
2020-08-12 20:18:32.9940,-0.59,-0.4,0.28
2020-08-12 20:18:33.0930,-0.88,-0.15,0.09
2020-08-12 20:18:33.1930,-0.57,-0.03,-0.01
2020-08-12 20:18:33.2920,-0.33,-0.57,0.08
2020-08-12 20:18:33.3910,0.12,0.04,0.0
2020-08-12 20:18:33.4900,0.03,-0.02,0.03
2020-08-12 20:18:33.5890,-0.02,-0.02,0.05
2020-08-12 20:18:33.6890,-0.01,-0.03,-0.02
2020-08-12 20:18:33.7880,-0.02,0.03,-0.0
2020-08-12 20:18:33.8870,-0.08,-0.0,-0.01
2020-08-12 20:18:33.9870,-0.02,-0.04,0.01
2020-08-12 20:18:34.0860,0.0,-0.05,0.02
2020-08-12 20:18:34.1850,0.14,-0.22,0.03
2020-08-12 20:18:34.2840,0.32,-0.36,-0.07
2020-08-12 20:18:34.3840,0.09,-0.12,0.16
2020-08-12 20:18:34.4830,0.58,0.08,-0.04
2020-08-12 20:18:34.5820,0.43,0.15,-0.08
2020-08-12 20:18:34.6810,0.1,-0.01,-0.03
2020-08-12 20:18:34.7810,-0.06,0.02,-0.05
2020-08-12 20:18:34.8800,-0.35,-0.12,0.15
2020-08-12 20:18:34.9790,-0.61,-0.18,0.21
2020-08-12 20:18:35.0780,-0.77,-0.04,-0.01
2020-08-12 20:18:35.1780,-0.56,-0.47,0.56
2020-08-12 20:18:35.2770,0.3,0.0,-0.08
2020-08-12 20:18:35.3760,0.13,-0.01,-0.0
2020-08-12 20:18:35.4750,-0.03,-0.02,0.01
2020-08-12 20:18:35.5750,0.01,-0.02,-0.0
2020-08-12 20:18:35.6740,-0.0,-0.01,-0.01
2020-08-12 20:18:35.7730,-0.03,0.01,0.0
2020-08-12 20:18:35.8730,-0.03,-0.04,-0.0
2020-08-12 20:18:35.9720,0.06,-0.12,0.01
2020-08-12 20:18:36.0710,0.29,-0.41,0.02
2020-08-12 20:18:36.1700,0.33,-0.28,0.09
2020-08-12 20:18:36.2700,0.68,0.17,-0.05
2020-08-12 20:18:36.3690,0.51,0.18,-0.08
2020-08-12 20:18:36.4680,0.16,-0.12,-0.02
2020-08-12 20:18:36.5670,-0.17,-0.21,0.02
2020-08-12 20:18:36.6670,-0.42,-0.27,0.05
2020-08-12 20:18:36.7660,-0.93,-0.06,0.12
2020-08-12 20:18:36.8650,-0.35,-0.07,-0.01
2020-08-12 20:18:36.9650,-0.2,-0.09,-0.29
2020-08-12 20:18:37.0640,-0.19,-0.0,0.03
2020-08-12 20:18:37.1630,0.03,0.0,0.08
2020-08-12 20:18:37.2620,-0.03,-0.01,0.02
2020-08-12 20:18:37.3620,0.03,-0.02,0.01
2020-08-12 20:18:37.4610,0.02,-0.02,-0.0
2020-08-12 20:18:37.5600,-0.03,-0.0,0.02
2020-08-12 20:18:37.6590,0.01,-0.05,-0.03
2020-08-12 20:18:37.7590,0.06,-0.12,0.03
2020-08-12 20:18:37.8580,0.31,-0.39,-0.03
2020-08-12 20:18:37.9570,0.24,-0.35,0.17
2020-08-12 20:18:38.0570,0.3,0.19,0.11
2020-08-12 20:18:38.1560,0.53,0.21,-0.1
2020-08-12 20:18:38.2550,0.25,0.04,-0.07
2020-08-12 20:18:38.3540,-0.19,-0.18,0.08
2020-08-12 20:18:38.4540,-0.31,-0.22,0.08
2020-08-12 20:18:38.5530,-0.67,-0.19,0.03
2020-08-12 20:18:38.6520,-0.85,-0.04,0.15
2020-08-12 20:18:38.7510,-0.28,-0.35,-0.03
2020-08-12 20:18:38.8510,-0.35,-0.05,0.06
2020-08-12 20:18:38.9500,-0.15,0.01,0.05
2020-08-12 20:18:39.0490,-0.07,-0.05,0.01
2020-08-12 20:18:39.1480,-0.01,-0.01,0.03
2020-08-12 20:18:39.2480,0.01,0.0,-0.02
2020-08-12 20:18:39.3470,-0.04,-0.01,0.01
2020-08-12 20:18:39.4460,0.07,-0.0,0.01
2020-08-12 20:18:39.5450,0.07,-0.03,0.02
2020-08-12 20:18:39.6450,0.08,-0.17,0.04
2020-08-12 20:18:39.7440,0.25,-0.38,-0.02
2020-08-12 20:18:39.8430,0.08,-0.25,0.12
2020-08-12 20:18:39.9430,0.64,0.06,0.01
2020-08-12 20:18:40.0420,0.31,0.17,-0.06
2020-08-12 20:18:40.1410,0.21,0.1,-0.11
2020-08-12 20:18:40.2400,-0.06,-0.02,-0.16
2020-08-12 20:18:40.3400,-0.56,-0.19,0.03
2020-08-12 20:18:40.4390,-0.75,-0.09,0.17
2020-08-12 20:18:40.5380,-0.26,-0.04,-0.16
2020-08-12 20:18:40.6370,0.05,0.03,-0.03
2020-08-12 20:18:40.7370,-0.08,-0.04,-0.01
2020-08-12 20:18:40.8360,-0.04,-0.02,0.05
2020-08-12 20:18:40.9350,-0.04,0.01,-0.02
2020-08-12 20:18:41.0350,-0.03,0.01,-0.02
2020-08-12 20:18:41.1340,-0.0,-0.04,0.01
2020-08-12 20:18:41.2330,-0.02,-0.05,-0.04
2020-08-12 20:18:41.3320,0.07,-0.01,-0.06
2020-08-12 20:18:41.4320,0.05,0.01,-0.01
2020-08-12 20:18:41.5310,-0.07,0.14,0.1
2020-08-12 20:18:41.6300,0.01,0.03,0.04
2020-08-12 20:18:41.7290,0.07,0.01,0.01
2020-08-12 20:18:41.8290,-0.03,0.01,0.02
2020-08-12 20:18:41.9280,-0.0,0.0,0.01
2020-08-12 20:18:42.0270,0.04,-0.0,0.0
2020-08-12 20:18:42.1260,-0.01,-0.0,0.01
2020-08-12 20:18:42.2260,-0.02,-0.0,-0.01
2020-08-12 20:18:42.3250,0.01,-0.0,0.01
2020-08-12 20:18:42.4240,-0.0,0.0,0.0
2020-08-12 20:18:42.5240,-0.0,0.0,0.0
2020-08-12 20:18:42.6230,0.02,-0.0,-0.01
2020-08-12 20:18:42.7220,-0.01,-0.0,0.0
2020-08-12 20:18:42.8210,-0.01,-0.0,0.0
2020-08-12 20:18:42.9210,0.01,-0.0,0.0
2020-08-12 20:18:43.0200,-0.0,-0.0,0.01
2020-08-12 20:18:43.1190,0.01,-0.0,0.0
2020-08-12 20:18:43.2180,-0.01,-0.0,0.01
2020-08-12 20:18:43.3180,0.04,0.02,-0.01
2020-08-12 20:18:43.4170,0.0,-0.0,-0.0
2020-08-12 20:18:43.5160,-0.0,0.0,-0.0
2020-08-12 20:18:43.6150,-0.0,-0.01,-0.01
2020-08-12 20:18:43.7150,-0.02,0.01,0.01
2020-08-12 20:18:43.8140,0.0,-0.0,0.0
2020-08-12 20:18:43.9130,-0.0,0.0,-0.0
2020-08-12 20:18:44.0120,-0.01,-0.0,0.0
2020-08-12 20:18:44.1120,-0.02,0.01,0.01
2020-08-12 20:18:44.2110,0.01,-0.0,0.0
2020-08-12 20:18:44.3100,0.01,-0.0,-0.01
2020-08-12 20:18:44.4100,0.01,-0.01,0.02
2020-08-12 20:18:44.5090,-0.01,0.02,-0.01
2020-08-12 20:18:44.6080,0.0,-0.02,-0.03
2020-08-12 20:18:44.7080,-0.0,0.05,-0.01
