time,ax,ay,az
2020-08-10 16:8:14.8380,-0.05,0.04,0.01
2020-08-10 16:8:14.9260,-0.01,0.03,0.0
2020-08-10 16:8:15.0090,0.01,0.04,0.0
2020-08-10 16:8:15.1060,0.02,0.04,0.01
2020-08-10 16:8:15.2010,0.03,0.03,-0.01
2020-08-10 16:8:15.2890,0.01,0.03,-0.01
2020-08-10 16:8:15.3890,-0.05,0.06,-0.02
2020-08-10 16:8:15.4850,0.06,-0.02,0.0
2020-08-10 16:8:15.5770,0.05,0.04,-0.01
2020-08-10 16:8:15.6430,-0.01,0.05,-0.01
2020-08-10 16:8:15.7230,0.04,-0.03,0.04
2020-08-10 16:8:15.8130,0.02,0.01,-0.01
2020-08-10 16:8:15.9070,-0.09,0.04,0.05
2020-08-10 16:8:15.9950,-0.02,-0.01,-0.0
2020-08-10 16:8:16.0860,-0.05,0.05,0.04
2020-08-10 16:8:16.1720,0.06,0.04,-0.02
2020-08-10 16:8:16.2710,0.02,0.03,0.0
2020-08-10 16:8:16.3770,-0.02,0.03,-0.01
2020-08-10 16:8:16.4810,0.01,0.04,0.0
2020-08-10 16:8:16.5700,0.01,0.05,-0.01
2020-08-10 16:8:16.6360,0.0,0.0,0.0
2020-08-10 16:8:16.7170,-0.0,0.05,-0.01
2020-08-10 16:8:16.8160,-0.01,0.04,-0.0
2020-08-10 16:8:16.8990,-0.02,0.02,0.01
2020-08-10 16:8:16.9820,0.02,0.03,-0.0
2020-08-10 16:8:17.0790,-0.02,0.0,-0.02
2020-08-10 16:8:17.1670,0.06,0.04,0.01
2020-08-10 16:8:17.2660,0.09,0.06,-0.08
2020-08-10 16:8:17.3630,-0.01,0.08,0.03
2020-08-10 16:8:17.4630,0.04,-0.02,0.03
2020-08-10 16:8:17.5360,0.03,0.01,0.09
2020-08-10 16:8:17.6270,0.01,0.06,0.03
2020-08-10 16:8:17.7160,0.01,0.02,-0.0
2020-08-10 16:8:17.8050,0.01,0.02,0.03
2020-08-10 16:8:17.9100,-0.07,-0.02,0.0
2020-08-10 16:8:17.9900,0.08,-0.16,0.07
2020-08-10 16:8:18.0780,0.19,-0.38,-0.03
2020-08-10 16:8:18.1810,0.46,-0.45,0.43
2020-08-10 16:8:18.2710,0.07,0.12,0.13
2020-08-10 16:8:18.3620,0.62,0.15,0.09
2020-08-10 16:8:18.4570,0.47,0.11,-0.05
2020-08-10 16:8:18.5520,0.25,-0.14,-0.0
2020-08-10 16:8:18.6620,0.01,-0.23,0.05
2020-08-10 16:8:18.7190,-0.49,-0.41,0.08
2020-08-10 16:8:18.8000,-0.82,-0.36,-0.03
2020-08-10 16:8:18.8980,-1.2,-0.05,-0.01
2020-08-10 16:8:18.9830,-0.3,-0.38,-0.06
2020-08-10 16:8:19.0760,-0.26,-0.03,0.38
2020-08-10 16:8:19.1700,0.02,0.0,-0.05
2020-08-10 16:8:19.2620,0.06,0.03,0.04
2020-08-10 16:8:19.3600,0.02,0.05,0.03
2020-08-10 16:8:19.4550,0.02,0.03,0.0
2020-08-10 16:8:19.5450,0.06,0.05,0.02
2020-08-10 16:8:19.6430,0.01,-0.01,0.02
2020-08-10 16:8:19.7440,0.03,-0.11,-0.0
2020-08-10 16:8:19.8160,0.15,-0.36,-0.01
2020-08-10 16:8:19.9080,0.35,-0.43,0.2
2020-08-10 16:8:19.9970,0.36,-0.15,0.09
2020-08-10 16:8:20.0770,1.0,0.2,-0.07
2020-08-10 16:8:20.1710,0.64,0.24,-0.06
2020-08-10 16:8:20.2570,0.26,-0.1,-0.11
2020-08-10 16:8:20.3500,-0.23,-0.41,-0.01
2020-08-10 16:8:20.4470,-0.66,-0.61,0.05
2020-08-10 16:8:20.5370,-1.27,-0.2,0.13
2020-08-10 16:8:20.6350,0.25,-0.17,-0.07
2020-08-10 16:8:20.7380,-0.47,-0.23,0.02
2020-08-10 16:8:20.8430,0.05,0.04,-0.03
2020-08-10 16:8:20.8990,0.04,0.04,0.06
2020-08-10 16:8:20.9870,-0.02,0.02,0.02
2020-08-10 16:8:21.0690,-0.2,-0.04,-0.07
2020-08-10 16:8:21.1680,-0.01,0.04,0.06
2020-08-10 16:8:21.2430,-0.02,0.02,-0.01
2020-08-10 16:8:21.3330,0.0,-0.01,-0.01
2020-08-10 16:8:21.4310,0.02,-0.16,0.01
2020-08-10 16:8:21.5270,0.23,-0.36,0.11
2020-08-10 16:8:21.6260,0.44,-0.47,0.27
2020-08-10 16:8:21.6940,0.04,-0.17,0.19
2020-08-10 16:8:21.7930,0.71,0.39,-0.01
2020-08-10 16:8:21.8760,0.62,0.13,-0.11
2020-08-10 16:8:21.9650,0.13,-0.27,0.03
2020-08-10 16:8:22.0660,-0.34,-0.36,0.13
2020-08-10 16:8:22.1560,-0.84,-0.41,0.12
2020-08-10 16:8:22.2470,-1.28,-0.17,-0.04
2020-08-10 16:8:22.3360,0.79,-0.5,-0.28
2020-08-10 16:8:22.4270,-0.19,-0.15,0.28
2020-08-10 16:8:22.5310,0.01,0.0,-0.08
2020-08-10 16:8:22.6220,0.04,0.04,0.03
2020-08-10 16:8:22.6970,-0.03,0.05,0.04
2020-08-10 16:8:22.8200,-0.08,-0.01,0.04
2020-08-10 16:8:22.8830,0.03,0.02,0.04
2020-08-10 16:8:22.9660,0.01,-0.01,0.02
2020-08-10 16:8:23.0560,-0.0,-0.1,-0.0
2020-08-10 16:8:23.1460,0.25,-0.39,0.04
2020-08-10 16:8:23.2360,0.36,-0.51,0.23
2020-08-10 16:8:23.3270,0.21,-0.07,0.14
2020-08-10 16:8:23.4160,0.76,0.34,-0.15
2020-08-10 16:8:23.5110,0.7,0.22,-0.04
2020-08-10 16:8:23.6150,0.13,-0.21,-0.05
2020-08-10 16:8:23.7100,-0.33,-0.32,0.13
2020-08-10 16:8:23.7780,-0.71,-0.5,0.03
2020-08-10 16:8:23.8740,-1.15,-0.08,0.08
2020-08-10 16:8:23.9560,1.27,-0.05,0.04
2020-08-10 16:8:24.0470,-0.31,-0.14,0.09
2020-08-10 16:8:24.1370,-0.03,0.03,-0.08
2020-08-10 16:8:24.2260,0.0,0.07,0.09
2020-08-10 16:8:24.3170,-0.08,0.04,0.04
2020-08-10 16:8:24.4070,-0.04,0.04,0.03
2020-08-10 16:8:24.5030,-0.01,0.04,0.03
2020-08-10 16:8:24.6050,-0.05,0.03,0.01
2020-08-10 16:8:24.6960,-0.03,-0.05,-0.04
2020-08-10 16:8:24.7920,0.1,-0.23,0.03
2020-08-10 16:8:24.8590,0.33,-0.51,0.22
2020-08-10 16:8:24.9470,0.54,-0.3,0.14
2020-08-10 16:8:25.0370,0.7,0.21,0.1
2020-08-10 16:8:25.1290,0.56,0.23,0.05
2020-08-10 16:8:25.2200,0.26,-0.09,-0.12
2020-08-10 16:8:25.3220,-0.07,-0.33,-0.04
2020-08-10 16:8:25.4140,-0.62,-0.36,0.13
2020-08-10 16:8:25.5030,-1.01,-0.11,0.03
2020-08-10 16:8:25.5940,-1.13,-0.06,0.08
2020-08-10 16:8:25.6850,-0.38,-0.41,-0.0
2020-08-10 16:8:25.7850,-0.12,0.04,0.24
2020-08-10 16:8:25.8910,-0.11,0.03,0.05
2020-08-10 16:8:25.9490,-0.1,0.01,-0.02
2020-08-10 16:8:26.0380,-0.08,0.05,0.05
2020-08-10 16:8:26.1270,-0.04,0.03,0.02
2020-08-10 16:8:26.2230,-0.02,0.02,0.03
2020-08-10 16:8:26.3110,0.01,-0.02,-0.01
2020-08-10 16:8:26.4030,0.06,-0.16,0.03
2020-08-10 16:8:26.4890,0.31,-0.42,0.1
2020-08-10 16:8:26.5840,0.55,-0.4,0.14
2020-08-10 16:8:26.6870,0.27,0.16,0.06
2020-08-10 16:8:26.7740,0.81,0.32,-0.05
2020-08-10 16:8:26.8730,0.51,0.08,0.01
2020-08-10 16:8:26.9400,-0.07,-0.35,0.06
2020-08-10 16:8:27.0300,-0.53,-0.3,0.03
2020-08-10 16:8:27.1180,-0.64,-0.26,-0.08
2020-08-10 16:8:27.2080,-1.09,-0.08,0.07
2020-08-10 16:8:27.2900,1.1,-0.1,-0.26
2020-08-10 16:8:27.3860,-0.25,-0.21,0.2
2020-08-10 16:8:27.4750,-0.06,0.04,0.04
2020-08-10 16:8:27.5750,0.02,0.05,0.06
2020-08-10 16:8:27.6670,-0.09,0.01,0.0
2020-08-10 16:8:27.7650,-0.05,0.03,0.0
2020-08-10 16:8:27.8640,-0.11,-0.0,0.02
2020-08-10 16:8:27.9320,-0.01,-0.01,0.02
2020-08-10 16:8:28.0180,-0.02,-0.0,0.01
2020-08-10 16:8:28.1090,0.04,-0.17,-0.01
2020-08-10 16:8:28.1990,0.32,-0.53,0.06
2020-08-10 16:8:28.2950,0.56,-0.64,0.17
2020-08-10 16:8:28.3840,0.65,0.2,0.15
2020-08-10 16:8:28.4720,0.68,0.31,-0.04
2020-08-10 16:8:28.5670,0.4,-0.0,-0.03
2020-08-10 16:8:28.6680,-0.1,-0.35,0.14
2020-08-10 16:8:28.7580,-0.58,-0.5,0.17
2020-08-10 16:8:28.8550,-1.26,-0.2,0.01
2020-08-10 16:8:28.9550,-0.89,-0.12,0.19
2020-08-10 16:8:29.0220,-0.44,-0.29,-0.02
2020-08-10 16:8:29.1030,0.06,0.03,0.15
2020-08-10 16:8:29.1950,-0.09,0.01,-0.01
2020-08-10 16:8:29.2870,-0.09,0.02,0.0
2020-08-10 16:8:29.3730,-0.06,0.06,0.02
2020-08-10 16:8:29.4640,-0.03,0.05,-0.01
2020-08-10 16:8:29.5540,-0.05,0.04,0.02
2020-08-10 16:8:29.6580,-0.01,-0.03,-0.01
2020-08-10 16:8:29.7510,0.07,-0.11,0.01
2020-08-10 16:8:29.8460,0.22,-0.38,-0.0
2020-08-10 16:8:29.9570,0.43,-0.6,0.26
2020-08-10 16:8:30.0110,0.32,0.22,0.13
2020-08-10 16:8:30.1100,0.64,0.33,0.03
2020-08-10 16:8:30.1850,0.46,0.06,-0.06
2020-08-10 16:8:30.2890,0.14,-0.48,-0.02
2020-08-10 16:8:30.3790,-0.65,-0.52,0.21
2020-08-10 16:8:30.4590,-1.01,-0.19,0.17
2020-08-10 16:8:30.5460,-1.08,-0.05,0.08
2020-08-10 16:8:30.6470,1.51,-0.02,-0.22
2020-08-10 16:8:30.7370,-0.12,-0.4,0.08
2020-08-10 16:8:30.8370,0.02,0.05,-0.04
2020-08-10 16:8:30.9480,0.07,0.04,0.05
2020-08-10 16:8:31.0350,-0.05,0.0,0.03
2020-08-10 16:8:31.0850,-0.03,0.03,0.03
2020-08-10 16:8:31.1740,-0.04,0.02,-0.01
2020-08-10 16:8:31.2790,-0.03,0.0,0.01
2020-08-10 16:8:31.3690,0.01,-0.03,-0.01
2020-08-10 16:8:31.4580,0.04,-0.14,-0.0
2020-08-10 16:8:31.5390,0.26,-0.36,0.05
2020-08-10 16:8:31.6380,0.53,-0.52,0.16
2020-08-10 16:8:31.7310,0.28,0.19,0.17
2020-08-10 16:8:31.8350,0.65,0.29,-0.0
2020-08-10 16:8:31.9390,0.41,-0.05,-0.1
2020-08-10 16:8:32.0320,-0.01,-0.3,0.05
2020-08-10 16:8:32.0920,-0.58,-0.38,0.15
2020-08-10 16:8:32.1780,-0.95,-0.23,0.21
2020-08-10 16:8:32.2690,-1.18,-0.08,0.11
2020-08-10 16:8:32.3590,-0.61,-0.42,-0.42
2020-08-10 16:8:32.4490,-0.32,0.05,0.15
2020-08-10 16:8:32.5540,-0.18,-0.03,-0.01
2020-08-10 16:8:32.6360,-0.07,0.01,0.07
2020-08-10 16:8:32.7210,-0.06,0.03,0.05
2020-08-10 16:8:32.8300,-0.06,0.02,0.02
2020-08-10 16:8:32.9300,-0.01,0.02,0.03
2020-08-10 16:8:33.0260,-0.03,0.0,0.01
2020-08-10 16:8:33.0830,0.04,-0.09,0.0
2020-08-10 16:8:33.1680,0.16,-0.28,0.09
2020-08-10 16:8:33.2590,0.38,-0.66,0.15
2020-08-10 16:8:33.3480,0.19,-0.05,0.13
2020-08-10 16:8:33.4400,0.83,0.42,-0.09
2020-08-10 16:8:33.5300,0.57,0.25,0.04
2020-08-10 16:8:33.6350,0.16,-0.29,-0.0
2020-08-10 16:8:33.7140,-0.32,-0.32,0.11
2020-08-10 16:8:33.8110,-0.58,-0.36,0.01
2020-08-10 16:8:33.9200,-1.08,-0.11,-0.06
2020-08-10 16:8:34.0100,-0.95,-0.09,0.09
2020-08-10 16:8:34.0740,-0.42,-0.28,-0.04
2020-08-10 16:8:34.1730,0.07,0.04,0.1
2020-08-10 16:8:34.2530,-0.08,-0.02,0.01
2020-08-10 16:8:34.3420,-0.1,0.01,0.01
2020-08-10 16:8:34.4360,-0.09,0.05,0.03
2020-08-10 16:8:34.5230,-0.07,0.03,0.01
2020-08-10 16:8:34.6180,-0.05,0.02,0.01
2020-08-10 16:8:34.7140,-0.07,-0.0,-0.0
2020-08-10 16:8:34.8020,-0.03,-0.08,0.06
2020-08-10 16:8:34.9010,0.15,-0.28,0.04
2020-08-10 16:8:35.0040,0.47,-0.59,0.13
2020-08-10 16:8:35.0990,0.24,-0.05,0.08
2020-08-10 16:8:35.1640,0.83,0.35,-0.14
2020-08-10 16:8:35.2430,0.61,0.17,-0.07
2020-08-10 16:8:35.3330,0.18,-0.2,-0.07
2020-08-10 16:8:35.4260,-0.24,-0.56,0.01
2020-08-10 16:8:35.5130,-0.92,-0.51,0.13
2020-08-10 16:8:35.6070,-1.33,-0.14,0.13
2020-08-10 16:8:35.7010,1.21,-0.03,0.14
2020-08-10 16:8:35.7920,-0.29,-0.47,-0.09
2020-08-10 16:8:35.8990,0.0,0.03,0.17
2020-08-10 16:8:35.9980,-0.05,-0.0,0.01
2020-08-10 16:8:36.0900,-0.08,0.01,0.04
2020-08-10 16:8:36.1550,-0.08,0.04,0.05
2020-08-10 16:8:36.2450,-0.04,0.04,0.05
2020-08-10 16:8:36.3240,-0.02,0.05,0.03
2020-08-10 16:8:36.4170,-0.06,0.02,-0.07
2020-08-10 16:8:36.5030,-0.04,-0.1,0.0
2020-08-10 16:8:36.5970,0.1,-0.34,0.04
2020-08-10 16:8:36.6880,0.44,-0.43,0.15
2020-08-10 16:8:36.7850,-0.01,-0.02,0.09
2020-08-10 16:8:36.8900,0.68,0.36,-0.11
2020-08-10 16:8:36.9830,0.62,0.22,-0.03
2020-08-10 16:8:37.0830,0.17,-0.16,0.03
2020-08-10 16:8:37.1380,-0.12,-0.22,0.12
2020-08-10 16:8:37.2360,-0.48,-0.3,0.18
2020-08-10 16:8:37.3170,-0.98,-0.14,0.14
2020-08-10 16:8:37.4160,-1.27,-0.08,0.05
2020-08-10 16:8:37.4950,-0.41,-0.43,0.18
2020-08-10 16:8:37.5880,-0.6,-0.01,0.32
2020-08-10 16:8:37.6760,-0.22,-0.02,0.08
2020-08-10 16:8:37.7760,-0.12,0.04,0.04
2020-08-10 16:8:37.8750,-0.11,0.04,0.03
2020-08-10 16:8:37.9770,-0.05,0.03,0.04
2020-08-10 16:8:38.0390,-0.03,0.03,0.03
2020-08-10 16:8:38.1360,-0.06,-0.02,0.03
2020-08-10 16:8:38.2180,-0.01,-0.1,0.03
2020-08-10 16:8:38.3080,0.15,-0.32,0.03
2020-08-10 16:8:38.4070,0.38,-0.51,0.23
2020-08-10 16:8:38.4870,0.21,0.06,0.11
2020-08-10 16:8:38.5790,0.63,0.32,-0.1
2020-08-10 16:8:38.6670,0.5,0.15,-0.11
2020-08-10 16:8:38.7660,0.13,-0.13,-0.0
2020-08-10 16:8:38.8660,-0.36,-0.25,0.12
2020-08-10 16:8:38.9670,-0.67,-0.37,0.06
2020-08-10 16:8:39.0320,-1.23,-0.14,0.09
2020-08-10 16:8:39.1260,0.45,-0.13,-0.05
2020-08-10 16:8:39.2160,-0.14,-0.14,0.11
2020-08-10 16:8:39.2990,-0.03,0.0,-0.05
2020-08-10 16:8:39.3970,-0.05,-0.0,0.06
2020-08-10 16:8:39.4770,-0.07,0.05,0.04
2020-08-10 16:8:39.5770,-0.05,0.03,0.02
2020-08-10 16:8:39.6580,-0.08,-0.01,0.03
2020-08-10 16:8:39.7570,-0.03,-0.01,0.03
2020-08-10 16:8:39.8560,-0.04,-0.08,-0.01
2020-08-10 16:8:39.9550,0.09,-0.19,0.01
2020-08-10 16:8:40.0220,0.26,-0.41,0.18
2020-08-10 16:8:40.1030,0.52,-0.42,0.23
2020-08-10 16:8:40.2060,0.9,0.19,0.09
2020-08-10 16:8:40.2960,0.56,0.34,-0.02
2020-08-10 16:8:40.3860,0.15,0.09,-0.05
2020-08-10 16:8:40.4760,-0.12,-0.26,0.02
2020-08-10 16:8:40.5670,-0.63,-0.47,0.13
2020-08-10 16:8:40.6720,-1.12,-0.17,0.06
2020-08-10 16:8:40.7550,-0.99,-0.1,0.07
2020-08-10 16:8:40.8570,-0.23,-0.3,0.12
2020-08-10 16:8:40.9450,-0.35,0.02,0.23
2020-08-10 16:8:41.0450,-0.21,-0.01,0.04
2020-08-10 16:8:41.1440,-0.09,0.01,0.07
2020-08-10 16:8:41.2110,-0.13,0.04,0.04
2020-08-10 16:8:41.2890,-0.06,0.04,0.05
2020-08-10 16:8:41.3880,-0.05,0.04,0.04
2020-08-10 16:8:41.4750,-0.06,0.02,0.01
2020-08-10 16:8:41.5670,-0.08,-0.01,0.03
2020-08-10 16:8:41.6560,-0.03,-0.1,0.04
2020-08-10 16:8:41.7390,0.19,-0.28,0.06
2020-08-10 16:8:41.8410,0.3,-0.48,0.2
2020-08-10 16:8:41.9360,0.16,0.02,0.12
2020-08-10 16:8:42.0370,0.64,0.38,-0.1
2020-08-10 16:8:42.1350,0.41,0.03,-0.17
2020-08-10 16:8:42.2010,0.06,-0.23,0.05
2020-08-10 16:8:42.2790,-0.38,-0.33,0.22
2020-08-10 16:8:42.3690,-0.9,-0.3,0.24
2020-08-10 16:8:42.4680,-1.15,-0.12,-0.06
2020-08-10 16:8:42.5540,1.28,-0.13,-0.11
2020-08-10 16:8:42.6490,-0.22,-0.07,0.06
2020-08-10 16:8:42.7310,-0.13,0.02,-0.01
2020-08-10 16:8:42.8310,-0.16,-0.01,0.08
2020-08-10 16:8:42.9430,-0.07,0.01,0.1
2020-08-10 16:8:43.0290,-0.13,0.03,0.04
2020-08-10 16:8:43.0950,-0.08,0.03,0.07
2020-08-10 16:8:43.2360,-0.05,0.03,0.05
2020-08-10 16:8:43.2810,-0.09,-0.02,-0.01
2020-08-10 16:8:43.3720,-0.04,-0.12,0.02
2020-08-10 16:8:43.4660,0.19,-0.33,0.05
2020-08-10 16:8:43.5570,0.42,-0.39,0.2
2020-08-10 16:8:43.6570,0.15,0.13,0.06
2020-08-10 16:8:43.7400,0.56,0.43,0.01
2020-08-10 16:8:43.8390,0.43,0.17,-0.04
2020-08-10 16:8:43.9320,-0.0,-0.31,0.04
2020-08-10 16:8:44.0200,-0.49,-0.33,0.16
2020-08-10 16:8:44.1190,-0.91,-0.35,0.19
2020-08-10 16:8:44.2170,-1.31,-0.1,0.01
2020-08-10 16:8:44.2830,-0.21,-0.4,-0.23
2020-08-10 16:8:44.3640,-0.45,-0.09,0.13
2020-08-10 16:8:44.4530,-0.1,-0.03,-0.04
2020-08-10 16:8:44.5480,-0.01,0.0,0.1
2020-08-10 16:8:44.6340,-0.12,0.01,0.09
2020-08-10 16:8:44.7370,-0.11,0.05,0.04
2020-08-10 16:8:44.8280,-0.08,0.02,0.03
2020-08-10 16:8:44.9140,-0.05,0.02,0.01
2020-08-10 16:8:45.0110,-0.02,-0.05,0.03
2020-08-10 16:8:45.1130,0.07,-0.17,0.01
2020-08-10 16:8:45.1880,0.21,-0.36,0.09
2020-08-10 16:8:45.2780,0.5,-0.42,0.17
2020-08-10 16:8:45.3570,0.16,0.18,0.01
2020-08-10 16:8:45.4440,0.69,0.38,-0.18
2020-08-10 16:8:45.5380,0.43,0.06,-0.11
2020-08-10 16:8:45.6240,0.06,-0.19,-0.03
2020-08-10 16:8:45.7200,-0.61,-0.46,0.02
2020-08-10 16:8:45.8160,-1.09,-0.1,0.29
2020-08-10 16:8:45.9060,-1.12,-0.07,-0.02
2020-08-10 16:8:46.0020,-0.69,-0.48,-0.29
2020-08-10 16:8:46.1020,-0.4,-0.05,0.22
2020-08-10 16:8:46.1780,-0.13,-0.06,-0.01
2020-08-10 16:8:46.2670,-0.11,0.03,0.04
2020-08-10 16:8:46.3640,-0.11,0.04,0.04
2020-08-10 16:8:46.4470,-0.09,-0.0,0.02
2020-08-10 16:8:46.5380,-0.05,0.05,0.04
2020-08-10 16:8:46.6280,-0.04,0.01,0.01
2020-08-10 16:8:46.7160,-0.02,-0.09,-0.01
2020-08-10 16:8:46.8080,0.12,-0.31,0.04
2020-08-10 16:8:46.8990,0.48,-0.5,0.2
2020-08-10 16:8:46.9940,0.12,-0.16,0.13
2020-08-10 16:8:47.1040,0.86,0.44,-0.06
2020-08-10 16:8:47.1920,0.71,0.32,-0.02
2020-08-10 16:8:47.2570,0.01,-0.25,0.04
2020-08-10 16:8:47.3470,-0.15,-0.19,0.15
2020-08-10 16:8:47.4460,-0.44,-0.29,0.09
2020-08-10 16:8:47.5430,-0.99,-0.16,-0.03
2020-08-10 16:8:47.6230,-1.4,-0.09,-0.12
2020-08-10 16:8:47.7180,-0.26,-0.38,-0.01
2020-08-10 16:8:47.8050,-0.1,0.09,0.07
2020-08-10 16:8:47.8970,-0.18,-0.01,0.06
2020-08-10 16:8:47.9840,-0.1,0.04,0.05
2020-08-10 16:8:48.0860,-0.05,0.06,0.02
2020-08-10 16:8:48.1920,-0.04,0.04,-0.0
2020-08-10 16:8:48.2830,-0.06,0.05,0.03
2020-08-10 16:8:48.3490,-0.09,-0.02,-0.06
2020-08-10 16:8:48.4430,-0.05,-0.08,0.05
2020-08-10 16:8:48.5280,0.09,-0.29,0.03
2020-08-10 16:8:48.6170,0.37,-0.36,0.09
2020-08-10 16:8:48.7130,0.26,-0.21,0.14
2020-08-10 16:8:48.7950,0.8,0.17,0.08
2020-08-10 16:8:48.8940,0.67,0.39,-0.04
2020-08-10 16:8:48.9880,0.28,-0.13,-0.1
2020-08-10 16:8:49.0750,-0.18,-0.3,0.05
2020-08-10 16:8:49.1750,-0.59,-0.47,0.09
2020-08-10 16:8:49.2720,-1.13,-0.21,0.15
2020-08-10 16:8:49.3390,-0.88,-0.26,-0.22
2020-08-10 16:8:49.4280,-0.28,-0.55,0.25
2020-08-10 16:8:49.5240,-0.05,0.04,0.0
2020-08-10 16:8:49.6120,-0.04,-0.0,0.03
2020-08-10 16:8:49.7030,-0.07,0.01,0.01
2020-08-10 16:8:49.7920,-0.14,0.02,0.01
2020-08-10 16:8:49.8840,-0.07,0.02,0.03
2020-08-10 16:8:49.9800,0.01,0.08,0.03
2020-08-10 16:8:50.0650,0.03,-0.03,-0.05
2020-08-10 16:8:50.1640,0.04,-0.13,0.05
2020-08-10 16:8:50.2620,0.25,-0.41,0.08
2020-08-10 16:8:50.3660,0.42,-0.49,0.17
2020-08-10 16:8:50.4300,0.19,0.15,0.1
2020-08-10 16:8:50.5120,0.62,0.43,-0.05
2020-08-10 16:8:50.6030,0.46,0.12,-0.06
2020-08-10 16:8:50.6940,0.09,-0.16,-0.01
2020-08-10 16:8:50.7830,-0.41,-0.34,0.11
2020-08-10 16:8:50.8740,-0.9,-0.27,0.08
2020-08-10 16:8:50.9660,-1.11,-0.09,-0.01
2020-08-10 16:8:51.0670,1.61,-0.2,0.08
2020-08-10 16:8:51.1550,-0.29,-0.01,0.06
2020-08-10 16:8:51.2540,-0.1,-0.04,-0.06
2020-08-10 16:8:51.3560,-0.04,0.01,0.09
2020-08-10 16:8:51.4230,-0.09,0.03,0.05
2020-08-10 16:8:51.5030,-0.14,0.01,0.01
2020-08-10 16:8:51.5930,-0.0,0.05,0.03
2020-08-10 16:8:51.6830,0.01,0.04,-0.0
2020-08-10 16:8:51.7740,0.02,0.0,0.03
2020-08-10 16:8:51.8640,0.04,-0.18,-0.01
2020-08-10 16:8:51.9560,0.32,-0.44,0.05
2020-08-10 16:8:52.0600,0.58,-0.67,0.25
2020-08-10 16:8:52.1520,0.57,0.22,0.19
2020-08-10 16:8:52.2450,0.66,0.32,-0.04
2020-08-10 16:8:52.3460,0.29,-0.09,-0.04
2020-08-10 16:8:52.4430,-0.3,-0.36,0.15
2020-08-10 16:8:52.5090,-0.61,-0.35,0.15
2020-08-10 16:8:52.5990,-1.02,-0.14,0.1
2020-08-10 16:8:52.6890,-1.13,-0.06,-0.02
2020-08-10 16:8:52.7650,-0.65,-0.55,-0.09
2020-08-10 16:8:52.8560,-0.54,0.17,0.27
2020-08-10 16:8:52.9450,-0.19,-0.06,-0.13
2020-08-10 16:8:53.0460,-0.12,0.0,0.05
2020-08-10 16:8:53.1440,-0.07,0.05,0.05
2020-08-10 16:8:53.2360,-0.06,0.05,-0.0
2020-08-10 16:8:53.3350,-0.07,0.03,0.01
2020-08-10 16:8:53.4030,-0.06,-0.01,0.04
2020-08-10 16:8:53.4850,0.02,-0.1,-0.0
2020-08-10 16:8:53.5900,0.15,-0.31,0.06
2020-08-10 16:8:53.6790,0.32,-0.4,0.2
2020-08-10 16:8:53.7560,0.27,-0.01,0.08
2020-08-10 16:8:53.8500,0.8,0.28,-0.11
2020-08-10 16:8:53.9350,0.6,0.28,-0.03
2020-08-10 16:8:54.0400,0.05,-0.15,-0.05
2020-08-10 16:8:54.1290,-0.53,-0.34,0.1
2020-08-10 16:8:54.2270,-0.86,-0.4,0.08
2020-08-10 16:8:54.3260,-1.2,-0.14,0.1
2020-08-10 16:8:54.4240,1.15,-0.41,-0.15
2020-08-10 16:8:54.4750,-0.13,-0.12,0.16
2020-08-10 16:8:54.5650,-0.08,0.02,-0.03
2020-08-10 16:8:54.6700,-0.11,0.0,0.09
2020-08-10 16:8:54.7580,-0.17,0.0,0.07
2020-08-10 16:8:54.8480,-0.17,0.01,0.04
2020-08-10 16:8:54.9330,-0.07,0.02,0.05
2020-08-10 16:8:55.0290,-0.08,0.01,0.03
2020-08-10 16:8:55.1240,-0.06,-0.06,0.07
2020-08-10 16:8:55.2170,0.06,-0.32,0.04
2020-08-10 16:8:55.3160,0.27,-0.47,0.15
2020-08-10 16:8:55.4150,-0.05,0.05,0.23
2020-08-10 16:8:55.4800,0.74,0.47,-0.12
2020-08-10 16:8:55.5700,0.57,0.31,-0.04
2020-08-10 16:8:55.6600,0.06,-0.18,-0.05
2020-08-10 16:8:55.7500,-0.31,-0.34,0.04
2020-08-10 16:8:55.8550,-0.84,-0.43,0.15
2020-08-10 16:8:55.9300,-1.26,-0.14,0.12
2020-08-10 16:8:56.0250,0.71,-0.09,0.02
2020-08-10 16:8:56.1210,-0.29,-0.31,-0.05
2020-08-10 16:8:56.2080,-0.15,0.02,0.08
2020-08-10 16:8:56.3080,-0.17,0.01,0.07
2020-08-10 16:8:56.4170,-0.37,-0.09,-0.0
2020-08-10 16:8:56.5050,-0.15,0.03,0.09
2020-08-10 16:8:56.5700,-0.09,0.03,0.05
2020-08-10 16:8:56.6610,-0.07,0.04,0.05
2020-08-10 16:8:56.7430,-0.05,-0.0,0.04
2020-08-10 16:8:56.8360,-0.05,-0.08,0.09
2020-08-10 16:8:56.9340,0.15,-0.38,0.03
2020-08-10 16:8:57.0260,0.3,-0.45,0.24
2020-08-10 16:8:57.1130,0.22,0.25,0.14
2020-08-10 16:8:57.2060,0.58,0.46,-0.03
2020-08-10 16:8:57.2990,0.38,0.11,-0.03
2020-08-10 16:8:57.4000,0.05,-0.26,0.05
2020-08-10 16:8:57.4760,-0.4,-0.32,0.17
2020-08-10 16:8:57.5640,-0.88,-0.46,0.1
2020-08-10 16:8:57.6620,-1.2,-0.15,-0.03
2020-08-10 16:8:57.7460,1.23,-0.1,0.07
2020-08-10 16:8:57.8340,-0.38,-0.56,0.05
2020-08-10 16:8:57.9250,-0.07,0.01,0.05
2020-08-10 16:8:58.0150,-0.07,0.03,0.09
2020-08-10 16:8:58.1190,-0.13,-0.03,0.05
2020-08-10 16:8:58.1970,-0.13,0.03,0.09
2020-08-10 16:8:58.2910,-0.11,0.07,0.02
2020-08-10 16:8:58.3990,-0.1,0.07,-0.0
2020-08-10 16:8:58.4660,-0.09,0.01,0.05
2020-08-10 16:8:58.6000,-0.0,-0.17,0.04
2020-08-10 16:8:58.6870,0.15,-0.36,0.12
2020-08-10 16:8:58.7430,0.4,-0.39,0.22
2020-08-10 16:8:58.8410,0.31,0.19,0.25
2020-08-10 16:8:58.9310,0.52,0.46,0.03
2020-08-10 16:8:59.0210,0.25,-0.02,-0.01
2020-08-10 16:8:59.1110,-0.04,-0.29,0.07
2020-08-10 16:8:59.1930,-0.54,-0.54,0.09
2020-08-10 16:8:59.2820,-1.39,-0.3,0.22
2020-08-10 16:8:59.3800,-1.13,-0.16,0.03
2020-08-10 16:8:59.4910,-0.55,-0.43,0.15
2020-08-10 16:8:59.5790,0.05,0.1,0.16
2020-08-10 16:8:59.6470,-0.21,-0.03,-0.06
2020-08-10 16:8:59.7430,-0.1,0.01,0.1
2020-08-10 16:8:59.8310,-0.13,0.07,0.11
2020-08-10 16:8:59.9070,-0.25,0.01,0.0
2020-08-10 16:9:00.0150,-0.13,0.03,0.1
2020-08-10 16:9:00.1010,-0.07,-0.03,0.02
2020-08-10 16:9:00.1910,-0.08,-0.05,0.04
2020-08-10 16:9:00.2840,0.04,-0.28,0.12
2020-08-10 16:9:00.3860,0.28,-0.28,0.08
2020-08-10 16:9:00.4800,0.34,-0.12,0.1
2020-08-10 16:9:00.5710,0.77,0.17,0.17
2020-08-10 16:9:00.6720,0.56,0.33,0.02
2020-08-10 16:9:00.7450,0.16,-0.15,-0.05
2020-08-10 16:9:00.8330,-0.42,-0.45,0.22
2020-08-10 16:9:00.9140,-0.94,-0.47,0.29
2020-08-10 16:9:01.0120,-1.37,-0.15,0.02
2020-08-10 16:9:01.0980,1.85,-0.28,-0.22
2020-08-10 16:9:01.1880,-0.36,0.09,0.26
2020-08-10 16:9:01.2750,-0.24,-0.07,-0.01
2020-08-10 16:9:01.3690,-0.13,0.02,0.14
2020-08-10 16:9:01.4580,-0.17,0.01,0.08
2020-08-10 16:9:01.5610,-0.16,0.05,0.05
2020-08-10 16:9:01.6530,-0.12,0.09,0.09
2020-08-10 16:9:01.7620,-0.14,0.02,-0.03
2020-08-10 16:9:01.8270,-0.14,-0.04,0.08
2020-08-10 16:9:01.9160,-0.03,-0.2,0.04
2020-08-10 16:9:01.9970,0.12,-0.34,0.13
2020-08-10 16:9:02.0850,0.61,-0.74,0.18
2020-08-10 16:9:02.1790,0.08,0.27,0.22
2020-08-10 16:9:02.2650,0.52,0.46,-0.02
2020-08-10 16:9:02.3580,0.27,0.1,-0.02
2020-08-10 16:9:02.4480,-0.16,-0.3,0.07
2020-08-10 16:9:02.5550,-0.64,-0.39,0.09
2020-08-10 16:9:02.6440,-1.06,-0.21,0.19
2020-08-10 16:9:02.7530,-1.19,-0.23,0.05
2020-08-10 16:9:02.8170,-0.98,-0.5,-0.09
2020-08-10 16:9:02.9060,-0.43,0.0,0.31
2020-08-10 16:9:02.9970,-0.1,-0.05,-0.04
2020-08-10 16:9:03.0770,-0.11,-0.0,0.05
2020-08-10 16:9:03.1770,-0.17,0.02,0.05
2020-08-10 16:9:03.2680,-0.13,0.02,0.07
2020-08-10 16:9:03.3660,-0.06,0.05,0.03
2020-08-10 16:9:03.4620,-0.1,-0.06,0.04
2020-08-10 16:9:03.5520,-0.05,-0.16,0.01
2020-08-10 16:9:03.6420,0.17,-0.38,0.08
2020-08-10 16:9:03.7390,0.36,-0.47,0.21
2020-08-10 16:9:03.8440,0.22,0.22,0.1
2020-08-10 16:9:03.9070,0.72,0.42,-0.07
2020-08-10 16:9:03.9990,0.48,0.09,-0.03
2020-08-10 16:9:04.0880,-0.01,-0.24,0.08
2020-08-10 16:9:04.1770,-0.58,-0.42,0.13
2020-08-10 16:9:04.2670,-1.1,-0.26,0.07
2020-08-10 16:9:04.3560,-1.33,-0.12,0.07
2020-08-10 16:9:04.4520,-0.56,-0.46,-0.0
2020-08-10 16:9:04.5340,-0.3,0.04,0.28
2020-08-10 16:9:04.6370,-0.18,-0.03,-0.0
2020-08-10 16:9:04.7260,-0.15,0.03,0.03
2020-08-10 16:9:04.8270,-0.15,0.03,0.07
2020-08-10 16:9:04.9250,-0.11,0.01,0.03
2020-08-10 16:9:04.9920,-0.11,0.02,0.05
2020-08-10 16:9:05.0800,-0.06,-0.04,-0.0
2020-08-10 16:9:05.1700,-0.07,-0.1,0.03
2020-08-10 16:9:05.2550,0.13,-0.31,0.04
2020-08-10 16:9:05.3450,0.32,-0.39,0.18
2020-08-10 16:9:05.4380,0.25,0.15,0.09
2020-08-10 16:9:05.5220,0.67,0.37,-0.18
2020-08-10 16:9:05.6220,0.42,0.23,-0.0
2020-08-10 16:9:05.7180,0.1,-0.17,0.05
2020-08-10 16:9:05.8180,-0.45,-0.31,0.12
2020-08-10 16:9:05.9170,-0.74,-0.32,0.07
2020-08-10 16:9:05.9820,-1.03,-0.2,-0.07
2020-08-10 16:9:06.1260,1.5,-0.33,-0.2
2020-08-10 16:9:06.1640,-0.13,-0.17,0.1
2020-08-10 16:9:06.2610,-0.14,0.02,-0.06
2020-08-10 16:9:06.3440,-0.04,0.0,0.06
2020-08-10 16:9:06.4340,-0.09,0.01,0.07
2020-08-10 16:9:06.5220,-0.1,0.04,0.01
2020-08-10 16:9:06.6270,-0.09,0.07,0.03
2020-08-10 16:9:06.7100,-0.06,0.03,-0.01
2020-08-10 16:9:06.8090,-0.07,-0.06,-0.01
2020-08-10 16:9:06.9170,0.07,-0.22,0.04
2020-08-10 16:9:07.0080,0.23,-0.6,0.13
2020-08-10 16:9:07.0730,0.36,-0.21,0.14
2020-08-10 16:9:07.1540,0.82,0.19,0.13
2020-08-10 16:9:07.2440,0.53,0.37,0.06
2020-08-10 16:9:07.3480,0.15,-0.07,-0.06
2020-08-10 16:9:07.4230,-0.24,-0.26,0.07
2020-08-10 16:9:07.5190,-0.53,-0.4,0.09
2020-08-10 16:9:07.6060,-1.07,-0.21,0.09
2020-08-10 16:9:07.6990,-1.06,-0.2,0.13
2020-08-10 16:9:07.8080,-0.4,-0.43,-0.07
2020-08-10 16:9:07.9000,-0.28,0.06,0.19
2020-08-10 16:9:07.9630,-0.12,-0.03,0.02
2020-08-10 16:9:08.0640,-0.13,0.01,0.02
2020-08-10 16:9:08.1440,-0.14,0.05,0.07
2020-08-10 16:9:08.2350,-0.11,0.03,0.04
2020-08-10 16:9:08.3270,-0.05,0.02,-0.01
2020-08-10 16:9:08.4280,-0.05,-0.01,0.01
2020-08-10 16:9:08.5050,0.01,-0.18,0.01
2020-08-10 16:9:08.6000,0.25,-0.39,0.05
2020-08-10 16:9:08.6910,0.46,-0.39,0.15
2020-08-10 16:9:08.7900,0.36,0.17,0.16
2020-08-10 16:9:08.8900,0.62,0.37,-0.03
2020-08-10 16:9:08.9630,0.5,0.09,-0.1
2020-08-10 16:9:09.0540,0.04,-0.27,0.05
2020-08-10 16:9:09.1360,-0.48,-0.35,0.11
2020-08-10 16:9:09.2250,-0.91,-0.21,0.07
2020-08-10 16:9:09.3280,-1.18,-0.12,0.03
2020-08-10 16:9:09.4050,-0.23,-0.54,-0.26
2020-08-10 16:9:09.4940,-0.42,-0.04,0.18
2020-08-10 16:9:09.5880,-0.17,-0.04,-0.07
2020-08-10 16:9:09.6880,-0.11,0.0,0.05
2020-08-10 16:9:09.7830,-0.1,0.04,0.01
2020-08-10 16:9:09.8800,-0.09,0.02,-0.0
2020-08-10 16:9:09.9460,-0.05,0.04,-0.0
2020-08-10 16:9:10.0330,0.02,-0.0,0.03
2020-08-10 16:9:10.1280,-0.02,-0.07,0.01
2020-08-10 16:9:10.2230,0.11,-0.3,0.03
2020-08-10 16:9:10.3090,0.34,-0.43,0.19
2020-08-10 16:9:10.3950,0.35,-0.25,0.1
2020-08-10 16:9:10.4890,0.86,0.16,0.03
2020-08-10 16:9:10.5820,0.67,0.31,-0.13
2020-08-10 16:9:10.6750,0.28,-0.14,-0.07
2020-08-10 16:9:10.7740,-0.38,-0.31,0.21
2020-08-10 16:9:10.8740,-0.62,-0.41,-0.01
2020-08-10 16:9:10.9360,-1.08,-0.21,-0.04
2020-08-10 16:9:11.0240,-1.28,-0.14,0.09
2020-08-10 16:9:11.1340,-0.39,-0.15,-0.08
2020-08-10 16:9:11.2180,-0.15,0.02,0.07
2020-08-10 16:9:11.3080,-0.09,0.02,0.04
2020-08-10 16:9:11.3980,-0.07,0.02,0.03
2020-08-10 16:9:11.4880,-0.08,0.03,0.03
2020-08-10 16:9:11.5780,-0.07,0.03,0.03
2020-08-10 16:9:11.6680,-0.05,0.03,0.01
2020-08-10 16:9:11.7640,-0.05,-0.03,0.0
2020-08-10 16:9:11.8670,0.05,-0.16,-0.0
2020-08-10 16:9:11.9600,0.3,-0.6,0.26
2020-08-10 16:9:12.0610,0.36,-0.37,0.12
2020-08-10 16:9:12.1340,0.96,0.27,0.04
2020-08-10 16:9:12.2080,0.48,0.25,-0.03
2020-08-10 16:9:12.3140,0.18,-0.08,-0.07
2020-08-10 16:9:12.3940,-0.24,-0.28,0.12
2020-08-10 16:9:12.4880,-0.56,-0.39,0.12
2020-08-10 16:9:12.5830,-1.04,-0.18,0.05
2020-08-10 16:9:12.6720,-1.04,-0.2,0.09
2020-08-10 16:9:12.7600,-0.42,-0.44,-0.06
2020-08-10 16:9:12.8550,-0.24,0.07,0.22
2020-08-10 16:9:12.9510,-0.17,-0.03,-0.02
2020-08-10 16:9:13.0510,-0.15,-0.01,0.03
2020-08-10 16:9:13.1500,-0.12,0.03,0.05
2020-08-10 16:9:13.2060,-0.09,0.03,0.04
2020-08-10 16:9:13.3040,-0.06,0.05,-0.01
2020-08-10 16:9:13.3860,-0.07,-0.04,0.05
2020-08-10 16:9:13.4840,-0.03,-0.14,0.01
2020-08-10 16:9:13.5630,0.28,-0.53,0.11
2020-08-10 16:9:13.6620,0.46,-0.43,0.22
2020-08-10 16:9:13.7510,0.52,0.2,0.07
2020-08-10 16:9:13.8470,0.63,0.43,-0.03
2020-08-10 16:9:13.9430,0.37,0.04,-0.11
2020-08-10 16:9:14.0410,-0.06,-0.33,0.13
2020-08-10 16:9:14.1410,-0.55,-0.41,0.17
2020-08-10 16:9:14.2040,-1.04,-0.24,0.1
2020-08-10 16:9:14.2930,-1.22,-0.1,-0.03
2020-08-10 16:9:14.3840,-0.71,-0.66,-0.05
2020-08-10 16:9:14.4750,-0.2,-0.07,0.16
2020-08-10 16:9:14.5790,-0.15,-0.03,-0.03
2020-08-10 16:9:14.6690,-0.11,0.0,0.01
2020-08-10 16:9:14.7480,-0.12,0.02,0.06
2020-08-10 16:9:14.8500,-0.11,0.03,0.02
2020-08-10 16:9:14.9400,-0.06,0.03,0.03
2020-08-10 16:9:15.0350,-0.08,-0.01,0.05
2020-08-10 16:9:15.1420,-0.07,-0.08,0.05
2020-08-10 16:9:15.2050,0.12,-0.31,-0.08
2020-08-10 16:9:15.2960,0.34,-0.41,0.19
2020-08-10 16:9:15.3860,0.32,-0.09,0.13
2020-08-10 16:9:15.4720,0.83,0.45,-0.05
2020-08-10 16:9:15.5640,0.62,0.21,-0.08
2020-08-10 16:9:15.6470,0.02,-0.21,0.08
2020-08-10 16:9:15.7390,-0.44,-0.47,0.19
2020-08-10 16:9:15.8400,-0.97,-0.24,0.16
2020-08-10 16:9:15.9240,-1.24,-0.13,-0.08
2020-08-10 16:9:16.0250,0.08,-0.42,-0.31
2020-08-10 16:9:16.1260,-0.3,-0.14,0.19
2020-08-10 16:9:16.2250,-0.1,-0.0,-0.03
2020-08-10 16:9:16.2770,-0.04,0.02,0.06
2020-08-10 16:9:16.3790,-0.2,-0.01,0.03
2020-08-10 16:9:16.4670,-0.11,0.01,0.03
2020-08-10 16:9:16.5570,0.01,0.11,0.07
2020-08-10 16:9:16.6420,0.05,0.02,-0.01
2020-08-10 16:9:16.7320,-0.04,-0.07,0.02
2020-08-10 16:9:16.8460,0.06,-0.25,-0.02
2020-08-10 16:9:16.9290,0.4,-0.49,0.19
2020-08-10 16:9:17.0250,0.24,-0.21,0.08
2020-08-10 16:9:17.1180,0.9,0.3,0.0
2020-08-10 16:9:17.2190,0.68,0.32,-0.03
2020-08-10 16:9:17.2800,0.29,-0.05,-0.03
2020-08-10 16:9:17.3700,-0.22,-0.43,0.18
2020-08-10 16:9:17.4600,-0.89,-0.53,0.1
2020-08-10 16:9:17.5650,-1.37,-0.18,-0.06
2020-08-10 16:9:17.6410,0.68,-0.09,-0.1
2020-08-10 16:9:17.7460,-0.35,-0.26,0.05
2020-08-10 16:9:17.8210,-0.1,-0.04,-0.07
2020-08-10 16:9:17.9250,-0.08,0.02,0.1
2020-08-10 16:9:18.0070,-0.16,0.03,0.03
2020-08-10 16:9:18.1060,-0.14,0.0,-0.0
2020-08-10 16:9:18.2050,-0.08,0.03,0.03
2020-08-10 16:9:18.2720,-0.07,0.01,-0.01
2020-08-10 16:9:18.3710,-0.02,-0.07,0.01
2020-08-10 16:9:18.4530,0.13,-0.31,0.04
2020-08-10 16:9:18.5440,0.34,-0.45,0.13
2020-08-10 16:9:18.6390,0.19,-0.08,0.1
2020-08-10 16:9:18.7360,0.83,0.31,-0.06
2020-08-10 16:9:18.8230,0.56,0.35,0.01
2020-08-10 16:9:18.9160,0.09,-0.17,-0.09
2020-08-10 16:9:19.0090,-0.23,-0.29,0.11
2020-08-10 16:9:19.1110,-0.7,-0.42,0.19
2020-08-10 16:9:19.2000,-1.15,-0.21,-0.03
2020-08-10 16:9:19.3070,0.03,-0.11,0.11
2020-08-10 16:9:19.3610,-0.3,-0.2,-0.1
2020-08-10 16:9:19.4430,-0.23,0.01,0.07
2020-08-10 16:9:19.5330,-0.07,0.0,0.08
2020-08-10 16:9:19.6270,-0.12,0.01,0.02
2020-08-10 16:9:19.7260,-0.1,0.03,0.04
2020-08-10 16:9:19.8160,-0.05,0.03,0.01
2020-08-10 16:9:19.9060,-0.05,0.0,0.01
2020-08-10 16:9:19.9960,-0.02,-0.03,0.03
2020-08-10 16:9:20.1010,0.04,-0.24,-0.06
2020-08-10 16:9:20.1950,0.25,-0.38,0.14
2020-08-10 16:9:20.2880,0.58,-0.49,0.22
2020-08-10 16:9:20.3860,0.33,0.17,0.13
2020-08-10 16:9:20.4870,0.67,0.29,-0.09
2020-08-10 16:9:20.5510,0.47,-0.04,-0.05
2020-08-10 16:9:20.6410,-0.07,-0.44,0.11
2020-08-10 16:9:20.7310,-0.86,-0.57,0.0
2020-08-10 16:9:20.8080,-1.19,-0.23,-0.01
2020-08-10 16:9:20.8970,-1.07,-0.08,0.13
2020-08-10 16:9:20.9980,-0.26,-0.32,-0.1
2020-08-10 16:9:21.0910,-0.38,-0.03,0.08
2020-08-10 16:9:21.1860,-0.09,0.01,0.09
2020-08-10 16:9:21.2770,-0.08,0.01,0.01
2020-08-10 16:9:21.3780,-0.14,0.03,0.0
2020-08-10 16:9:21.4760,-0.08,0.04,-0.0
2020-08-10 16:9:21.5420,-0.02,0.03,0.01
2020-08-10 16:9:21.6310,-0.02,-0.03,-0.01
2020-08-10 16:9:21.7220,0.04,-0.16,0.01
2020-08-10 16:9:21.8110,0.3,-0.49,0.12
2020-08-10 16:9:21.9040,0.58,-0.36,0.24
2020-08-10 16:9:21.9920,0.09,0.18,0.13
2020-08-10 16:9:22.0970,0.57,0.28,0.01
2020-08-10 16:9:22.1730,0.26,0.03,-0.05
2020-08-10 16:9:22.2770,-0.08,-0.28,0.06
2020-08-10 16:9:22.3800,-0.57,-0.4,0.07
2020-08-10 16:9:22.4770,-1.23,-0.14,0.08
2020-08-10 16:9:22.5330,-1.0,-0.22,0.06
2020-08-10 16:9:22.6210,-0.42,-0.45,0.1
2020-08-10 16:9:22.7120,0.04,0.16,0.17
2020-08-10 16:9:22.8020,-0.1,-0.02,-0.03
2020-08-10 16:9:22.8910,-0.06,0.02,0.06
2020-08-10 16:9:22.9960,-0.12,0.04,0.03
2020-08-10 16:9:23.0780,-0.09,0.06,-0.0
2020-08-10 16:9:23.1750,-0.07,0.02,0.01
2020-08-10 16:9:23.2670,-0.04,-0.04,0.06
2020-08-10 16:9:23.3720,0.01,-0.28,-0.07
2020-08-10 16:9:23.4620,0.33,-0.47,0.22
2020-08-10 16:9:23.5240,0.6,-0.45,0.16
2020-08-10 16:9:23.6220,0.52,0.16,0.18
2020-08-10 16:9:23.7050,0.62,0.38,-0.04
2020-08-10 16:9:23.7950,0.18,-0.1,-0.06
2020-08-10 16:9:23.8890,-0.14,-0.35,0.05
2020-08-10 16:9:23.9850,-0.73,-0.49,0.05
2020-08-10 16:9:24.0670,-1.3,-0.21,0.04
2020-08-10 16:9:24.1640,1.21,-0.2,0.05
2020-08-10 16:9:24.2590,-0.19,-0.16,-0.09
2020-08-10 16:9:24.3510,-0.07,0.05,-0.0
2020-08-10 16:9:24.4540,-0.12,0.01,0.06
2020-08-10 16:9:24.5490,-0.04,0.02,0.03
2020-08-10 16:9:24.6140,-0.09,0.02,0.01
2020-08-10 16:9:24.6940,-0.05,0.01,0.04
2020-08-10 16:9:24.7870,-0.04,0.0,-0.03
2020-08-10 16:9:24.8780,-0.05,-0.06,0.02
2020-08-10 16:9:24.9650,0.08,-0.31,-0.0
2020-08-10 16:9:25.0680,0.42,-0.52,0.15
2020-08-10 16:9:25.1550,0.29,-0.29,0.14
2020-08-10 16:9:25.2480,0.81,0.26,0.14
2020-08-10 16:9:25.3530,0.59,0.29,-0.0
2020-08-10 16:9:25.4500,0.17,-0.17,-0.02
2020-08-10 16:9:25.5060,-0.32,-0.37,0.18
2020-08-10 16:9:25.6040,-0.85,-0.46,0.07
2020-08-10 16:9:25.6840,-1.24,-0.17,0.03
2020-08-10 16:9:25.7730,-0.65,-0.19,-0.06
2020-08-10 16:9:25.8690,-0.36,-0.42,-0.07
2020-08-10 16:9:25.9560,-0.18,0.08,0.12
2020-08-10 16:9:26.0500,-0.1,0.01,-0.0
2020-08-10 16:9:26.1470,-0.15,-0.02,0.02
2020-08-10 16:9:26.2360,-0.1,0.01,0.03
2020-08-10 16:9:26.3420,-0.06,0.02,0.02
2020-08-10 16:9:26.4360,-0.03,0.04,-0.02
2020-08-10 16:9:26.5080,-0.02,-0.02,0.07
2020-08-10 16:9:26.6310,0.1,-0.22,-0.02
2020-08-10 16:9:26.6940,0.31,-0.49,0.13
2020-08-10 16:9:26.7780,0.59,-0.24,0.16
2020-08-10 16:9:26.8660,0.59,0.23,0.16
2020-08-10 16:9:26.9580,0.53,0.34,-0.01
2020-08-10 16:9:27.0470,0.36,-0.03,-0.09
2020-08-10 16:9:27.1370,-0.16,-0.41,0.03
2020-08-10 16:9:27.2280,-0.57,-0.43,0.23
2020-08-10 16:9:27.3330,-1.28,-0.18,0.13
2020-08-10 16:9:27.4240,-0.93,-0.27,-0.16
2020-08-10 16:9:27.4980,-0.35,-0.38,0.18
2020-08-10 16:9:27.5870,-0.1,0.01,0.14
2020-08-10 16:9:27.6860,-0.15,0.02,0.02
2020-08-10 16:9:27.7670,-0.11,-0.0,0.01
2020-08-10 16:9:27.8560,-0.1,0.03,0.02
2020-08-10 16:9:27.9480,-0.07,0.03,-0.02
2020-08-10 16:9:28.0370,-0.04,0.02,0.03
2020-08-10 16:9:28.1280,-0.07,-0.05,-0.0
2020-08-10 16:9:28.2170,0.07,-0.2,0.03
2020-08-10 16:9:28.3130,0.28,-0.37,0.12
2020-08-10 16:9:28.4240,0.52,-0.41,0.16
2020-08-10 16:9:28.4880,0.27,0.18,0.24
2020-08-10 16:9:28.5770,0.69,0.42,-0.09
2020-08-10 16:9:28.6680,0.43,0.11,-0.13
2020-08-10 16:9:28.7580,-0.24,-0.56,0.15
2020-08-10 16:9:28.8470,-0.85,-0.48,0.19
2020-08-10 16:9:28.9400,-1.35,-0.21,0.02
2020-08-10 16:9:29.0270,-0.62,-0.24,-0.11
2020-08-10 16:9:29.1170,-0.27,-0.35,0.2
2020-08-10 16:9:29.2160,-0.03,0.06,0.02
2020-08-10 16:9:29.3050,-0.2,0.0,0.07
2020-08-10 16:9:29.4150,-0.15,0.0,0.01
2020-08-10 16:9:29.4780,-0.13,0.03,0.05
2020-08-10 16:9:29.5680,-0.09,0.04,0.01
2020-08-10 16:9:29.6580,-0.04,0.06,0.04
2020-08-10 16:9:29.7510,-0.02,-0.02,0.0
2020-08-10 16:9:29.8380,0.0,-0.19,0.02
2020-08-10 16:9:29.9310,0.31,-0.47,0.12
2020-08-10 16:9:30.0170,0.63,-0.48,0.17
2020-08-10 16:9:30.1210,0.41,0.19,0.08
2020-08-10 16:9:30.1990,0.57,0.35,0.0
2020-08-10 16:9:30.2960,0.34,0.01,-0.07
2020-08-10 16:9:30.3990,-0.12,-0.34,0.15
2020-08-10 16:9:30.4980,-0.64,-0.44,0.11
2020-08-10 16:9:30.5590,-1.23,-0.21,0.08
2020-08-10 16:9:30.6480,-1.2,-0.17,0.03
2020-08-10 16:9:30.7380,-0.41,-0.51,0.08
2020-08-10 16:9:30.8290,-0.27,-0.02,0.09
2020-08-10 16:9:30.9200,-0.14,-0.0,0.06
2020-08-10 16:9:31.0190,-0.08,0.04,0.06
2020-08-10 16:9:31.1140,-0.1,0.02,0.04
2020-08-10 16:9:31.1990,-0.11,0.01,0.03
2020-08-10 16:9:31.2940,-0.09,0.03,0.04
2020-08-10 16:9:31.3870,-0.04,-0.04,0.02
2020-08-10 16:9:31.4940,0.01,-0.19,-0.05
2020-08-10 16:9:31.5840,0.37,-0.56,0.22
2020-08-10 16:9:31.6490,0.28,-0.44,0.12
2020-08-10 16:9:31.7590,1.02,0.45,0.01
2020-08-10 16:9:31.8330,0.58,0.4,-0.07
2020-08-10 16:9:31.9240,0.05,-0.11,0.03
2020-08-10 16:9:32.0130,-0.39,-0.33,0.09
2020-08-10 16:9:32.1040,-0.63,-0.43,0.0
2020-08-10 16:9:32.1940,-1.16,-0.17,0.03
2020-08-10 16:9:32.2840,-1.18,-0.1,0.07
2020-08-10 16:9:32.3970,-0.4,-0.29,-0.1
2020-08-10 16:9:32.4810,-0.23,0.04,0.14
2020-08-10 16:9:32.5740,-0.15,-0.03,0.02
2020-08-10 16:9:32.6770,-0.13,0.0,0.07
2020-08-10 16:9:32.7420,-0.14,0.04,0.06
2020-08-10 16:9:32.8390,-0.09,0.03,0.05
2020-08-10 16:9:32.9160,-0.06,0.02,0.02
2020-08-10 16:9:33.0160,-0.07,-0.04,-0.0
2020-08-10 16:9:33.0960,0.01,-0.18,-0.03
2020-08-10 16:9:33.1880,0.22,-0.38,0.1
2020-08-10 16:9:33.2760,0.52,-0.44,0.25
2020-08-10 16:9:33.3780,0.25,0.31,0.16
2020-08-10 16:9:33.4690,0.59,0.3,0.01
2020-08-10 16:9:33.5660,0.43,0.06,-0.07
2020-08-10 16:9:33.6670,-0.03,-0.31,0.04
2020-08-10 16:9:33.7330,-0.68,-0.61,0.19
2020-08-10 16:9:33.8290,-1.51,-0.26,0.23
2020-08-10 16:9:33.9190,-1.05,-0.1,0.02
2020-08-10 16:9:33.9980,-0.47,-0.53,0.07
2020-08-10 16:9:34.0960,-0.22,0.02,0.18
2020-08-10 16:9:34.1860,-0.18,-0.03,0.03
2020-08-10 16:9:34.2720,-0.2,0.0,0.04
2020-08-10 16:9:34.3700,-0.15,0.03,0.06
2020-08-10 16:9:34.4670,-0.11,0.01,0.01
2020-08-10 16:9:34.5560,-0.14,-0.01,0.03
2020-08-10 16:9:34.6570,-0.06,0.0,0.01
2020-08-10 16:9:34.7230,-0.05,-0.08,0.06
2020-08-10 16:9:34.8050,0.14,-0.3,-0.08
2020-08-10 16:9:34.8950,0.42,-0.43,0.15
2020-08-10 16:9:34.9980,0.1,-0.07,0.14
2020-08-10 16:9:35.0750,0.85,0.4,-0.07
2020-08-10 16:9:35.1770,0.63,0.36,-0.08
2020-08-10 16:9:35.2630,0.11,-0.21,0.01
2020-08-10 16:9:35.3620,-0.44,-0.36,0.19
2020-08-10 16:9:35.4570,-0.87,-0.49,0.21
2020-08-10 16:9:35.5600,-1.33,-0.21,-0.09
2020-08-10 16:9:35.6460,-0.94,-0.59,-0.27
2020-08-10 16:9:35.7460,-0.48,-0.08,0.21
2020-08-10 16:9:35.7950,-0.05,-0.0,-0.04
2020-08-10 16:9:35.9000,-0.02,-0.0,0.09
2020-08-10 16:9:35.9890,-0.14,0.01,0.03
2020-08-10 16:9:36.0660,-0.14,0.05,0.03
2020-08-10 16:9:36.1550,-0.09,0.01,0.0
2020-08-10 16:9:36.2560,-0.08,0.01,0.03
2020-08-10 16:9:36.3500,-0.02,-0.08,0.01
2020-08-10 16:9:36.4510,0.14,-0.28,0.04
2020-08-10 16:9:36.5480,0.35,-0.37,0.16
2020-08-10 16:9:36.6360,0.27,-0.09,0.08
2020-08-10 16:9:36.7360,0.85,0.36,-0.05
2020-08-10 16:9:36.8000,0.59,0.26,-0.03
2020-08-10 16:9:36.8890,0.05,-0.24,0.02
2020-08-10 16:9:36.9890,-0.5,-0.4,0.12
2020-08-10 16:9:37.0790,-0.94,-0.33,0.17
2020-08-10 16:9:37.1750,-1.28,-0.15,-0.02
2020-08-10 16:9:37.2620,-0.55,-0.61,-0.37
2020-08-10 16:9:37.3560,-0.33,0.05,0.09
2020-08-10 16:9:37.4350,-0.08,-0.04,-0.07
2020-08-10 16:9:37.5400,-0.07,0.02,0.07
2020-08-10 16:9:37.6270,-0.09,0.04,0.03
2020-08-10 16:9:37.7250,-0.22,-0.01,-0.02
2020-08-10 16:9:37.8250,-0.11,0.04,0.01
2020-08-10 16:9:37.8920,-0.08,0.02,0.0
2020-08-10 16:9:37.9740,0.04,-0.08,-0.03
2020-08-10 16:9:38.0700,0.14,-0.3,0.07
2020-08-10 16:9:38.1660,0.33,-0.39,0.15
2020-08-10 16:9:38.2560,0.18,-0.09,0.08
2020-08-10 16:9:38.3460,0.81,0.4,-0.1
2020-08-10 16:9:38.4340,0.57,0.16,-0.03
2020-08-10 16:9:38.5230,0.07,-0.29,0.08
2020-08-10 16:9:38.6170,-0.41,-0.3,0.12
2020-08-10 16:9:38.7210,-0.85,-0.42,0.01
2020-08-10 16:9:38.8120,-1.51,-0.21,-0.05
2020-08-10 16:9:38.9080,-0.29,-0.38,-0.16
2020-08-10 16:9:38.9640,-0.41,-0.15,-0.03
2020-08-10 16:9:39.0740,-0.16,-0.03,-0.01
2020-08-10 16:9:39.1540,-0.06,0.03,0.08
2020-08-10 16:9:39.2450,-0.1,0.02,0.06
2020-08-10 16:9:39.3350,-0.1,0.02,0.01
2020-08-10 16:9:39.4250,-0.1,0.03,0.02
2020-08-10 16:9:39.5160,-0.11,-0.01,-0.02
2020-08-10 16:9:39.6060,-0.1,-0.09,0.03
2020-08-10 16:9:39.7010,0.11,-0.3,-0.03
2020-08-10 16:9:39.8050,0.4,-0.41,0.23
2020-08-10 16:9:39.8980,0.08,0.05,0.08
2020-08-10 16:9:39.9980,0.83,0.41,-0.15
2020-08-10 16:9:40.0620,0.67,0.23,-0.07
2020-08-10 16:9:40.1440,0.13,-0.21,0.05
2020-08-10 16:9:40.2350,-0.46,-0.41,0.17
2020-08-10 16:9:40.3250,-0.9,-0.36,0.18
2020-08-10 16:9:40.4150,-1.42,-0.18,-0.05
2020-08-10 16:9:40.5050,1.39,-0.22,-0.08
2020-08-10 16:9:40.5960,-0.5,-0.09,-0.07
2020-08-10 16:9:40.6980,-0.24,0.02,0.05
2020-08-10 16:9:40.7910,-0.03,-0.0,0.06
2020-08-10 16:9:40.8890,-0.09,0.01,0.05
2020-08-10 16:9:41.0010,-0.13,0.03,0.02
2020-08-10 16:9:41.0530,-0.08,0.01,0.03
2020-08-10 16:9:41.1430,-0.02,-0.01,0.03
2020-08-10 16:9:41.2410,-0.03,-0.09,0.02
2020-08-10 16:9:41.3310,0.15,-0.32,-0.04
2020-08-10 16:9:41.4210,0.33,-0.36,0.13
2020-08-10 16:9:41.5040,0.08,-0.01,0.09
2020-08-10 16:9:41.5850,0.78,0.34,-0.06
2020-08-10 16:9:41.6860,0.61,0.19,-0.06
2020-08-10 16:9:41.7920,0.1,-0.28,0.12
2020-08-10 16:9:41.8930,-0.56,-0.39,0.19
2020-08-10 16:9:41.9800,-1.05,-0.31,0.07
2020-08-10 16:9:42.0790,-1.34,-0.05,0.01
2020-08-10 16:9:42.1270,-1.25,-0.83,-0.41
2020-08-10 16:9:42.2310,-0.25,0.07,0.33
2020-08-10 16:9:42.3090,-0.1,-0.07,-0.07
2020-08-10 16:9:42.4110,-0.07,-0.01,0.03
2020-08-10 16:9:42.5020,-0.13,0.04,0.03
2020-08-10 16:9:42.5910,-0.08,0.05,0.03
2020-08-10 16:9:42.6820,-0.11,0.0,0.01
2020-08-10 16:9:42.7830,-0.02,-0.02,0.01
2020-08-10 16:9:42.8720,-0.01,-0.1,-0.02
2020-08-10 16:9:42.9470,0.18,-0.34,0.02
2020-08-10 16:9:43.0390,0.34,-0.38,0.17
2020-08-10 16:9:43.1200,0.15,-0.04,0.11
2020-08-10 16:9:43.2180,0.78,0.47,-0.11
2020-08-10 16:9:43.3060,0.56,0.19,-0.0
2020-08-10 16:9:43.3960,0.09,-0.3,-0.01
2020-08-10 16:9:43.4810,-0.58,-0.52,0.18
2020-08-10 16:9:43.5740,-1.08,-0.29,0.12
2020-08-10 16:9:43.6770,-1.3,-0.05,-0.0
2020-08-10 16:9:43.7690,-0.42,-0.44,0.16
2020-08-10 16:9:43.8670,-0.25,0.1,0.24
2020-08-10 16:9:43.9780,-0.16,0.0,0.01
2020-08-10 16:9:44.0320,-0.06,0.03,0.02
2020-08-10 16:9:44.1200,-0.1,0.03,0.02
2020-08-10 16:9:44.2120,-0.07,0.02,0.03
2020-08-10 16:9:44.3020,-0.06,0.02,0.02
2020-08-10 16:9:44.3990,-0.02,-0.04,-0.0
2020-08-10 16:9:44.4980,0.01,-0.14,0.02
2020-08-10 16:9:44.5840,0.27,-0.47,0.15
2020-08-10 16:9:44.6780,0.62,-0.56,0.19
2020-08-10 16:9:44.7730,0.4,0.14,0.17
2020-08-10 16:9:44.8600,0.59,0.39,-0.07
2020-08-10 16:9:44.9600,0.31,0.03,-0.06
2020-08-10 16:9:45.0250,-0.06,-0.3,0.12
2020-08-10 16:9:45.1120,-0.45,-0.4,0.17
2020-08-10 16:9:45.2010,-0.9,-0.27,0.09
2020-08-10 16:9:45.2920,-1.18,-0.03,0.03
2020-08-10 16:9:45.3830,0.87,-0.33,-0.4
2020-08-10 16:9:45.4880,-0.44,0.05,0.17
2020-08-10 16:9:45.5640,-0.18,0.0,-0.06
2020-08-10 16:9:45.6680,-0.08,-0.01,0.06
2020-08-10 16:9:45.7620,-0.09,0.04,0.05
2020-08-10 16:9:45.8630,-0.1,0.04,0.03
2020-08-10 16:9:45.9500,-0.03,0.01,0.0
2020-08-10 16:9:46.0150,-0.04,0.0,0.02
2020-08-10 16:9:46.1020,-0.03,-0.02,-0.0
2020-08-10 16:9:46.1950,0.06,-0.27,-0.01
2020-08-10 16:9:46.2820,0.31,-0.47,0.13
2020-08-10 16:9:46.3800,0.23,-0.23,0.11
2020-08-10 16:9:46.4620,0.82,0.3,-0.06
2020-08-10 16:9:46.5530,0.72,0.45,-0.05
2020-08-10 16:9:46.6420,0.19,-0.28,-0.08
2020-08-10 16:9:46.7360,-0.45,-0.5,0.1
2020-08-10 16:9:46.8430,-0.79,-0.34,0.17
2020-08-10 16:9:46.9330,-1.08,-0.09,-0.06
2020-08-10 16:9:47.0330,0.08,-0.11,-0.05
2020-08-10 16:9:47.1080,-0.31,-0.31,-0.05
2020-08-10 16:9:47.1820,-0.14,0.01,0.07
2020-08-10 16:9:47.2720,-0.13,0.01,0.06
2020-08-10 16:9:47.3700,-0.08,0.02,0.04
2020-08-10 16:9:47.4510,-0.12,0.02,-0.0
2020-08-10 16:9:47.5430,-0.04,0.02,0.02
2020-08-10 16:9:47.6330,-0.04,0.02,0.0
2020-08-10 16:9:47.7280,-0.04,-0.04,-0.01
2020-08-10 16:9:47.8260,0.01,-0.27,-0.03
2020-08-10 16:9:47.9230,0.21,-0.42,0.23
2020-08-10 16:9:48.0220,0.51,-0.41,0.1
2020-08-10 16:9:48.0980,0.47,0.14,0.11
2020-08-10 16:9:48.1890,0.68,0.26,-0.05
2020-08-10 16:9:48.2780,0.35,-0.04,-0.05
2020-08-10 16:9:48.3600,-0.1,-0.4,0.11
2020-08-10 16:9:48.4560,-0.69,-0.43,0.05
2020-08-10 16:9:48.5490,-1.2,-0.21,0.1
2020-08-10 16:9:48.6320,-0.92,-0.18,0.03
2020-08-10 16:9:48.7200,-0.39,-0.56,0.06
2020-08-10 16:9:48.8180,-0.12,-0.01,0.01
2020-08-10 16:9:48.9180,-0.18,0.0,0.04
2020-08-10 16:9:49.0330,-0.11,0.01,0.01
2020-08-10 16:9:49.0850,-0.06,0.02,0.02
2020-08-10 16:9:49.1650,-0.03,0.05,0.01
2020-08-10 16:9:49.2550,-0.03,0.05,-0.02
2020-08-10 16:9:49.3450,-0.03,-0.08,0.01
2020-08-10 16:9:49.4480,0.07,-0.23,-0.02
2020-08-10 16:9:49.5390,0.28,-0.37,0.09
2020-08-10 16:9:49.6170,0.64,-0.42,0.25
2020-08-10 16:9:49.7180,0.44,0.02,0.09
2020-08-10 16:9:49.8110,0.62,0.35,-0.05
2020-08-10 16:9:49.9100,0.31,-0.01,-0.05
2020-08-10 16:9:49.9750,-0.11,-0.32,0.12
2020-08-10 16:9:50.0740,-0.61,-0.45,0.03
2020-08-10 16:9:50.1540,-1.23,-0.17,0.05
2020-08-10 16:9:50.2570,-0.85,-0.22,0.01
2020-08-10 16:9:50.3610,-0.28,-0.2,0.02
2020-08-10 16:9:50.4500,-0.09,0.0,0.03
2020-08-10 16:9:50.5350,-0.12,0.03,0.06
2020-08-10 16:9:50.6280,-0.1,-0.0,-0.02
2020-08-10 16:9:50.7210,-0.09,0.04,0.03
2020-08-10 16:9:50.8010,-0.02,0.03,-0.01
2020-08-10 16:9:50.9000,-0.01,0.04,0.0
2020-08-10 16:9:50.9990,-0.04,-0.07,-0.01
2020-08-10 16:9:51.0980,0.09,-0.25,0.03
2020-08-10 16:9:51.1630,0.38,-0.47,0.13
2020-08-10 16:9:51.2620,0.42,-0.46,0.19
2020-08-10 16:9:51.3510,1.1,0.24,0.02
2020-08-10 16:9:51.4410,0.71,0.28,0.04
2020-08-10 16:9:51.5300,0.2,-0.13,-0.08
2020-08-10 16:9:51.6190,-0.09,-0.36,0.1
2020-08-10 16:9:51.7100,-0.82,-0.46,0.09
2020-08-10 16:9:51.7970,-1.2,-0.22,-0.05
2020-08-10 16:9:51.9010,1.45,-0.24,-0.13
2020-08-10 16:9:51.9890,-0.2,-0.14,0.09
2020-08-10 16:9:52.0870,0.01,-0.02,-0.1
2020-08-10 16:9:52.1870,-0.02,0.01,0.08
2020-08-10 16:9:52.2540,-0.15,0.01,-0.0
2020-08-10 16:9:52.3430,-0.09,0.03,0.02
2020-08-10 16:9:52.4320,-0.08,0.02,0.01
2020-08-10 16:9:52.5200,-0.05,-0.0,0.03
2020-08-10 16:9:52.6090,0.02,-0.08,-0.01
2020-08-10 16:9:52.6990,0.14,-0.29,0.02
2020-08-10 16:9:52.7890,0.52,-0.55,0.22
2020-08-10 16:9:52.8800,0.14,-0.09,0.11
2020-08-10 16:9:52.9810,0.92,0.48,-0.15
2020-08-10 16:9:53.0800,0.68,0.26,-0.06
2020-08-10 16:9:53.1780,0.07,-0.25,-0.01
2020-08-10 16:9:53.2440,-0.37,-0.33,0.2
2020-08-10 16:9:53.3240,-0.72,-0.43,0.05
2020-08-10 16:9:53.4230,-1.13,-0.11,-0.11
2020-08-10 16:9:53.5110,-0.2,-0.18,0.09
2020-08-10 16:9:53.6000,-0.3,-0.29,-0.26
2020-08-10 16:9:53.6910,-0.28,0.05,0.16
2020-08-10 16:9:53.7840,-0.08,0.03,0.11
2020-08-10 16:9:53.8750,-0.08,0.02,0.0
2020-08-10 16:9:53.9760,-0.08,0.02,0.02
2020-08-10 16:9:54.0710,-0.07,0.0,-0.01
2020-08-10 16:9:54.1790,-0.05,0.03,-0.01
2020-08-10 16:9:54.2710,-0.05,-0.05,-0.02
2020-08-10 16:9:54.3250,0.03,-0.17,-0.03
2020-08-10 16:9:54.4160,0.31,-0.45,0.11
2020-08-10 16:9:54.5050,0.55,-0.41,0.2
2020-08-10 16:9:54.5980,0.38,0.09,0.17
2020-08-10 16:9:54.6990,0.75,0.33,-0.05
2020-08-10 16:9:54.7890,0.32,-0.09,-0.11
2020-08-10 16:9:54.8780,-0.3,-0.44,0.18
2020-08-10 16:9:54.9680,-0.78,-0.5,0.09
2020-08-10 16:9:55.0700,-1.38,-0.21,-0.07
2020-08-10 16:9:55.1700,-0.02,-0.18,0.08
2020-08-10 16:9:55.2600,-0.33,-0.24,0.03
2020-08-10 16:9:55.3270,-0.07,0.01,-0.06
2020-08-10 16:9:55.4150,-0.16,-0.03,0.05
2020-08-10 16:9:55.5010,-0.07,0.01,0.01
2020-08-10 16:9:55.5970,-0.07,0.01,0.01
2020-08-10 16:9:55.6890,-0.03,0.02,-0.03
2020-08-10 16:9:55.7790,-0.05,-0.01,0.02
2020-08-10 16:9:55.8690,-0.04,-0.08,-0.02
2020-08-10 16:9:55.9600,0.15,-0.32,0.02
2020-08-10 16:9:56.0560,0.44,-0.45,0.23
2020-08-10 16:9:56.1540,0.16,0.11,0.06
2020-08-10 16:9:56.2500,0.93,0.39,-0.18
2020-08-10 16:9:56.3510,0.58,0.16,-0.03
2020-08-10 16:9:56.4160,0.17,-0.22,-0.06
2020-08-10 16:9:56.5120,-0.44,-0.38,0.12
2020-08-10 16:9:56.5960,-0.91,-0.38,0.15
2020-08-10 16:9:56.6840,-1.18,-0.16,-0.09
2020-08-10 16:9:56.7820,1.34,-0.26,-0.29
2020-08-10 16:9:56.8720,-0.38,0.03,-0.03
2020-08-10 16:9:56.9580,-0.4,-0.03,-0.07
2020-08-10 16:9:57.0500,-0.04,0.01,0.1
2020-08-10 16:9:57.1450,-0.09,0.03,0.06
2020-08-10 16:9:57.2490,-0.1,0.01,0.01
2020-08-10 16:9:57.3420,-0.06,-0.0,-0.01
2020-08-10 16:9:57.4150,-0.04,-0.01,-0.05
2020-08-10 16:9:57.5040,-0.03,-0.08,-0.01
2020-08-10 16:9:57.5960,0.11,-0.31,0.01
2020-08-10 16:9:57.6750,0.35,-0.3,0.11
2020-08-10 16:9:57.7670,0.29,-0.29,0.12
2020-08-10 16:9:57.8620,1.03,0.26,0.1
2020-08-10 16:9:57.9510,0.7,0.31,-0.06
2020-08-10 16:9:58.0420,0.18,-0.18,-0.04
2020-08-10 16:9:58.1350,-0.34,-0.37,0.15
2020-08-10 16:9:58.2320,-0.73,-0.48,0.01
2020-08-10 16:9:58.3310,-1.25,-0.18,0.08
2020-08-10 16:9:58.4310,1.2,-0.14,-0.01
2020-08-10 16:9:58.4950,-0.38,-0.17,0.02
2020-08-10 16:9:58.5840,-0.06,0.01,-0.07
2020-08-10 16:9:58.6740,-0.08,0.02,0.04
2020-08-10 16:9:58.7650,-0.08,-0.01,0.01
2020-08-10 16:9:58.8550,-0.06,0.01,0.01
2020-08-10 16:9:58.9470,-0.05,0.02,0.01
2020-08-10 16:9:59.0500,-0.03,0.0,0.01
2020-08-10 16:9:59.1280,0.02,-0.02,-0.03
2020-08-10 16:9:59.2290,0.11,-0.32,0.03
2020-08-10 16:9:59.3280,0.46,-0.55,0.11
2020-08-10 16:9:59.4260,0.23,0.14,0.04
2020-08-10 16:9:59.5220,0.7,0.39,-0.17
2020-08-10 16:9:59.5880,0.62,0.23,0.0
2020-08-10 16:9:59.6680,0.29,-0.18,-0.02
2020-08-10 16:9:59.7660,-0.26,-0.4,0.17
2020-08-10 16:9:59.8530,-0.67,-0.46,0.09
2020-08-10 16:9:59.9450,-1.34,-0.14,0.05
2020-08-10 16:10:00.0400,0.97,-0.15,-0.09
2020-08-10 16:10:00.1160,-0.3,-0.18,-0.01
2020-08-10 16:10:00.2200,-0.22,-0.04,-0.09
2020-08-10 16:10:00.3170,-0.12,0.03,0.08
2020-08-10 16:10:00.4160,-0.1,0.01,0.01
2020-08-10 16:10:00.4820,-0.12,0.0,0.03
2020-08-10 16:10:00.5670,-0.07,0.01,0.02
2020-08-10 16:10:00.6580,-0.02,0.04,0.02
2020-08-10 16:10:00.7560,-0.04,-0.03,0.01
2020-08-10 16:10:00.8460,0.03,-0.19,-0.02
2020-08-10 16:10:00.9330,0.37,-0.48,0.09
2020-08-10 16:10:01.0310,0.54,-0.44,0.21
2020-08-10 16:10:01.1200,0.8,0.24,0.15
2020-08-10 16:10:01.2110,0.68,0.34,-0.08
2020-08-10 16:10:01.3050,0.2,-0.06,-0.05
2020-08-10 16:10:01.4070,-0.23,-0.41,0.19
2020-08-10 16:10:01.5040,-0.71,-0.47,0.19
2020-08-10 16:10:01.5690,-1.23,-0.18,0.05
2020-08-10 16:10:01.6480,-0.83,-0.24,-0.1
2020-08-10 16:10:01.7470,-0.29,-0.32,-0.02
2020-08-10 16:10:01.8330,-0.27,0.03,0.17
2020-08-10 16:10:01.9260,-0.15,-0.01,0.02
2020-08-10 16:10:02.0200,-0.09,-0.0,-0.01
2020-08-10 16:10:02.1140,-0.1,0.04,0.03
2020-08-10 16:10:02.2010,-0.04,0.04,0.0
2020-08-10 16:10:02.2960,-0.02,0.05,0.02
2020-08-10 16:10:02.3960,0.02,-0.02,-0.0
2020-08-10 16:10:02.4940,0.03,-0.15,0.0
2020-08-10 16:10:02.6030,0.31,-0.51,0.16
2020-08-10 16:10:02.6580,0.5,-0.4,0.14
2020-08-10 16:10:02.7400,0.57,0.16,0.04
2020-08-10 16:10:02.8320,0.67,0.24,-0.05
2020-08-10 16:10:02.9290,0.25,-0.09,-0.09
2020-08-10 16:10:03.0230,-0.18,-0.37,0.14
2020-08-10 16:10:03.1170,-0.57,-0.46,0.13
2020-08-10 16:10:03.1910,-1.22,-0.16,0.07
2020-08-10 16:10:03.2820,-1.19,-0.09,-0.08
2020-08-10 16:10:03.3780,-0.22,-0.61,-0.04
2020-08-10 16:10:03.4770,-0.32,0.02,0.18
2020-08-10 16:10:03.5760,-0.17,-0.02,-0.02
2020-08-10 16:10:03.6410,-0.05,0.04,0.03
2020-08-10 16:10:03.7310,-0.08,0.03,0.02
2020-08-10 16:10:03.8370,-0.03,0.03,0.0
2020-08-10 16:10:03.9120,-0.1,-0.01,0.02
2020-08-10 16:10:04.0090,-0.09,0.0,0.05
2020-08-10 16:10:04.1030,-0.01,-0.14,0.0
2020-08-10 16:10:04.1970,0.24,-0.38,0.02
2020-08-10 16:10:04.2760,0.33,-0.45,0.13
2020-08-10 16:10:04.3690,0.26,0.13,0.07
2020-08-10 16:10:04.4690,0.67,0.51,-0.07
2020-08-10 16:10:04.5680,0.73,-0.01,-0.03
2020-08-10 16:10:04.6330,-0.01,-0.39,0.16
2020-08-10 16:10:04.7220,-0.46,-0.44,0.14
2020-08-10 16:10:04.8140,-0.92,-0.22,-0.04
2020-08-10 16:10:04.9020,-1.21,-0.08,-0.08
2020-08-10 16:10:05.0000,-0.79,-0.65,-0.07
2020-08-10 16:10:05.0930,-0.36,0.07,0.36
2020-08-10 16:10:05.1880,-0.19,-0.07,-0.08
2020-08-10 16:10:05.2720,-0.14,0.0,0.04
2020-08-10 16:10:05.3670,-0.12,0.05,0.04
2020-08-10 16:10:05.4600,-0.07,0.04,-0.01
2020-08-10 16:10:05.5580,-0.05,0.04,0.01
2020-08-10 16:10:05.6660,-0.07,-0.03,0.02
2020-08-10 16:10:05.7230,-0.01,-0.11,-0.0
2020-08-10 16:10:05.8050,0.14,-0.27,-0.01
2020-08-10 16:10:05.9070,0.36,-0.38,0.17
2020-08-10 16:10:05.9850,0.15,-0.15,0.12
2020-08-10 16:10:06.0870,0.93,0.25,0.0
2020-08-10 16:10:06.1690,0.69,0.16,0.01
2020-08-10 16:10:06.2680,0.21,-0.2,-0.11
2020-08-10 16:10:06.3680,-0.58,-0.34,0.15
2020-08-10 16:10:06.4520,-1.02,-0.48,0.05
2020-08-10 16:10:06.5490,-1.3,-0.16,-0.06
2020-08-10 16:10:06.6580,-0.23,-0.41,-0.07
2020-08-10 16:10:06.7470,-0.21,0.05,0.15
2020-08-10 16:10:06.8450,-0.21,-0.06,-0.02
2020-08-10 16:10:06.9110,-0.12,0.01,0.0
2020-08-10 16:10:06.9880,-0.12,0.04,-0.0
2020-08-10 16:10:07.0900,-0.05,0.08,0.02
2020-08-10 16:10:07.1790,-0.01,0.02,0.0
2020-08-10 16:10:07.2670,-0.01,-0.02,-0.0
2020-08-10 16:10:07.3580,0.01,-0.15,-0.03
2020-08-10 16:10:07.4410,0.27,-0.37,0.0
2020-08-10 16:10:07.5390,0.43,-0.38,0.16
2020-08-10 16:10:07.6380,0.21,0.14,0.18
2020-08-10 16:10:07.7430,0.76,0.33,0.01
2020-08-10 16:10:07.8370,0.48,0.04,-0.05
2020-08-10 16:10:07.9020,-0.15,-0.35,0.12
2020-08-10 16:10:07.9920,-0.61,-0.51,-0.02
2020-08-10 16:10:08.0810,-1.24,-0.17,0.26
2020-08-10 16:10:08.1650,-1.17,-0.07,0.08
2020-08-10 16:10:08.2590,-0.72,-0.41,-0.15
2020-08-10 16:10:08.3460,-0.26,0.07,0.26
2020-08-10 16:10:08.4430,-0.09,-0.05,-0.09
2020-08-10 16:10:08.5300,-0.13,0.02,0.04
2020-08-10 16:10:08.6290,-0.15,0.04,0.06
2020-08-10 16:10:08.7280,-0.11,0.01,0.02
2020-08-10 16:10:08.7940,-0.05,0.02,0.03
2020-08-10 16:10:08.8930,-0.07,-0.02,0.02
2020-08-10 16:10:08.9820,-0.02,-0.14,0.0
2020-08-10 16:10:09.0640,0.19,-0.44,0.01
2020-08-10 16:10:09.1480,0.28,-0.57,0.14
2020-08-10 16:10:09.2390,0.24,0.1,0.08
2020-08-10 16:10:09.3370,0.62,0.43,0.02
2020-08-10 16:10:09.4340,0.44,0.03,-0.03
2020-08-10 16:10:09.5210,-0.08,-0.37,0.08
2020-08-10 16:10:09.6200,-0.58,-0.32,0.18
2020-08-10 16:10:09.7190,-1.04,-0.26,-0.03
2020-08-10 16:10:09.8180,-1.24,-0.14,-0.03
2020-08-10 16:10:09.8830,-0.25,-0.46,0.03
2020-08-10 16:10:09.9730,-0.42,-0.02,0.1
2020-08-10 16:10:10.0530,-0.22,-0.0,0.04
2020-08-10 16:10:10.1510,-0.08,0.02,0.02
2020-08-10 16:10:10.2400,-0.12,0.03,0.05
2020-08-10 16:10:10.3340,-0.08,0.02,0.01
2020-08-10 16:10:10.4150,-0.04,0.02,0.01
2020-08-10 16:10:10.5150,-0.08,-0.01,0.01
2020-08-10 16:10:10.6130,0.03,-0.15,0.04
2020-08-10 16:10:10.7120,0.32,-0.46,-0.02
2020-08-10 16:10:10.8090,0.41,-0.5,0.23
2020-08-10 16:10:10.9180,0.34,0.23,0.2
2020-08-10 16:10:10.9640,0.76,0.45,-0.04
2020-08-10 16:10:11.0530,0.33,0.0,-0.1
2020-08-10 16:10:11.1530,-0.05,-0.33,0.17
2020-08-10 16:10:11.2360,-0.33,-0.28,0.13
2020-08-10 16:10:11.3380,-1.05,-0.28,0.02
2020-08-10 16:10:11.4160,-1.39,-0.11,0.02
2020-08-10 16:10:11.5190,-0.54,-0.59,-0.22
2020-08-10 16:10:11.6180,-0.3,-0.04,0.18
2020-08-10 16:10:11.7020,0.01,-0.03,-0.06
2020-08-10 16:10:11.8000,-0.04,0.03,0.05
2020-08-10 16:10:11.9090,-0.11,0.04,0.01
2020-08-10 16:10:11.9640,-0.07,0.04,0.01
2020-08-10 16:10:12.0420,-0.04,0.03,0.01
2020-08-10 16:10:12.1370,-0.03,-0.05,-0.0
2020-08-10 16:10:12.2370,0.03,-0.15,-0.0
2020-08-10 16:10:12.3140,0.22,-0.29,-0.04
2020-08-10 16:10:12.4060,0.34,-0.41,0.12
2020-08-10 16:10:12.5100,0.27,0.03,0.07
2020-08-10 16:10:12.6040,0.92,0.45,-0.12
2020-08-10 16:10:12.7040,0.64,0.2,-0.12
2020-08-10 16:10:12.7900,0.07,-0.28,-0.01
2020-08-10 16:10:12.8560,-0.49,-0.36,0.17
2020-08-10 16:10:12.9430,-0.94,-0.36,0.11
2020-08-10 16:10:13.0340,-1.28,-0.08,0.02
2020-08-10 16:10:13.1240,-1.41,-0.7,-0.03
2020-08-10 16:10:13.2210,-0.14,0.1,0.18
2020-08-10 16:10:13.3190,-0.14,-0.06,-0.08
2020-08-10 16:10:13.3960,-0.05,0.01,0.0
2020-08-10 16:10:13.4910,-0.06,0.05,0.03
2020-08-10 16:10:13.5820,-0.02,0.02,0.02
2020-08-10 16:10:13.6940,-0.05,-0.01,-0.03
2020-08-10 16:10:13.7800,-0.04,-0.01,0.02
2020-08-10 16:10:13.8460,0.04,-0.2,-0.05
2020-08-10 16:10:13.9360,0.31,-0.43,0.1
2020-08-10 16:10:14.0260,0.51,-0.33,0.17
2020-08-10 16:10:14.1160,0.81,0.18,0.06
2020-08-10 16:10:14.2190,0.6,0.23,-0.02
2020-08-10 16:10:14.2960,0.34,-0.09,-0.08
2020-08-10 16:10:14.3890,-0.06,-0.36,0.07
2020-08-10 16:10:14.4890,-0.58,-0.36,0.14
2020-08-10 16:10:14.5820,-1.04,-0.16,0.02
2020-08-10 16:10:14.6730,-1.05,-0.04,0.0
2020-08-10 16:10:14.7710,-0.41,-0.56,-0.09
2020-08-10 16:10:14.8700,-0.25,0.05,0.25
2020-08-10 16:10:14.9700,-0.07,-0.01,-0.07
2020-08-10 16:10:15.0680,-0.09,0.01,-0.02
2020-08-10 16:10:15.1340,-0.1,0.04,0.02
2020-08-10 16:10:15.2240,-0.03,0.05,0.01
2020-08-10 16:10:15.3040,-0.02,0.03,-0.01
2020-08-10 16:10:15.4030,0.02,-0.07,0.01
2020-08-10 16:10:15.4910,0.07,-0.16,-0.01
2020-08-10 16:10:15.5800,0.25,-0.45,0.14
2020-08-10 16:10:15.6740,0.57,-0.46,0.15
2020-08-10 16:10:15.7650,0.73,0.21,0.13
2020-08-10 16:10:15.8610,0.71,0.29,-0.04
2020-08-10 16:10:15.9610,0.25,-0.15,-0.03
2020-08-10 16:10:16.0350,-0.14,-0.37,0.11
2020-08-10 16:10:16.1250,-0.58,-0.44,0.12
2020-08-10 16:10:16.2150,-1.14,-0.18,-0.01
2020-08-10 16:10:16.2940,-0.2,-0.16,-0.0
2020-08-10 16:10:16.3930,-0.28,-0.26,0.07
2020-08-10 16:10:16.4820,-0.1,0.01,0.0
2020-08-10 16:10:16.5710,-0.07,0.0,0.07
2020-08-10 16:10:16.6610,-0.12,-0.02,-0.01
2020-08-10 16:10:16.7540,-0.1,0.04,-0.0
2020-08-10 16:10:16.8520,-0.09,0.01,-0.03
2020-08-10 16:10:16.9510,-0.06,0.02,0.01
2020-08-10 16:10:17.0600,0.01,-0.05,-0.01
2020-08-10 16:10:17.0980,0.08,-0.13,0.03
2020-08-10 16:10:17.1960,0.4,-0.5,0.08
2020-08-10 16:10:17.2890,0.41,-0.34,0.18
2020-08-10 16:10:17.3790,0.67,0.07,0.06
2020-08-10 16:10:17.4730,0.67,0.33,0.0
2020-08-10 16:10:17.5620,0.38,-0.05,-0.07
2020-08-10 16:10:17.6520,-0.04,-0.27,0.11
2020-08-10 16:10:17.7450,-0.6,-0.33,0.2
2020-08-10 16:10:17.8430,-1.17,-0.22,-0.03
2020-08-10 16:10:17.9410,-1.04,-0.14,0.07
2020-08-10 16:10:18.0410,-0.35,-0.45,0.08
2020-08-10 16:10:18.1060,-0.26,0.11,0.21
2020-08-10 16:10:18.1950,-0.15,-0.07,-0.09
2020-08-10 16:10:18.2840,-0.06,0.0,0.0
2020-08-10 16:10:18.3810,-0.09,0.05,0.03
2020-08-10 16:10:18.4680,-0.04,0.04,-0.01
2020-08-10 16:10:18.5560,-0.01,0.05,-0.0
2020-08-10 16:10:18.6470,0.05,-0.04,-0.03
2020-08-10 16:10:18.7360,0.05,-0.15,-0.02
2020-08-10 16:10:18.8330,0.33,-0.54,0.06
2020-08-10 16:10:18.9420,0.46,-0.31,0.15
2020-08-10 16:10:19.0050,0.23,0.1,0.14
2020-08-10 16:10:19.0960,0.69,0.34,0.05
2020-08-10 16:10:19.1860,0.62,0.1,-0.03
2020-08-10 16:10:19.2750,0.1,-0.33,0.07
2020-08-10 16:10:19.3660,-0.38,-0.34,0.09
2020-08-10 16:10:19.4580,-0.92,-0.21,0.07
2020-08-10 16:10:19.5440,-1.2,-0.12,-0.09
2020-08-10 16:10:19.6500,-1.19,-0.7,-0.32
2020-08-10 16:10:19.7260,-0.26,-0.0,0.24
2020-08-10 16:10:19.8240,-0.15,-0.03,-0.03
2020-08-10 16:10:19.9250,0.03,0.03,0.02
2020-08-10 16:10:20.0210,-0.05,0.04,-0.0
2020-08-10 16:10:20.0870,-0.05,0.0,-0.01
2020-08-10 16:10:20.1790,-0.02,0.01,0.02
2020-08-10 16:10:20.2660,-0.01,-0.02,-0.02
2020-08-10 16:10:20.3550,-0.03,-0.05,0.01
2020-08-10 16:10:20.4450,0.09,-0.28,0.0
2020-08-10 16:10:20.5380,0.31,-0.53,0.24
2020-08-10 16:10:20.6380,0.18,-0.1,0.08
2020-08-10 16:10:20.7300,0.75,0.33,-0.1
2020-08-10 16:10:20.8200,0.68,0.11,-0.06
2020-08-10 16:10:20.9160,0.21,-0.24,0.05
2020-08-10 16:10:21.0160,-0.21,-0.27,0.13
2020-08-10 16:10:21.1140,-0.64,-0.39,0.03
2020-08-10 16:10:21.1670,-1.17,-0.16,-0.0
2020-08-10 16:10:21.2700,0.09,-0.15,0.02
2020-08-10 16:10:21.3530,-0.3,-0.11,-0.09
2020-08-10 16:10:21.4470,-0.06,0.01,0.04
2020-08-10 16:10:21.5330,-0.09,0.01,0.02
2020-08-10 16:10:21.6260,-0.05,0.01,0.0
2020-08-10 16:10:21.7250,-0.03,0.05,0.01
2020-08-10 16:10:21.8210,-0.06,0.0,-0.04
2020-08-10 16:10:21.9070,0.06,0.07,0.02
2020-08-10 16:10:22.0060,0.03,0.01,-0.05
2020-08-10 16:10:22.1050,0.02,-0.1,0.05
2020-08-10 16:10:22.2140,0.29,-0.47,0.03
2020-08-10 16:10:22.2760,0.31,-0.35,0.17
2020-08-10 16:10:22.3500,0.43,0.09,0.19
2020-08-10 16:10:22.4570,0.75,0.37,-0.04
2020-08-10 16:10:22.5310,0.49,-0.02,-0.12
2020-08-10 16:10:22.6340,-0.0,-0.35,0.09
2020-08-10 16:10:22.7270,-0.47,-0.41,0.14
2020-08-10 16:10:22.8020,-0.99,-0.16,0.17
2020-08-10 16:10:22.9070,-1.08,-0.13,-0.0
2020-08-10 16:10:23.0100,-0.81,-0.44,0.14
2020-08-10 16:10:23.0980,0.02,0.06,0.04
2020-08-10 16:10:23.1980,-0.01,-0.03,0.04
2020-08-10 16:10:23.2620,-0.07,0.03,-0.01
2020-08-10 16:10:23.3440,-0.04,0.06,-0.03
2020-08-10 16:10:23.4340,-0.03,0.03,0.01
2020-08-10 16:10:23.5310,0.03,0.01,-0.01
2020-08-10 16:10:23.6270,-0.03,-0.08,-0.09
2020-08-10 16:10:23.7170,0.11,-0.22,0.02
2020-08-10 16:10:23.8020,0.29,-0.42,0.06
2020-08-10 16:10:23.8970,0.51,-0.47,0.17
2020-08-10 16:10:24.0010,0.59,0.14,0.28
2020-08-10 16:10:24.0880,0.6,0.35,-0.09
2020-08-10 16:10:24.1870,0.25,-0.1,-0.05
2020-08-10 16:10:24.2520,-0.13,-0.32,0.11
2020-08-10 16:10:24.3340,-0.67,-0.48,0.06
2020-08-10 16:10:24.4250,-1.24,-0.18,0.05
2020-08-10 16:10:24.5290,1.37,-0.25,-0.24
2020-08-10 16:10:24.6150,-0.31,-0.08,-0.11
2020-08-10 16:10:24.7060,-0.11,0.02,0.07
2020-08-10 16:10:24.7950,0.01,0.01,0.03
2020-08-10 16:10:24.8880,-0.0,0.01,0.02
2020-08-10 16:10:24.9810,-0.02,0.0,-0.01
2020-08-10 16:10:25.0810,0.01,0.02,-0.0
2020-08-10 16:10:25.1780,-0.02,0.0,0.01
2020-08-10 16:10:25.2770,-0.04,-0.08,-0.02
2020-08-10 16:10:25.3750,0.15,-0.29,0.02
2020-08-10 16:10:25.4420,0.47,-0.42,0.26
2020-08-10 16:10:25.5310,0.24,0.05,0.03
2020-08-10 16:10:25.6120,0.95,0.29,0.1
2020-08-10 16:10:25.7000,0.69,0.24,-0.06
2020-08-10 16:10:25.7980,0.22,-0.11,-0.03
2020-08-10 16:10:25.8840,-0.27,-0.34,0.18
2020-08-10 16:10:25.9830,-0.76,-0.39,0.04
2020-08-10 16:10:26.0760,-1.15,-0.2,0.03
2020-08-10 16:10:26.1790,1.58,-0.25,0.18
2020-08-10 16:10:26.2680,-0.38,-0.04,-0.03
2020-08-10 16:10:26.3670,-0.23,-0.04,-0.02
2020-08-10 16:10:26.4330,-0.13,0.02,0.11
2020-08-10 16:10:26.5220,-0.08,0.01,0.05
2020-08-10 16:10:26.6030,-0.23,-0.06,-0.01
2020-08-10 16:10:26.6880,-0.13,0.02,0.04
2020-08-10 16:10:26.7830,-0.09,0.04,0.0
2020-08-10 16:10:26.8720,-0.1,-0.01,0.02
2020-08-10 16:10:26.9670,-0.01,-0.22,0.08
2020-08-10 16:10:27.0620,0.13,-0.46,0.16
2020-08-10 16:10:27.1600,0.36,-0.12,0.09
2020-08-10 16:10:27.2600,0.9,0.23,0.1
2020-08-10 16:10:27.3580,0.64,0.29,0.01
2020-08-10 16:10:27.4220,0.26,-0.12,-0.07
2020-08-10 16:10:27.5120,-0.2,-0.4,0.09
2020-08-10 16:10:27.6010,-0.66,-0.44,0.02
2020-08-10 16:10:27.6910,-1.26,-0.19,0.04
2020-08-10 16:10:27.7740,-1.04,-0.24,-0.01
2020-08-10 16:10:27.8690,-0.41,-0.32,0.1
2020-08-10 16:10:27.9520,-0.04,0.08,0.05
2020-08-10 16:10:28.0530,-0.15,0.01,0.1
2020-08-10 16:10:28.1630,-0.14,0.0,0.05
2020-08-10 16:10:28.2500,-0.13,0.03,0.03
2020-08-10 16:10:28.3490,-0.11,0.03,0.01
2020-08-10 16:10:28.3990,-0.13,0.03,0.05
2020-08-10 16:10:28.5020,-0.1,-0.0,0.02
2020-08-10 16:10:28.5790,0.03,-0.11,0.07
2020-08-10 16:10:28.6830,0.21,-0.42,0.13
2020-08-10 16:10:28.7730,0.31,-0.19,0.07
2020-08-10 16:10:28.8610,0.65,0.35,-0.12
2020-08-10 16:10:28.9510,0.49,0.4,-0.02
2020-08-10 16:10:29.0520,0.19,0.14,-0.04
2020-08-10 16:10:29.1510,-0.51,-0.26,-0.08
2020-08-10 16:10:29.2420,-0.71,-0.11,-0.0
2020-08-10 16:10:29.3100,-0.88,0.0,0.0
2020-08-10 16:10:29.4050,-0.47,-0.35,-0.29
2020-08-10 16:10:29.4850,-0.13,0.05,0.26
2020-08-10 16:10:29.5840,-0.16,-0.02,-0.01
2020-08-10 16:10:29.6730,-0.08,0.04,0.06
2020-08-10 16:10:29.7710,-0.13,0.03,0.09
2020-08-10 16:10:29.8570,-0.28,-0.0,-0.03
2020-08-10 16:10:29.9580,-0.33,0.02,0.01
2020-08-10 16:10:30.0460,-0.08,0.06,0.05
2020-08-10 16:10:30.1390,-0.12,0.03,0.04
2020-08-10 16:10:30.2440,-0.16,0.08,0.05
2020-08-10 16:10:30.3410,-0.11,0.03,0.02
2020-08-10 16:10:30.4080,-0.11,0.06,0.05
2020-08-10 16:10:30.4950,-0.09,0.01,-0.02
2020-08-10 16:10:30.5740,-0.02,0.03,0.0
2020-08-10 16:10:30.6700,-0.01,0.04,0.02
2020-08-10 16:10:30.7620,-0.02,0.05,-0.01
2020-08-10 16:10:30.8580,-0.03,0.04,-0.01
2020-08-10 16:10:30.9470,0.01,0.01,0.0
2020-08-10 16:10:31.0380,0.03,0.03,0.05
2020-08-10 16:10:31.1270,-0.02,0.04,0.0
2020-08-10 16:10:31.2220,-0.03,0.04,0.01
2020-08-10 16:10:31.3260,-0.0,0.03,0.03
2020-08-10 16:10:31.3990,0.01,0.03,0.01
2020-08-10 16:10:31.5220,-0.06,0.01,-0.01
2020-08-10 16:10:31.5860,0.2,0.06,0.02
2020-08-10 16:10:31.6840,-0.04,0.05,-0.03
2020-08-10 16:10:31.7730,0.06,0.05,0.05
2020-08-10 16:10:31.8630,0.03,0.12,-0.07
2020-08-10 16:10:31.9530,-0.01,0.02,-0.03
2020-08-10 16:10:32.0420,-0.09,0.05,0.0
2020-08-10 16:10:32.1210,-0.06,0.07,-0.01
2020-08-10 16:10:32.2200,-0.01,0.04,-0.01
2020-08-10 16:10:32.3230,0.02,0.02,-0.01
2020-08-10 16:10:32.4210,-0.02,0.03,-0.0
2020-08-10 16:10:32.5150,-0.02,0.04,-0.01
2020-08-10 16:10:32.5780,0.12,0.02,-0.07
2020-08-10 16:10:32.6780,-0.01,0.04,-0.03
