time,ax,ay,az
2020-08-13 11:43:05.2610,0.05,0.03,-0.01
2020-08-13 11:43:05.3600,0.06,0.04,-0.03
2020-08-13 11:43:05.4400,-0.05,0.03,-0.0
2020-08-13 11:43:05.5300,0.0,0.03,0.03
2020-08-13 11:43:05.6200,0.04,0.04,-0.03
2020-08-13 11:43:05.7090,0.07,0.05,0.04
2020-08-13 11:43:05.8080,0.02,-0.0,0.04
2020-08-13 11:43:05.8970,-0.06,0.03,-0.03
2020-08-13 11:43:05.9970,0.01,0.02,-0.02
2020-08-13 11:43:06.0930,-0.14,0.04,0.06
2020-08-13 11:43:06.1940,0.03,0.03,-0.04
2020-08-13 11:43:06.2910,-0.11,0.02,0.07
2020-08-13 11:43:06.3490,0.0,0.04,0.01
2020-08-13 11:43:06.4390,0.08,0.01,-0.01
2020-08-13 11:43:06.5310,-0.0,0.02,0.02
2020-08-13 11:43:06.6190,-0.01,0.03,-0.0
2020-08-13 11:43:06.7110,-0.02,0.03,-0.05
2020-08-13 11:43:06.7990,0.01,0.01,-0.02
2020-08-13 11:43:06.8930,-0.03,-0.02,-0.0
2020-08-13 11:43:06.9900,0.02,0.04,0.01
2020-08-13 11:43:07.0870,0.02,-0.0,-0.05
2020-08-13 11:43:07.1850,0.06,0.0,0.03
2020-08-13 11:43:07.2860,0.04,0.05,-0.04
2020-08-13 11:43:07.3830,-0.03,-0.01,-0.05
2020-08-13 11:43:07.4450,0.05,-0.06,0.03
2020-08-13 11:43:07.5500,0.2,-0.29,0.06
2020-08-13 11:43:07.6260,0.36,-0.4,0.02
2020-08-13 11:43:07.7300,0.38,-0.14,0.38
2020-08-13 11:43:07.8130,0.63,0.07,0.08
2020-08-13 11:43:07.9020,0.62,0.35,-0.01
2020-08-13 11:43:08.0000,0.48,0.09,-0.02
2020-08-13 11:43:08.0820,0.07,-0.42,0.06
2020-08-13 11:43:08.1800,-0.32,-0.37,0.14
2020-08-13 11:43:08.2850,-0.51,-0.08,0.09
2020-08-13 11:43:08.3780,-0.65,0.02,0.12
2020-08-13 11:43:08.4830,-0.76,-0.01,-0.0
2020-08-13 11:43:08.5910,-0.44,-0.7,-0.16
2020-08-13 11:43:08.6310,-0.09,0.03,0.15
2020-08-13 11:43:08.7350,-0.03,0.05,0.04
2020-08-13 11:43:08.8240,-0.03,0.04,0.01
2020-08-13 11:43:08.9140,0.1,0.11,0.07
2020-08-13 11:43:08.9900,-0.14,-0.07,-0.11
2020-08-13 11:43:09.0800,-0.05,-0.01,0.03
2020-08-13 11:43:09.1820,-0.01,0.02,-0.0
2020-08-13 11:43:09.2690,0.02,-0.0,-0.04
2020-08-13 11:43:09.3680,-0.03,-0.1,-0.01
2020-08-13 11:43:09.4400,0.02,-0.22,-0.08
2020-08-13 11:43:09.5670,0.33,-0.38,0.02
2020-08-13 11:43:09.6650,0.27,-0.2,0.16
2020-08-13 11:43:09.7240,0.83,0.21,-0.05
2020-08-13 11:43:09.8150,0.71,0.26,-0.05
2020-08-13 11:43:09.9050,0.28,-0.11,-0.07
2020-08-13 11:43:09.9950,0.01,-0.31,0.02
2020-08-13 11:43:10.0870,-0.33,-0.37,0.08
2020-08-13 11:43:10.1820,-0.74,-0.11,0.07
2020-08-13 11:43:10.2670,-0.97,-0.02,-0.01
2020-08-13 11:43:10.3640,1.5,-0.41,0.0
2020-08-13 11:43:10.4610,-0.58,-0.27,-0.34
2020-08-13 11:43:10.5600,-0.1,-0.05,-0.05
2020-08-13 11:43:10.6620,0.04,0.04,0.06
2020-08-13 11:43:10.7560,0.05,0.08,0.05
2020-08-13 11:43:10.8200,-0.33,-0.14,-0.1
2020-08-13 11:43:10.9110,0.0,0.01,-0.02
2020-08-13 11:43:11.0010,0.04,0.04,-0.01
2020-08-13 11:43:11.1040,0.04,-0.0,-0.0
2020-08-13 11:43:11.1950,0.04,-0.11,0.01
2020-08-13 11:43:11.2850,0.15,-0.26,0.0
2020-08-13 11:43:11.3750,0.28,-0.4,-0.1
2020-08-13 11:43:11.4650,0.32,-0.15,0.25
2020-08-13 11:43:11.5550,0.76,0.27,-0.07
2020-08-13 11:43:11.6510,0.7,0.23,-0.02
2020-08-13 11:43:11.7490,0.25,-0.17,-0.02
2020-08-13 11:43:11.8500,0.01,-0.31,0.0
2020-08-13 11:43:11.9470,-0.34,-0.41,0.13
2020-08-13 11:43:12.0460,-0.64,-0.17,0.02
2020-08-13 11:43:12.1100,-0.96,-0.05,0.0
2020-08-13 11:43:12.2450,-0.39,-0.5,-0.11
2020-08-13 11:43:12.2910,-0.04,0.08,0.18
2020-08-13 11:43:12.3800,-0.03,-0.04,-0.08
2020-08-13 11:43:12.4710,0.03,0.03,0.05
2020-08-13 11:43:12.5750,-0.09,0.05,-0.02
2020-08-13 11:43:12.6660,-0.04,0.0,-0.06
2020-08-13 11:43:12.7550,0.18,0.04,0.13
2020-08-13 11:43:12.8450,0.04,0.01,-0.06
2020-08-13 11:43:12.9410,0.02,0.01,0.02
2020-08-13 11:43:13.0400,0.01,-0.13,-0.12
2020-08-13 11:43:13.1380,0.17,-0.22,0.06
2020-08-13 11:43:13.1940,0.48,-0.5,0.08
2020-08-13 11:43:13.3110,0.05,-0.11,0.14
2020-08-13 11:43:13.3840,0.8,0.26,-0.05
2020-08-13 11:43:13.4740,0.63,0.23,-0.07
2020-08-13 11:43:13.5700,0.36,-0.11,0.01
2020-08-13 11:43:13.6610,0.02,-0.37,0.1
2020-08-13 11:43:13.7580,-0.22,-0.22,0.14
2020-08-13 11:43:13.8470,-0.46,-0.18,-0.0
2020-08-13 11:43:13.9340,-0.84,-0.04,0.0
2020-08-13 11:43:14.0320,-0.93,-0.08,0.0
2020-08-13 11:43:14.1310,-0.19,-0.54,-0.1
2020-08-13 11:43:14.2310,-0.04,0.09,0.2
2020-08-13 11:43:14.3290,-0.07,0.01,0.06
2020-08-13 11:43:14.3890,-0.03,0.0,-0.03
2020-08-13 11:43:14.4790,-0.01,0.05,0.03
2020-08-13 11:43:14.5710,-0.06,-0.0,-0.03
2020-08-13 11:43:14.6600,0.0,-0.0,-0.03
2020-08-13 11:43:14.7510,0.02,0.03,-0.02
2020-08-13 11:43:14.8420,-0.02,-0.04,-0.04
2020-08-13 11:43:14.9310,0.04,-0.11,0.01
2020-08-13 11:43:15.0350,0.29,-0.35,0.03
2020-08-13 11:43:15.1260,0.44,-0.27,0.14
2020-08-13 11:43:15.2250,0.09,0.04,0.01
2020-08-13 11:43:15.3230,0.63,0.25,-0.08
2020-08-13 11:43:15.4230,0.5,0.12,-0.04
2020-08-13 11:43:15.4860,0.24,-0.18,0.05
2020-08-13 11:43:15.5610,-0.03,-0.26,0.07
2020-08-13 11:43:15.6500,-0.33,-0.28,0.18
2020-08-13 11:43:15.7540,-0.73,-0.18,0.04
2020-08-13 11:43:15.8600,-0.82,-0.0,-0.03
2020-08-13 11:43:15.9350,0.88,-0.01,-0.07
2020-08-13 11:43:16.0250,-0.42,-0.02,0.23
2020-08-13 11:43:16.1220,0.11,-0.06,-0.28
2020-08-13 11:43:16.2170,0.01,0.0,0.07
2020-08-13 11:43:16.3160,0.02,0.04,0.03
2020-08-13 11:43:16.4140,0.02,0.12,0.03
2020-08-13 11:43:16.4750,-0.01,0.01,-0.08
2020-08-13 11:43:16.5660,-0.2,-0.15,0.01
2020-08-13 11:43:16.6660,-0.01,0.03,0.02
2020-08-13 11:43:16.7570,0.06,-0.03,-0.04
2020-08-13 11:43:16.8510,0.09,-0.22,-0.07
2020-08-13 11:43:16.9260,0.34,-0.39,0.05
2020-08-13 11:43:17.0310,0.4,-0.28,0.2
2020-08-13 11:43:17.1270,0.14,0.02,0.04
2020-08-13 11:43:17.2110,0.73,0.25,-0.06
2020-08-13 11:43:17.3100,0.53,0.06,-0.03
2020-08-13 11:43:17.4140,0.18,-0.24,0.04
2020-08-13 11:43:17.5060,-0.08,-0.31,0.11
2020-08-13 11:43:17.5600,-0.42,-0.27,0.23
2020-08-13 11:43:17.6490,-0.82,-0.18,-0.05
2020-08-13 11:43:17.7390,-1.02,-0.04,0.01
2020-08-13 11:43:17.8280,-0.44,-0.43,-0.12
2020-08-13 11:43:17.9200,-0.45,0.02,0.16
2020-08-13 11:43:18.0160,-0.11,-0.0,0.05
2020-08-13 11:43:18.1130,0.03,0.04,0.01
2020-08-13 11:43:18.2020,-0.04,0.01,0.01
2020-08-13 11:43:18.3000,0.01,-0.01,-0.02
2020-08-13 11:43:18.4010,-0.01,0.01,-0.01
2020-08-13 11:43:18.4980,0.02,0.02,0.01
2020-08-13 11:43:18.5610,0.0,0.02,-0.02
2020-08-13 11:43:18.6610,0.04,-0.11,-0.02
2020-08-13 11:43:18.7500,0.18,-0.3,0.06
2020-08-13 11:43:18.8310,0.38,-0.43,0.01
2020-08-13 11:43:18.9360,0.1,-0.08,-0.01
2020-08-13 11:43:19.0260,0.86,0.11,0.06
2020-08-13 11:43:19.1160,0.61,0.26,-0.04
2020-08-13 11:43:19.2060,0.32,-0.1,0.03
2020-08-13 11:43:19.2960,-0.0,-0.29,0.02
2020-08-13 11:43:19.3960,-0.23,-0.33,0.07
2020-08-13 11:43:19.4930,-0.68,-0.3,0.06
2020-08-13 11:43:19.5510,-1.12,-0.06,0.13
2020-08-13 11:43:19.6940,1.71,-0.0,-0.08
2020-08-13 11:43:19.7450,-0.74,-0.54,-0.21
2020-08-13 11:43:19.8430,-0.14,-0.0,-0.05
2020-08-13 11:43:19.9410,0.05,-0.01,0.06
2020-08-13 11:43:20.0150,-0.01,0.01,0.02
2020-08-13 11:43:20.1050,-0.06,0.04,-0.01
2020-08-13 11:43:20.2000,-0.02,-0.01,-0.03
2020-08-13 11:43:20.2960,-0.0,0.02,-0.0
2020-08-13 11:43:20.3870,0.01,-0.01,-0.04
2020-08-13 11:43:20.4870,0.09,-0.05,0.03
2020-08-13 11:43:20.5850,0.1,-0.04,-0.01
2020-08-13 11:43:20.6850,0.27,-0.4,0.01
2020-08-13 11:43:20.7390,0.43,-0.64,0.14
2020-08-13 11:43:20.8310,-0.0,0.04,0.12
2020-08-13 11:43:20.9300,0.6,0.31,-0.09
2020-08-13 11:43:21.0200,0.39,0.17,-0.01
2020-08-13 11:43:21.1120,0.12,-0.28,0.03
2020-08-13 11:43:21.2020,-0.14,-0.3,0.1
2020-08-13 11:43:21.3030,-0.45,-0.26,0.06
2020-08-13 11:43:21.3850,-0.83,-0.12,0.05
2020-08-13 11:43:21.4800,-0.64,-0.03,-0.09
2020-08-13 11:43:21.5780,0.2,-0.7,-0.2
2020-08-13 11:43:21.6770,-0.49,-0.19,0.06
2020-08-13 11:43:21.7760,-0.04,-0.01,-0.1
2020-08-13 11:43:21.8770,-0.02,0.01,-0.02
2020-08-13 11:43:21.9370,-0.03,0.05,0.05
2020-08-13 11:43:22.0270,-0.02,0.02,-0.05
2020-08-13 11:43:22.1170,-0.01,0.02,-0.03
2020-08-13 11:43:22.2060,0.01,-0.02,0.03
2020-08-13 11:43:22.2830,-0.02,-0.01,-0.01
2020-08-13 11:43:22.4020,0.03,-0.11,-0.02
2020-08-13 11:43:22.4860,0.26,-0.31,0.07
2020-08-13 11:43:22.5830,0.35,-0.33,0.01
2020-08-13 11:43:22.6810,0.12,-0.02,-0.02
2020-08-13 11:43:22.7710,0.79,0.19,-0.11
2020-08-13 11:43:22.8710,0.59,0.14,-0.04
2020-08-13 11:43:22.9430,0.26,-0.12,-0.02
2020-08-13 11:43:23.0230,-0.08,-0.3,0.1
2020-08-13 11:43:23.1110,-0.41,-0.29,0.09
2020-08-13 11:43:23.2020,-0.71,-0.17,0.13
2020-08-13 11:43:23.2910,-0.95,-0.08,0.13
2020-08-13 11:43:23.3800,1.11,-0.23,-0.13
2020-08-13 11:43:23.4710,-0.17,-0.13,0.09
2020-08-13 11:43:23.5710,-0.09,0.03,-0.15
2020-08-13 11:43:23.6670,-0.05,-0.02,-0.04
2020-08-13 11:43:23.7650,0.01,-0.03,0.01
2020-08-13 11:43:23.8650,-0.01,0.06,-0.03
2020-08-13 11:43:23.9640,-0.06,0.03,-0.01
2020-08-13 11:43:24.0220,0.01,0.02,0.0
2020-08-13 11:43:24.1120,0.03,-0.02,-0.01
2020-08-13 11:43:24.2020,0.0,-0.04,0.0
2020-08-13 11:43:24.2930,0.07,-0.12,-0.01
2020-08-13 11:43:24.3910,0.29,-0.32,0.05
2020-08-13 11:43:24.4810,0.29,-0.26,0.07
2020-08-13 11:43:24.5770,0.1,-0.04,0.05
2020-08-13 11:43:24.6590,0.8,0.28,-0.02
2020-08-13 11:43:24.7570,0.42,0.18,-0.03
2020-08-13 11:43:24.8580,0.16,-0.16,-0.05
2020-08-13 11:43:24.9560,-0.04,-0.25,-0.03
2020-08-13 11:43:25.0550,-0.38,-0.31,0.05
2020-08-13 11:43:25.1030,-0.85,-0.21,0.03
2020-08-13 11:43:25.1930,-1.09,-0.06,0.04
2020-08-13 11:43:25.3120,-0.47,-0.46,0.24
2020-08-13 11:43:25.3870,0.01,0.06,0.15
2020-08-13 11:43:25.4830,-0.05,0.01,0.0
2020-08-13 11:43:25.5750,0.01,0.03,0.03
2020-08-13 11:43:25.6730,-0.01,0.02,0.02
2020-08-13 11:43:25.7630,-0.16,-0.07,-0.04
2020-08-13 11:43:25.8650,0.01,0.04,0.04
2020-08-13 11:43:25.9510,0.02,0.03,-0.05
2020-08-13 11:43:26.0600,-0.03,-0.02,-0.02
2020-08-13 11:43:26.1480,0.02,-0.14,-0.0
2020-08-13 11:43:26.2010,0.23,-0.31,0.07
2020-08-13 11:43:26.3020,0.31,-0.38,0.15
2020-08-13 11:43:26.3920,0.24,-0.1,0.04
2020-08-13 11:43:26.4820,0.85,0.26,-0.27
2020-08-13 11:43:26.5710,0.64,0.25,-0.08
2020-08-13 11:43:26.6630,0.22,-0.05,-0.09
2020-08-13 11:43:26.7520,-0.01,-0.32,0.05
2020-08-13 11:43:26.8430,-0.42,-0.34,0.24
2020-08-13 11:43:26.9410,-0.73,-0.22,0.05
2020-08-13 11:43:27.0410,-1.09,-0.03,0.04
2020-08-13 11:43:27.1130,1.5,-0.33,-0.38
2020-08-13 11:43:27.2430,-0.38,0.01,0.26
2020-08-13 11:43:27.3010,-0.09,0.01,0.0
2020-08-13 11:43:27.3840,-0.0,-0.04,0.01
2020-08-13 11:43:27.4880,0.02,0.01,0.05
2020-08-13 11:43:27.5630,-0.02,0.05,-0.04
2020-08-13 11:43:27.6680,-0.04,0.02,-0.04
2020-08-13 11:43:27.7580,0.05,0.02,0.02
2020-08-13 11:43:27.8500,-0.02,-0.07,-0.08
2020-08-13 11:43:27.9540,0.05,-0.13,-0.0
2020-08-13 11:43:28.0370,0.33,-0.41,0.0
2020-08-13 11:43:28.1330,0.5,-0.43,0.17
2020-08-13 11:43:28.2330,0.11,-0.17,0.04
2020-08-13 11:43:28.3320,0.66,0.34,-0.15
2020-08-13 11:43:28.4040,0.45,0.24,-0.09
2020-08-13 11:43:28.4920,0.07,-0.17,0.0
2020-08-13 11:43:28.5840,-0.39,-0.23,0.14
2020-08-13 11:43:28.6880,-0.52,-0.14,0.13
2020-08-13 11:43:28.7700,-0.72,-0.09,-0.06
2020-08-13 11:43:28.8680,-0.59,-0.16,-0.02
2020-08-13 11:43:28.9610,-0.37,-0.3,-0.12
2020-08-13 11:43:29.0470,-0.05,0.09,0.06
2020-08-13 11:43:29.1380,-0.02,0.03,0.01
2020-08-13 11:43:29.2280,-0.02,-0.02,-0.02
2020-08-13 11:43:29.3280,-0.07,0.02,0.02
2020-08-13 11:43:29.4260,0.04,0.04,-0.01
2020-08-13 11:43:29.5240,0.02,0.03,-0.03
2020-08-13 11:43:29.6370,0.03,0.05,-0.0
2020-08-13 11:43:29.7230,-0.01,-0.06,-0.06
2020-08-13 11:43:29.7830,0.06,-0.1,-0.04
2020-08-13 11:43:29.8730,0.33,-0.35,0.01
2020-08-13 11:43:29.9630,0.4,-0.34,0.18
2020-08-13 11:43:30.0620,0.31,0.11,0.21
2020-08-13 11:43:30.1570,0.67,0.29,-0.06
2020-08-13 11:43:30.2410,0.31,0.06,-0.07
2020-08-13 11:43:30.3380,0.04,-0.22,0.09
2020-08-13 11:43:30.4190,-0.33,-0.37,0.13
2020-08-13 11:43:30.5180,-0.7,-0.28,0.0
2020-08-13 11:43:30.6190,-1.07,-0.07,0.03
2020-08-13 11:43:30.7150,0.64,-0.04,-0.1
2020-08-13 11:43:30.7750,-0.38,-0.17,-0.03
2020-08-13 11:43:30.8760,0.05,0.04,-0.02
2020-08-13 11:43:30.9650,-0.04,0.02,0.01
2020-08-13 11:43:31.0460,0.01,0.01,0.02
2020-08-13 11:43:31.1440,-0.01,0.02,0.0
2020-08-13 11:43:31.2260,-0.08,-0.02,-0.02
2020-08-13 11:43:31.3320,-0.03,0.01,-0.02
2020-08-13 11:43:31.4100,-0.03,0.01,-0.01
2020-08-13 11:43:31.5090,0.05,-0.06,-0.01
2020-08-13 11:43:31.6080,0.18,-0.19,-0.02
2020-08-13 11:43:31.7060,0.36,-0.43,0.06
2020-08-13 11:43:31.8070,0.3,-0.24,0.04
2020-08-13 11:43:31.8680,0.1,0.01,-0.01
2020-08-13 11:43:31.9580,0.6,0.34,-0.1
2020-08-13 11:43:32.0470,0.46,0.17,-0.04
2020-08-13 11:43:32.1250,0.1,-0.17,0.05
2020-08-13 11:43:32.2250,-0.43,-0.38,0.17
2020-08-13 11:43:32.3260,-0.52,-0.16,-0.01
2020-08-13 11:43:32.4070,-0.87,-0.09,-0.04
2020-08-13 11:43:32.5140,-0.63,-0.18,-0.2
2020-08-13 11:43:32.6180,-0.2,-0.22,-0.0
2020-08-13 11:43:32.7040,0.01,0.04,-0.0
2020-08-13 11:43:32.8130,-0.06,0.04,-0.01
2020-08-13 11:43:32.8590,-0.04,-0.02,-0.02
2020-08-13 11:43:32.9510,-0.03,0.03,0.01
2020-08-13 11:43:33.0400,0.03,0.03,0.01
2020-08-13 11:43:33.1320,-0.12,-0.01,-0.03
2020-08-13 11:43:33.2220,0.03,0.07,-0.01
2020-08-13 11:43:33.3120,0.01,-0.07,-0.05
2020-08-13 11:43:33.4120,0.06,-0.17,-0.03
2020-08-13 11:43:33.5040,0.3,-0.4,0.02
2020-08-13 11:43:33.6040,0.39,-0.37,0.13
2020-08-13 11:43:33.6930,0.19,0.06,0.07
2020-08-13 11:43:33.7920,0.43,0.26,0.05
2020-08-13 11:43:33.8640,0.24,0.2,-0.11
2020-08-13 11:43:33.9940,0.13,-0.11,0.03
2020-08-13 11:43:34.0430,-0.14,-0.25,0.08
2020-08-13 11:43:34.1400,-0.36,-0.25,0.07
2020-08-13 11:43:34.2380,-0.73,-0.13,0.07
2020-08-13 11:43:34.3190,-0.78,-0.01,-0.04
2020-08-13 11:43:34.4190,1.08,-0.05,-0.1
2020-08-13 11:43:34.5080,-0.63,-0.39,0.21
2020-08-13 11:43:34.5970,-0.0,0.03,-0.14
2020-08-13 11:43:34.6860,-0.02,-0.0,0.06
2020-08-13 11:43:34.7850,-0.0,0.02,-0.01
2020-08-13 11:43:34.8530,-0.04,0.03,0.01
2020-08-13 11:43:34.9850,-0.06,-0.02,-0.06
2020-08-13 11:43:35.0430,-0.03,-0.0,-0.02
2020-08-13 11:43:35.1270,0.05,0.03,0.02
2020-08-13 11:43:35.2280,-0.02,-0.06,-0.05
2020-08-13 11:43:35.3230,0.1,-0.31,-0.02
2020-08-13 11:43:35.4090,0.29,-0.35,-0.01
2020-08-13 11:43:35.5010,0.17,-0.07,0.14
2020-08-13 11:43:35.5890,0.31,0.09,0.16
2020-08-13 11:43:35.6790,0.6,0.29,-0.01
2020-08-13 11:43:35.7790,0.33,0.04,-0.02
2020-08-13 11:43:35.8750,0.02,-0.26,0.06
2020-08-13 11:43:35.9740,-0.26,-0.28,0.04
2020-08-13 11:43:36.0780,-0.51,-0.24,0.01
2020-08-13 11:43:36.1720,-0.87,-0.08,0.1
2020-08-13 11:43:36.2340,-0.99,-0.06,-0.03
2020-08-13 11:43:36.3150,-0.46,-0.24,0.08
2020-08-13 11:43:36.4130,-0.16,-0.0,0.01
2020-08-13 11:43:36.4900,-0.11,0.02,0.08
2020-08-13 11:43:36.5830,-0.17,-0.05,-0.04
2020-08-13 11:43:36.6840,-0.05,0.04,0.02
2020-08-13 11:43:36.7690,-0.04,0.01,-0.01
2020-08-13 11:43:36.8700,-0.02,0.02,0.01
2020-08-13 11:43:36.9670,-0.03,0.01,-0.01
2020-08-13 11:43:37.0690,0.04,-0.03,0.05
2020-08-13 11:43:37.1660,0.12,-0.25,-0.07
2020-08-13 11:43:37.2240,0.39,-0.46,0.09
2020-08-13 11:43:37.3130,0.26,-0.24,0.1
2020-08-13 11:43:37.4030,0.74,0.13,-0.01
2020-08-13 11:43:37.4940,0.59,0.36,-0.04
2020-08-13 11:43:37.5840,0.25,-0.05,-0.09
2020-08-13 11:43:37.6750,-0.03,-0.22,0.12
2020-08-13 11:43:37.7780,-0.3,-0.18,0.11
2020-08-13 11:43:37.8620,-0.47,-0.15,-0.02
2020-08-13 11:43:37.9590,-0.68,-0.12,-0.08
2020-08-13 11:43:38.0580,-0.88,-0.04,0.06
2020-08-13 11:43:38.1580,-0.61,-0.56,-0.08
2020-08-13 11:43:38.2560,-0.37,-0.05,0.06
2020-08-13 11:43:38.3190,-0.08,0.06,0.11
2020-08-13 11:43:38.4070,-0.03,-0.01,0.0
2020-08-13 11:43:38.4970,-0.02,0.04,0.03
2020-08-13 11:43:38.5860,0.01,0.03,0.01
2020-08-13 11:43:38.6660,-0.06,0.01,-0.01
2020-08-13 11:43:38.7650,-0.05,0.0,-0.01
2020-08-13 11:43:38.8520,-0.0,-0.04,0.04
2020-08-13 11:43:38.9510,0.03,-0.12,-0.01
2020-08-13 11:43:39.0500,0.24,-0.43,-0.01
2020-08-13 11:43:39.1490,0.38,-0.37,0.0
2020-08-13 11:43:39.2490,0.28,0.01,0.06
2020-08-13 11:43:39.3090,0.69,0.36,-0.08
2020-08-13 11:43:39.3990,0.37,0.09,-0.05
2020-08-13 11:43:39.4900,0.12,-0.17,0.08
2020-08-13 11:43:39.5790,-0.15,-0.26,0.02
2020-08-13 11:43:39.6710,-0.59,-0.31,0.1
2020-08-13 11:43:39.7600,-0.86,-0.16,-0.05
2020-08-13 11:43:39.8570,-0.8,-0.15,-0.09
2020-08-13 11:43:39.9470,-0.38,-0.15,0.15
2020-08-13 11:43:40.0440,-0.19,0.06,0.2
2020-08-13 11:43:40.1450,-0.09,-0.01,-0.02
2020-08-13 11:43:40.2430,-0.05,0.0,-0.03
2020-08-13 11:43:40.2990,-0.04,0.05,0.02
2020-08-13 11:43:40.3900,0.01,0.0,-0.02
2020-08-13 11:43:40.4930,0.03,0.02,0.02
2020-08-13 11:43:40.5830,0.02,0.03,0.0
2020-08-13 11:43:40.6730,0.04,-0.03,-0.02
2020-08-13 11:43:40.7650,0.07,-0.16,-0.04
2020-08-13 11:43:40.8530,0.25,-0.31,0.05
2020-08-13 11:43:40.9430,0.31,-0.4,0.05
2020-08-13 11:43:41.0340,0.24,-0.07,0.07
2020-08-13 11:43:41.1350,0.7,0.31,-0.14
2020-08-13 11:43:41.2370,0.52,0.29,-0.05
2020-08-13 11:43:41.3310,0.18,-0.16,0.01
2020-08-13 11:43:41.3950,-0.07,-0.25,0.05
2020-08-13 11:43:41.4830,-0.34,-0.27,0.12
2020-08-13 11:43:41.5740,-0.78,-0.18,0.09
2020-08-13 11:43:41.6650,-0.83,-0.02,-0.08
2020-08-13 11:43:41.7690,-0.29,-0.69,-0.21
2020-08-13 11:43:41.8590,-0.64,-0.15,0.24
2020-08-13 11:43:41.9500,-0.06,-0.01,0.01
2020-08-13 11:43:42.0310,0.02,0.02,-0.03
2020-08-13 11:43:42.1290,-0.05,0.02,0.04
2020-08-13 11:43:42.2280,0.01,0.03,-0.01
2020-08-13 11:43:42.3240,0.05,0.03,-0.02
2020-08-13 11:43:42.3860,-0.01,0.01,-0.04
2020-08-13 11:43:42.5320,0.05,-0.02,-0.0
2020-08-13 11:43:42.5950,0.07,-0.14,-0.05
2020-08-13 11:43:42.6690,0.25,-0.33,0.02
2020-08-13 11:43:42.7640,0.42,-0.36,0.1
2020-08-13 11:43:42.8490,0.21,-0.12,0.08
2020-08-13 11:43:42.9400,0.73,0.31,-0.07
2020-08-13 11:43:43.0320,0.56,0.24,-0.09
2020-08-13 11:43:43.1220,0.16,-0.15,-0.01
2020-08-13 11:43:43.2180,-0.23,-0.22,0.07
2020-08-13 11:43:43.3170,-0.41,-0.26,0.07
2020-08-13 11:43:43.4170,-0.82,-0.21,0.09
2020-08-13 11:43:43.5190,-0.64,0.04,-0.1
2020-08-13 11:43:43.6160,-0.11,-0.19,-0.09
2020-08-13 11:43:43.6730,-0.49,-0.03,0.05
2020-08-13 11:43:43.7650,-0.03,0.01,0.03
2020-08-13 11:43:43.8540,0.06,0.03,-0.03
2020-08-13 11:43:43.9440,-0.01,0.05,0.0
2020-08-13 11:43:44.0340,0.01,0.0,-0.04
2020-08-13 11:43:44.1260,-0.01,0.01,0.0
2020-08-13 11:43:44.2210,-0.01,0.01,-0.05
2020-08-13 11:43:44.3090,-0.01,-0.04,-0.03
2020-08-13 11:43:44.4080,0.07,-0.21,-0.03
2020-08-13 11:43:44.5090,0.33,-0.51,0.01
2020-08-13 11:43:44.6060,0.47,-0.31,0.1
2020-08-13 11:43:44.7050,0.47,0.12,0.22
2020-08-13 11:43:44.8050,0.71,0.3,-0.01
2020-08-13 11:43:44.8610,0.34,-0.05,-0.06
2020-08-13 11:43:44.9580,-0.22,-0.34,0.08
2020-08-13 11:43:45.0480,-0.49,-0.46,0.14
2020-08-13 11:43:45.1450,-0.73,-0.22,0.03
2020-08-13 11:43:45.2340,-0.74,-0.02,-0.09
2020-08-13 11:43:45.3290,1.28,-0.04,-0.06
2020-08-13 11:43:45.4290,-0.43,-0.26,0.34
2020-08-13 11:43:45.5130,0.06,0.03,-0.13
2020-08-13 11:43:45.6090,-0.26,-0.06,0.05
2020-08-13 11:43:45.6980,-0.02,-0.0,-0.01
2020-08-13 11:43:45.7910,-0.0,-0.01,-0.04
2020-08-13 11:43:45.8890,-0.02,0.02,0.01
2020-08-13 11:43:45.9890,-0.01,0.0,-0.02
2020-08-13 11:43:46.0880,-0.08,-0.03,-0.03
2020-08-13 11:43:46.1500,-0.0,-0.07,-0.0
2020-08-13 11:43:46.2400,0.18,-0.23,-0.01
2020-08-13 11:43:46.3310,0.46,-0.36,0.13
2020-08-13 11:43:46.4210,0.16,-0.1,0.06
2020-08-13 11:43:46.5240,0.63,0.2,-0.07
2020-08-13 11:43:46.6080,0.52,0.21,-0.08
2020-08-13 11:43:46.7050,0.29,-0.02,0.02
2020-08-13 11:43:46.7830,0.01,-0.17,0.06
2020-08-13 11:43:46.8840,-0.28,-0.29,0.13
2020-08-13 11:43:46.9810,-0.68,-0.25,0.07
2020-08-13 11:43:47.0800,-1.04,-0.12,-0.04
2020-08-13 11:43:47.1400,1.47,-0.07,-0.26
2020-08-13 11:43:47.2310,-0.54,-0.08,0.07
2020-08-13 11:43:47.3220,-0.22,-0.03,-0.07
2020-08-13 11:43:47.4120,-0.0,0.03,0.07
2020-08-13 11:43:47.5140,-0.1,0.01,-0.02
2020-08-13 11:43:47.6090,-0.01,0.01,0.03
2020-08-13 11:43:47.7090,-0.04,0.01,0.02
2020-08-13 11:43:47.7970,-0.03,0.0,-0.03
2020-08-13 11:43:47.8870,-0.04,0.01,-0.03
2020-08-13 11:43:47.9740,-0.0,-0.11,-0.05
2020-08-13 11:43:48.0730,0.22,-0.31,-0.05
2020-08-13 11:43:48.1730,0.32,-0.34,0.08
2020-08-13 11:43:48.2710,0.11,-0.09,0.11
2020-08-13 11:43:48.3330,0.72,0.31,-0.11
2020-08-13 11:43:48.4300,0.46,0.26,-0.06
2020-08-13 11:43:48.5190,0.16,-0.11,-0.0
2020-08-13 11:43:48.6100,-0.12,-0.28,0.07
2020-08-13 11:43:48.6990,-0.43,-0.18,0.16
2020-08-13 11:43:48.7930,-0.75,-0.16,-0.04
2020-08-13 11:43:48.8810,-1.04,-0.05,-0.04
2020-08-13 11:43:48.9710,-0.11,-0.81,-0.26
2020-08-13 11:43:49.0660,0.08,-0.0,0.09
2020-08-13 11:43:49.1640,-0.1,-0.04,-0.1
2020-08-13 11:43:49.2650,-0.05,-0.0,-0.01
2020-08-13 11:43:49.3670,-0.05,0.05,-0.01
2020-08-13 11:43:49.4200,-0.02,0.01,-0.03
2020-08-13 11:43:49.5100,-0.04,0.02,-0.01
2020-08-13 11:43:49.6010,-0.01,0.02,-0.05
2020-08-13 11:43:49.6930,-0.23,-0.03,-0.04
2020-08-13 11:43:49.7940,0.01,-0.12,0.05
2020-08-13 11:43:49.8820,0.23,-0.37,-0.05
2020-08-13 11:43:49.9720,0.28,-0.35,0.17
2020-08-13 11:43:50.0610,0.18,0.07,0.12
2020-08-13 11:43:50.1590,0.62,0.32,-0.16
2020-08-13 11:43:50.2570,0.42,0.13,-0.08
2020-08-13 11:43:50.3560,0.16,-0.12,0.04
2020-08-13 11:43:50.4550,-0.06,-0.18,0.08
2020-08-13 11:43:50.5540,-0.36,-0.25,0.06
2020-08-13 11:43:50.6060,-0.76,-0.28,0.01
2020-08-13 11:43:50.7060,-1.12,-0.14,-0.02
2020-08-13 11:43:50.7950,-0.23,-0.2,0.2
2020-08-13 11:43:50.8850,-0.26,-0.01,-0.0
2020-08-13 11:43:50.9800,-0.13,0.0,0.05
2020-08-13 11:43:51.0700,-0.07,0.01,0.0
2020-08-13 11:43:51.1610,-0.02,0.05,0.03
2020-08-13 11:43:51.2620,-0.3,-0.13,-0.06
2020-08-13 11:43:51.3480,-0.06,-0.01,0.03
2020-08-13 11:43:51.4470,0.04,0.06,-0.02
2020-08-13 11:43:51.5590,0.0,-0.03,-0.05
2020-08-13 11:43:51.6460,0.04,-0.13,-0.03
2020-08-13 11:43:51.7470,0.28,-0.39,0.01
2020-08-13 11:43:51.7920,0.34,-0.33,0.13
2020-08-13 11:43:51.8950,-0.02,-0.02,0.01
2020-08-13 11:43:51.9860,0.63,0.29,-0.12
2020-08-13 11:43:52.0750,0.56,0.16,-0.02
2020-08-13 11:43:52.1750,0.12,-0.21,0.01
2020-08-13 11:43:52.2710,-0.2,-0.31,0.07
2020-08-13 11:43:52.3540,-0.61,-0.27,0.13
2020-08-13 11:43:52.4450,-1.09,-0.06,0.04
2020-08-13 11:43:52.5410,-1.18,-0.25,-0.27
2020-08-13 11:43:52.6430,-0.35,-0.27,-0.18
2020-08-13 11:43:52.7400,0.1,0.07,0.02
2020-08-13 11:43:52.8370,-0.04,0.02,0.05
2020-08-13 11:43:52.9360,-0.03,0.01,0.01
2020-08-13 11:43:52.9920,-0.02,0.01,-0.02
2020-08-13 11:43:53.0810,-0.01,0.03,0.04
2020-08-13 11:43:53.1710,-0.08,-0.01,-0.06
2020-08-13 11:43:53.2670,-0.06,-0.06,-0.05
2020-08-13 11:43:53.3660,-0.01,-0.12,-0.01
2020-08-13 11:43:53.4540,0.18,-0.27,0.0
2020-08-13 11:43:53.5390,0.43,-0.38,0.02
2020-08-13 11:43:53.6310,0.39,-0.21,0.16
2020-08-13 11:43:53.7300,0.59,0.06,0.27
2020-08-13 11:43:53.8370,0.63,0.35,-0.04
2020-08-13 11:43:53.9290,0.4,0.03,-0.04
2020-08-13 11:43:53.9840,-0.03,-0.27,-0.0
2020-08-13 11:43:54.0850,-0.55,-0.41,0.11
2020-08-13 11:43:54.1750,-0.84,-0.26,0.06
2020-08-13 11:43:54.2650,-0.95,-0.02,0.01
2020-08-13 11:43:54.3550,1.63,-0.28,-0.05
2020-08-13 11:43:54.4450,-0.24,-0.3,0.16
2020-08-13 11:43:54.5360,0.02,0.01,-0.07
2020-08-13 11:43:54.6260,0.03,0.04,0.03
2020-08-13 11:43:54.7270,0.02,0.04,-0.01
2020-08-13 11:43:54.8270,-0.11,-0.02,-0.03
2020-08-13 11:43:54.9240,-0.04,0.04,0.0
2020-08-13 11:43:55.0250,0.0,0.04,-0.02
2020-08-13 11:43:55.0800,-0.1,-0.03,-0.04
2020-08-13 11:43:55.1800,-0.02,-0.07,0.02
2020-08-13 11:43:55.2710,0.11,-0.25,0.0
2020-08-13 11:43:55.3600,0.36,-0.37,0.01
2020-08-13 11:43:55.4510,0.21,-0.15,0.12
2020-08-13 11:43:55.5430,0.92,0.16,0.1
2020-08-13 11:43:55.6340,0.63,0.28,-0.1
2020-08-13 11:43:55.7250,0.16,-0.11,-0.02
2020-08-13 11:43:55.8220,-0.06,-0.27,0.05
2020-08-13 11:43:55.9160,-0.35,-0.26,0.11
2020-08-13 11:43:56.0150,-0.68,-0.14,0.05
2020-08-13 11:43:56.1180,-0.84,-0.04,0.01
2020-08-13 11:43:56.1730,-0.64,-0.22,-0.11
2020-08-13 11:43:56.2760,-0.15,-0.03,-0.03
2020-08-13 11:43:56.3660,0.11,0.04,-0.13
2020-08-13 11:43:56.4550,-0.08,0.01,0.12
2020-08-13 11:43:56.5440,-0.03,0.01,0.02
2020-08-13 11:43:56.6330,-0.03,0.03,0.01
2020-08-13 11:43:56.7150,-0.05,0.01,-0.04
2020-08-13 11:43:56.8140,0.0,0.01,0.0
2020-08-13 11:43:56.9140,0.01,0.02,-0.03
2020-08-13 11:43:57.0100,0.02,-0.04,-0.0
2020-08-13 11:43:57.1080,0.06,-0.14,-0.03
2020-08-13 11:43:57.1640,0.34,-0.46,0.02
2020-08-13 11:43:57.2600,0.29,-0.2,0.09
2020-08-13 11:43:57.3550,0.03,0.04,0.04
2020-08-13 11:43:57.4460,0.62,0.29,-0.05
2020-08-13 11:43:57.5360,0.38,0.15,-0.05
2020-08-13 11:43:57.6250,0.13,-0.18,0.02
2020-08-13 11:43:57.7270,-0.21,-0.21,0.18
2020-08-13 11:43:57.8100,-0.48,-0.22,0.09
2020-08-13 11:43:57.9060,-0.72,-0.11,-0.04
2020-08-13 11:43:58.0030,-1.14,-0.07,-0.1
2020-08-13 11:43:58.1010,-0.31,-0.17,-0.07
2020-08-13 11:43:58.2010,-0.36,0.01,0.15
2020-08-13 11:43:58.2940,-0.05,0.06,0.09
2020-08-13 11:43:58.3460,-0.03,0.01,-0.02
2020-08-13 11:43:58.4510,-0.1,0.03,-0.01
2020-08-13 11:43:58.5400,-0.0,0.04,-0.02
2020-08-13 11:43:58.6310,-0.05,0.0,-0.04
2020-08-13 11:43:58.7200,0.0,0.01,-0.01
2020-08-13 11:43:58.8110,0.01,0.02,-0.01
2020-08-13 11:43:58.9010,-0.01,-0.08,-0.02
2020-08-13 11:43:58.9920,0.16,-0.3,0.06
2020-08-13 11:43:59.0910,0.36,-0.43,0.15
2020-08-13 11:43:59.1870,0.08,-0.03,0.14
2020-08-13 11:43:59.2920,0.89,0.31,-0.14
2020-08-13 11:43:59.3910,0.61,0.27,-0.01
2020-08-13 11:43:59.4840,0.22,-0.2,-0.02
2020-08-13 11:43:59.5460,-0.06,-0.29,0.1
2020-08-13 11:43:59.6360,-0.31,-0.26,0.09
2020-08-13 11:43:59.7250,-0.65,-0.15,-0.02
2020-08-13 11:43:59.8030,-0.85,-0.1,-0.03
2020-08-13 11:43:59.8920,-0.66,-0.19,-0.18
2020-08-13 11:43:59.9890,-0.23,-0.13,-0.05
2020-08-13 11:44:00.0860,0.08,-0.02,-0.25
2020-08-13 11:44:00.1920,-0.06,0.03,0.11
2020-08-13 11:44:00.2790,-0.01,0.04,0.02
2020-08-13 11:44:00.3770,0.03,0.01,-0.01
2020-08-13 11:44:00.4760,-0.01,0.04,0.02
2020-08-13 11:44:00.5750,0.01,0.02,-0.04
2020-08-13 11:44:00.6380,-0.05,0.02,-0.03
2020-08-13 11:44:00.7240,-0.03,-0.02,-0.05
2020-08-13 11:44:00.8170,0.02,-0.09,-0.04
2020-08-13 11:44:00.9040,0.18,-0.27,0.02
2020-08-13 11:44:00.9880,0.33,-0.26,0.05
2020-08-13 11:44:01.0870,0.16,-0.07,0.09
2020-08-13 11:44:01.1800,0.7,0.26,-0.09
2020-08-13 11:44:01.2810,0.64,0.14,-0.06
2020-08-13 11:44:01.3720,0.26,-0.1,0.06
2020-08-13 11:44:01.4690,-0.2,-0.29,0.18
2020-08-13 11:44:01.5410,-0.38,-0.19,0.21
2020-08-13 11:44:01.6680,-0.59,-0.17,-0.01
2020-08-13 11:44:01.7210,-1.0,-0.11,-0.18
2020-08-13 11:44:01.8120,1.41,-0.14,-0.22
2020-08-13 11:44:01.9000,-0.39,-0.24,0.25
2020-08-13 11:44:01.9910,0.08,0.03,-0.1
2020-08-13 11:44:02.0810,-0.07,0.05,-0.01
2020-08-13 11:44:02.1710,-0.26,-0.06,-0.03
2020-08-13 11:44:02.2630,-0.04,0.03,0.01
2020-08-13 11:44:02.3620,-0.04,0.02,-0.03
2020-08-13 11:44:02.4710,0.01,0.04,0.04
2020-08-13 11:44:02.5320,-0.06,-0.03,-0.01
2020-08-13 11:44:02.6210,-0.01,-0.06,0.0
2020-08-13 11:44:02.7120,0.04,-0.07,0.01
2020-08-13 11:44:02.8000,0.15,-0.27,-0.04
2020-08-13 11:44:02.9000,0.45,-0.46,0.04
2020-08-13 11:44:02.9960,0.2,-0.08,0.14
2020-08-13 11:44:03.0870,0.86,0.36,-0.16
2020-08-13 11:44:03.1770,0.5,0.2,-0.1
2020-08-13 11:44:03.2670,0.2,-0.11,0.0
2020-08-13 11:44:03.3570,-0.17,-0.31,0.12
2020-08-13 11:44:03.4550,-0.42,-0.28,0.15
2020-08-13 11:44:03.5540,-0.63,-0.16,-0.06
2020-08-13 11:44:03.6510,-0.88,-0.03,-0.15
2020-08-13 11:44:03.7040,1.15,-0.13,0.31
2020-08-13 11:44:03.7940,-0.36,-0.33,-0.12
2020-08-13 11:44:03.8940,0.04,-0.01,-0.13
2020-08-13 11:44:03.9750,0.01,0.01,0.03
2020-08-13 11:44:04.0660,-0.0,0.03,-0.02
2020-08-13 11:44:04.1640,-0.04,-0.01,-0.02
2020-08-13 11:44:04.2520,0.01,0.03,-0.02
2020-08-13 11:44:04.3590,-0.03,0.02,-0.04
2020-08-13 11:44:04.4480,-0.01,-0.0,-0.05
2020-08-13 11:44:04.5470,0.04,-0.04,0.02
2020-08-13 11:44:04.6470,0.14,-0.18,-0.0
2020-08-13 11:44:04.7470,0.32,-0.49,0.03
2020-08-13 11:44:04.8000,0.11,-0.2,0.1
2020-08-13 11:44:04.8900,0.67,0.18,0.06
2020-08-13 11:44:04.9800,0.61,0.29,-0.07
2020-08-13 11:44:05.0770,0.23,-0.13,0.02
2020-08-13 11:44:05.1720,-0.04,-0.21,0.11
2020-08-13 11:44:05.2620,-0.23,-0.17,0.14
2020-08-13 11:44:05.3530,-0.43,-0.18,0.1
2020-08-13 11:44:05.4530,-0.77,-0.09,0.05
2020-08-13 11:44:05.5410,-1.16,-0.26,-0.48
2020-08-13 11:44:05.6490,-0.06,-0.24,0.21
2020-08-13 11:44:05.7380,0.09,0.02,-0.03
2020-08-13 11:44:05.8370,-0.05,-0.0,0.03
2020-08-13 11:44:05.9360,-0.08,0.01,-0.06
2020-08-13 11:44:05.9970,-0.04,0.02,-0.02
2020-08-13 11:44:06.0870,0.01,0.04,0.01
2020-08-13 11:44:06.1770,-0.01,0.0,-0.05
2020-08-13 11:44:06.2540,0.01,0.03,0.0
2020-08-13 11:44:06.3550,0.01,-0.03,-0.03
2020-08-13 11:44:06.4440,-0.03,-0.1,-0.01
2020-08-13 11:44:06.5310,0.23,-0.4,-0.11
2020-08-13 11:44:06.6440,0.38,-0.22,0.08
2020-08-13 11:44:06.7470,0.16,-0.12,0.26
2020-08-13 11:44:06.8310,0.75,0.38,-0.04
2020-08-13 11:44:06.9400,0.69,0.11,-0.0
2020-08-13 11:44:06.9870,0.25,-0.26,0.0
2020-08-13 11:44:07.0770,-0.16,-0.4,0.03
2020-08-13 11:44:07.1670,-0.53,-0.33,0.05
2020-08-13 11:44:07.2570,-1.12,-0.12,0.09
2020-08-13 11:44:07.3460,-1.09,-0.19,-0.23
2020-08-13 11:44:07.4400,-0.41,-0.1,-0.05
2020-08-13 11:44:07.5310,-0.05,-0.04,-0.15
2020-08-13 11:44:07.6270,-0.05,0.03,0.12
2020-08-13 11:44:07.7240,-0.02,-0.0,-0.03
2020-08-13 11:44:07.8230,-0.03,0.03,-0.01
2020-08-13 11:44:07.9290,-0.0,0.01,-0.02
2020-08-13 11:44:08.0220,-0.03,0.02,-0.01
2020-08-13 11:44:08.0760,-0.01,-0.01,-0.04
2020-08-13 11:44:08.1730,0.04,-0.06,0.0
2020-08-13 11:44:08.2530,0.19,-0.33,-0.03
2020-08-13 11:44:08.3520,0.37,-0.49,0.05
2020-08-13 11:44:08.4320,0.08,-0.11,0.07
2020-08-13 11:44:08.5290,0.78,0.25,-0.13
2020-08-13 11:44:08.6210,0.55,0.21,-0.06
2020-08-13 11:44:08.7160,0.16,-0.12,0.06
2020-08-13 11:44:08.8280,0.01,-0.2,0.05
2020-08-13 11:44:08.9200,-0.31,-0.28,0.14
2020-08-13 11:44:09.0090,-0.53,-0.22,0.12
2020-08-13 11:44:09.1070,-0.97,-0.09,-0.08
2020-08-13 11:44:09.2060,1.03,-0.16,-0.23
2020-08-13 11:44:09.2680,-0.48,-0.4,0.1
2020-08-13 11:44:09.3580,-0.07,0.0,-0.11
2020-08-13 11:44:09.4470,-0.03,0.01,0.07
2020-08-13 11:44:09.5370,-0.02,0.01,0.01
2020-08-13 11:44:09.6120,-0.0,0.03,-0.03
2020-08-13 11:44:09.7030,-0.02,0.02,-0.01
2020-08-13 11:44:09.8020,-0.01,0.01,-0.01
2020-08-13 11:44:09.9110,-0.04,0.02,-0.04
2020-08-13 11:44:10.0010,0.03,-0.08,-0.01
2020-08-13 11:44:10.1030,0.17,-0.32,0.02
2020-08-13 11:44:10.1990,0.35,-0.4,-0.04
2020-08-13 11:44:10.2570,0.19,-0.1,0.09
2020-08-13 11:44:10.3470,0.9,0.2,-0.12
2020-08-13 11:44:10.4370,0.67,0.24,0.0
2020-08-13 11:44:10.5300,0.22,-0.17,0.04
2020-08-13 11:44:10.6200,-0.05,-0.28,0.08
2020-08-13 11:44:10.7110,-0.41,-0.32,0.17
2020-08-13 11:44:10.7990,-0.65,-0.2,-0.03
2020-08-13 11:44:10.9030,-0.98,-0.07,-0.05
2020-08-13 11:44:10.9940,0.94,-0.59,-0.22
2020-08-13 11:44:11.0930,-0.18,-0.07,0.32
2020-08-13 11:44:11.1950,0.09,-0.02,-0.19
2020-08-13 11:44:11.2910,-0.06,0.02,0.01
2020-08-13 11:44:11.3530,-0.07,0.01,-0.02
2020-08-13 11:44:11.4330,-0.02,0.03,-0.02
2020-08-13 11:44:11.5200,-0.0,0.02,0.0
2020-08-13 11:44:11.6110,-0.0,0.02,-0.02
2020-08-13 11:44:11.7010,0.03,-0.01,0.0
2020-08-13 11:44:11.7910,-0.01,-0.15,-0.11
2020-08-13 11:44:11.8870,0.18,-0.32,0.06
2020-08-13 11:44:11.9850,0.39,-0.34,-0.04
2020-08-13 11:44:12.0840,0.09,0.0,0.1
2020-08-13 11:44:12.1840,0.64,0.33,-0.01
2020-08-13 11:44:12.2830,0.46,0.07,-0.02
2020-08-13 11:44:12.3430,0.17,-0.25,0.03
2020-08-13 11:44:12.4320,-0.27,-0.28,0.1
2020-08-13 11:44:12.5230,-0.5,-0.27,0.06
2020-08-13 11:44:12.6120,-0.78,-0.09,0.01
2020-08-13 11:44:12.7060,-0.78,-0.02,-0.17
2020-08-13 11:44:12.7940,-0.73,-0.54,0.01
2020-08-13 11:44:12.8840,-0.16,0.09,0.33
2020-08-13 11:44:12.9880,-0.01,0.02,-0.02
2020-08-13 11:44:13.0810,0.0,0.01,-0.02
2020-08-13 11:44:13.1780,-0.04,0.02,-0.03
2020-08-13 11:44:13.2750,-0.03,0.01,-0.0
2020-08-13 11:44:13.3750,-0.02,0.02,-0.03
2020-08-13 11:44:13.4750,0.04,-0.0,0.01
2020-08-13 11:44:13.5280,0.06,-0.08,-0.0
2020-08-13 11:44:13.6320,0.13,-0.29,-0.09
2020-08-13 11:44:13.7230,0.41,-0.49,0.14
2020-08-13 11:44:13.8120,0.19,-0.01,0.03
2020-08-13 11:44:13.9030,0.69,0.11,0.1
2020-08-13 11:44:13.9940,0.71,0.29,0.03
2020-08-13 11:44:14.0840,0.31,-0.02,-0.03
2020-08-13 11:44:14.1730,-0.03,-0.27,0.12
2020-08-13 11:44:14.2730,-0.32,-0.23,0.16
2020-08-13 11:44:14.3720,-0.6,-0.27,-0.05
2020-08-13 11:44:14.4700,-1.0,-0.15,-0.07
2020-08-13 11:44:14.5690,1.18,-0.09,-0.06
2020-08-13 11:44:14.6690,-0.13,-0.04,0.21
2020-08-13 11:44:14.7200,-0.17,-0.05,-0.23
2020-08-13 11:44:14.8180,0.02,0.02,-0.02
2020-08-13 11:44:14.9010,-0.0,0.04,0.01
2020-08-13 11:44:14.9980,-0.08,0.01,-0.04
2020-08-13 11:44:15.0880,-0.03,0.01,0.01
2020-08-13 11:44:15.1780,0.02,0.0,-0.0
2020-08-13 11:44:15.2680,0.01,0.01,0.01
2020-08-13 11:44:15.3680,0.06,-0.09,-0.04
2020-08-13 11:44:15.4640,0.27,-0.4,-0.05
2020-08-13 11:44:15.5640,0.46,-0.41,0.02
2020-08-13 11:44:15.6680,0.37,-0.06,0.06
2020-08-13 11:44:15.7190,0.87,0.35,-0.18
2020-08-13 11:44:15.8230,0.52,0.25,-0.02
2020-08-13 11:44:15.9140,0.12,-0.19,-0.0
2020-08-13 11:44:15.9940,-0.18,-0.3,0.14
2020-08-13 11:44:16.0830,-0.49,-0.31,0.1
2020-08-13 11:44:16.1720,-0.88,-0.14,-0.02
2020-08-13 11:44:16.2610,-1.08,-0.08,-0.17
2020-08-13 11:44:16.3580,-0.38,-0.37,0.05
2020-08-13 11:44:16.4570,-0.2,0.08,0.23
2020-08-13 11:44:16.5560,-0.04,0.01,-0.02
2020-08-13 11:44:16.6570,-0.01,0.02,-0.03
2020-08-13 11:44:16.7540,-0.09,0.0,-0.01
2020-08-13 11:44:16.8120,0.02,-0.01,-0.02
2020-08-13 11:44:16.9030,0.02,0.02,0.0
2020-08-13 11:44:16.9920,0.02,0.02,-0.0
2020-08-13 11:44:17.0840,0.07,-0.01,-0.02
2020-08-13 11:44:17.1730,0.07,-0.16,-0.05
2020-08-13 11:44:17.2660,0.35,-0.51,0.11
2020-08-13 11:44:17.3690,0.47,-0.3,0.11
2020-08-13 11:44:17.4510,0.08,0.16,0.06
2020-08-13 11:44:17.5480,0.61,0.31,-0.05
2020-08-13 11:44:17.6470,0.47,-0.02,-0.03
2020-08-13 11:44:17.7460,0.07,-0.26,0.1
2020-08-13 11:44:17.8450,-0.21,-0.29,0.13
2020-08-13 11:44:17.9080,-0.63,-0.28,0.1
2020-08-13 11:44:18.0010,-0.77,-0.07,-0.06
2020-08-13 11:44:18.0880,-0.74,-0.12,-0.1
2020-08-13 11:44:18.1940,-0.14,-0.26,-0.23
2020-08-13 11:44:18.2680,-0.42,0.1,0.11
2020-08-13 11:44:18.3740,-0.15,0.01,0.13
2020-08-13 11:44:18.4470,0.05,0.0,-0.07
2020-08-13 11:44:18.5540,0.05,0.06,0.01
2020-08-13 11:44:18.6540,0.01,0.03,0.0
2020-08-13 11:44:18.7420,0.0,0.0,-0.0
2020-08-13 11:44:18.8410,-0.0,0.02,-0.03
2020-08-13 11:44:18.9000,0.04,0.0,-0.01
2020-08-13 11:44:18.9920,0.08,-0.12,0.0
2020-08-13 11:44:19.0810,0.23,-0.39,0.06
2020-08-13 11:44:19.1700,0.39,-0.32,-0.13
2020-08-13 11:44:19.2620,0.27,-0.03,0.04
2020-08-13 11:44:19.3520,0.79,0.29,-0.06
2020-08-13 11:44:19.4530,0.57,0.13,-0.06
2020-08-13 11:44:19.5570,0.18,-0.22,0.03
2020-08-13 11:44:19.6360,-0.15,-0.32,0.14
2020-08-13 11:44:19.7350,-0.55,-0.34,0.15
2020-08-13 11:44:19.8390,-0.85,-0.15,0.05
2020-08-13 11:44:19.9310,-1.11,-0.26,-0.38
2020-08-13 11:44:20.0340,-0.19,-0.24,-0.08
2020-08-13 11:44:20.0870,-0.59,0.08,0.14
2020-08-13 11:44:20.1890,-0.17,0.05,0.2
2020-08-13 11:44:20.2830,-0.02,0.01,-0.01
2020-08-13 11:44:20.3690,0.03,0.03,0.01
2020-08-13 11:44:20.4620,0.06,0.06,-0.03
2020-08-13 11:44:20.5510,-0.01,0.02,0.03
2020-08-13 11:44:20.6420,0.01,-0.01,-0.05
2020-08-13 11:44:20.7320,0.02,-0.03,-0.02
2020-08-13 11:44:20.8290,0.14,-0.24,-0.02
2020-08-13 11:44:20.9240,0.34,-0.43,0.07
2020-08-13 11:44:21.0240,0.44,-0.28,0.09
2020-08-13 11:44:21.1140,0.74,0.1,0.16
2020-08-13 11:44:21.2160,0.81,0.4,-0.03
2020-08-13 11:44:21.3130,0.32,-0.23,-0.02
2020-08-13 11:44:21.3750,-0.17,-0.36,0.1
2020-08-13 11:44:21.4630,-0.41,-0.36,0.05
2020-08-13 11:44:21.5540,-0.55,-0.17,0.04
2020-08-13 11:44:21.6450,-0.77,-0.04,-0.05
2020-08-13 11:44:21.7490,0.48,-0.04,0.02
2020-08-13 11:44:21.8250,-0.44,-0.08,-0.28
2020-08-13 11:44:21.9290,-0.02,0.0,-0.13
2020-08-13 11:44:22.0100,-0.08,0.08,0.17
2020-08-13 11:44:22.1100,-0.05,0.02,-0.0
2020-08-13 11:44:22.2090,-0.0,0.02,-0.02
2020-08-13 11:44:22.3080,-0.03,-0.01,-0.01
2020-08-13 11:44:22.4070,-0.01,0.01,-0.02
2020-08-13 11:44:22.4690,0.04,0.01,-0.02
2020-08-13 11:44:22.5580,0.01,-0.05,-0.02
2020-08-13 11:44:22.6480,0.14,-0.12,0.02
2020-08-13 11:44:22.7270,0.41,-0.49,0.06
2020-08-13 11:44:22.8180,0.54,-0.36,0.18
2020-08-13 11:44:22.9150,0.74,0.09,0.02
2020-08-13 11:44:23.0020,0.59,0.4,0.02
2020-08-13 11:44:23.1010,0.37,-0.0,-0.06
2020-08-13 11:44:23.2000,-0.04,-0.38,0.14
2020-08-13 11:44:23.3000,-0.37,-0.36,0.22
2020-08-13 11:44:23.4100,-0.63,-0.15,-0.05
2020-08-13 11:44:23.4590,-0.87,-0.08,-0.02
2020-08-13 11:44:23.5490,-0.53,-0.21,-0.26
2020-08-13 11:44:23.6500,-0.56,-0.44,-0.04
2020-08-13 11:44:23.7280,0.13,-0.02,-0.15
2020-08-13 11:44:23.8220,-0.01,0.03,0.05
2020-08-13 11:44:23.9110,-0.06,0.03,-0.03
2020-08-13 11:44:24.0150,-0.14,0.0,-0.05
2020-08-13 11:44:24.0970,-0.06,-0.02,-0.04
2020-08-13 11:44:24.1940,0.02,0.01,-0.02
2020-08-13 11:44:24.2960,-0.01,0.0,-0.07
2020-08-13 11:44:24.3940,-0.02,-0.07,-0.06
2020-08-13 11:44:24.4500,0.14,-0.27,0.01
2020-08-13 11:44:24.5400,0.35,-0.52,0.09
2020-08-13 11:44:24.6320,0.19,-0.09,0.05
2020-08-13 11:44:24.7220,0.81,0.3,-0.15
2020-08-13 11:44:24.8120,0.69,0.19,-0.04
2020-08-13 11:44:24.9020,0.26,-0.14,-0.01
2020-08-13 11:44:25.0040,-0.06,-0.23,0.12
2020-08-13 11:44:25.0940,-0.26,-0.29,0.05
2020-08-13 11:44:25.1850,-0.63,-0.2,0.04
2020-08-13 11:44:25.2840,-0.98,-0.08,-0.03
2020-08-13 11:44:25.3870,0.67,-0.21,-0.3
2020-08-13 11:44:25.4830,-0.17,0.08,0.35
2020-08-13 11:44:25.5450,0.18,0.02,-0.28
2020-08-13 11:44:25.6340,0.06,0.04,0.09
2020-08-13 11:44:25.7340,-0.02,0.02,-0.0
2020-08-13 11:44:25.8150,-0.01,-0.01,-0.01
2020-08-13 11:44:25.9150,-0.03,0.01,-0.0
2020-08-13 11:44:25.9960,-0.02,0.0,-0.01
2020-08-13 11:44:26.0910,-0.03,0.0,-0.03
2020-08-13 11:44:26.1900,0.02,-0.11,-0.05
2020-08-13 11:44:26.2890,0.22,-0.37,0.06
2020-08-13 11:44:26.3780,0.35,-0.43,0.05
2020-08-13 11:44:26.4760,0.17,-0.08,0.09
2020-08-13 11:44:26.5740,0.93,0.26,-0.09
2020-08-13 11:44:26.6740,0.63,0.23,-0.05
2020-08-13 11:44:26.7290,0.26,-0.12,-0.0
2020-08-13 11:44:26.8350,-0.07,-0.26,0.06
2020-08-13 11:44:26.9090,-0.34,-0.27,0.11
2020-08-13 11:44:27.0000,-0.64,-0.29,0.06
2020-08-13 11:44:27.0940,-0.92,-0.06,-0.16
2020-08-13 11:44:27.1840,0.75,-0.07,-0.06
2020-08-13 11:44:27.2700,-0.44,-0.08,0.06
2020-08-13 11:44:27.3780,0.1,-0.02,-0.2
2020-08-13 11:44:27.4770,0.02,0.01,0.03
2020-08-13 11:44:27.5660,0.01,0.01,0.04
2020-08-13 11:44:27.6670,0.01,0.01,-0.02
2020-08-13 11:44:27.7650,-0.03,0.02,0.0
2020-08-13 11:44:27.8120,0.02,0.02,-0.03
2020-08-13 11:44:27.9000,0.01,-0.01,-0.01
2020-08-13 11:44:28.0050,0.04,-0.06,-0.02
2020-08-13 11:44:28.0810,0.11,-0.18,-0.04
2020-08-13 11:44:28.1700,0.36,-0.45,0.07
2020-08-13 11:44:28.2740,0.24,-0.34,0.17
2020-08-13 11:44:28.3600,0.44,0.13,0.18
2020-08-13 11:44:28.4590,0.67,0.37,-0.03
2020-08-13 11:44:28.5710,0.28,-0.07,-0.02
2020-08-13 11:44:28.6580,-0.01,-0.24,0.05
2020-08-13 11:44:28.7130,-0.35,-0.4,0.08
2020-08-13 11:44:28.8140,-0.6,-0.22,0.01
2020-08-13 11:44:28.9050,-0.84,-0.03,-0.06
2020-08-13 11:44:28.9940,-0.28,-0.18,-0.18
2020-08-13 11:44:29.0840,-0.29,-0.23,0.29
2020-08-13 11:44:29.1740,0.26,0.13,0.01
2020-08-13 11:44:29.2640,-0.02,0.02,0.07
2020-08-13 11:44:29.3550,-0.02,-0.01,-0.04
2020-08-13 11:44:29.4540,-0.05,0.06,0.04
2020-08-13 11:44:29.5570,-0.04,-0.01,-0.04
2020-08-13 11:44:29.6500,0.05,0.03,0.01
2020-08-13 11:44:29.7500,0.07,-0.01,-0.0
2020-08-13 11:44:29.8490,0.05,-0.1,-0.02
2020-08-13 11:44:29.9100,0.12,-0.18,-0.06
2020-08-13 11:44:29.9990,0.37,-0.45,0.08
2020-08-13 11:44:30.0900,0.35,-0.3,0.08
2020-08-13 11:44:30.1940,0.92,0.29,-0.11
2020-08-13 11:44:30.2710,0.73,0.29,-0.11
2020-08-13 11:44:30.3600,0.31,-0.15,-0.09
2020-08-13 11:44:30.4510,-0.14,-0.34,0.14
2020-08-13 11:44:30.5550,-0.33,-0.2,0.15
2020-08-13 11:44:30.6450,-0.67,-0.12,0.04
2020-08-13 11:44:30.7440,-0.88,-0.07,-0.11
2020-08-13 11:44:30.8420,0.65,-0.16,-0.04
2020-08-13 11:44:30.9390,-0.77,-0.4,-0.11
2020-08-13 11:44:31.0020,-0.05,0.06,-0.04
2020-08-13 11:44:31.0830,0.01,-0.01,0.06
2020-08-13 11:44:31.1720,-0.02,-0.01,-0.02
2020-08-13 11:44:31.2610,-0.04,0.0,-0.04
2020-08-13 11:44:31.3610,0.01,0.02,0.01
2020-08-13 11:44:31.4430,0.01,0.01,-0.04
2020-08-13 11:44:31.5390,0.01,-0.0,-0.04
2020-08-13 11:44:31.6370,0.06,-0.08,-0.01
2020-08-13 11:44:31.7350,0.19,-0.28,0.07
2020-08-13 11:44:31.8370,0.53,-0.41,0.03
2020-08-13 11:44:31.9340,0.25,-0.12,0.15
2020-08-13 11:44:31.9940,1.09,0.23,0.2
2020-08-13 11:44:32.0850,0.57,0.27,-0.04
2020-08-13 11:44:32.1820,0.15,-0.19,0.07
2020-08-13 11:44:32.2770,-0.22,-0.31,0.07
2020-08-13 11:44:32.3700,-0.51,-0.32,0.11
2020-08-13 11:44:32.4540,-0.67,-0.09,0.05
2020-08-13 11:44:32.5500,-0.98,-0.06,-0.12
2020-08-13 11:44:32.6340,-0.23,-0.63,0.02
2020-08-13 11:44:32.7310,-0.26,-0.08,0.18
2020-08-13 11:44:32.8300,-0.02,0.0,-0.03
2020-08-13 11:44:32.9260,-0.05,-0.0,-0.05
2020-08-13 11:44:33.0250,-0.02,0.03,0.02
2020-08-13 11:44:33.0800,-0.01,0.01,-0.03
2020-08-13 11:44:33.1770,-0.01,0.01,0.02
2020-08-13 11:44:33.2600,0.01,-0.0,-0.02
2020-08-13 11:44:33.3560,-0.0,-0.02,-0.02
2020-08-13 11:44:33.4410,0.07,-0.13,-0.02
2020-08-13 11:44:33.5360,0.4,-0.41,0.05
2020-08-13 11:44:33.6220,0.33,-0.31,0.04
2020-08-13 11:44:33.7280,0.08,0.02,0.1
2020-08-13 11:44:33.8200,0.67,0.28,0.01
2020-08-13 11:44:33.9190,0.53,0.17,-0.05
2020-08-13 11:44:34.0170,0.11,-0.31,0.04
2020-08-13 11:44:34.0810,-0.25,-0.3,0.09
2020-08-13 11:44:34.1720,-0.54,-0.27,0.05
2020-08-13 11:44:34.2750,-0.91,-0.08,-0.09
2020-08-13 11:44:34.3510,-0.76,-0.2,-0.18
2020-08-13 11:44:34.4560,-0.18,-0.18,-0.03
2020-08-13 11:44:34.5460,-0.09,-0.0,-0.09
2020-08-13 11:44:34.6360,-0.07,0.01,0.14
2020-08-13 11:44:34.7250,-0.04,0.01,0.0
2020-08-13 11:44:34.8120,-0.07,0.03,-0.02
2020-08-13 11:44:34.9110,-0.02,0.02,-0.01
2020-08-13 11:44:35.0170,-0.03,0.05,-0.01
2020-08-13 11:44:35.1090,-0.01,-0.0,-0.02
2020-08-13 11:44:35.2100,0.01,-0.09,-0.02
2020-08-13 11:44:35.3090,0.02,-0.11,-0.01
2020-08-13 11:44:35.3710,0.37,-0.53,0.04
2020-08-13 11:44:35.4530,0.25,-0.39,0.11
2020-08-13 11:44:35.5510,0.28,0.21,0.04
2020-08-13 11:44:35.6500,0.62,0.35,0.03
2020-08-13 11:44:35.7450,0.3,-0.08,-0.03
2020-08-13 11:44:35.8300,-0.08,-0.36,0.08
2020-08-13 11:44:35.9110,-0.32,-0.29,0.15
2020-08-13 11:44:36.0030,-0.57,-0.24,-0.05
2020-08-13 11:44:36.1060,-0.89,-0.05,0.0
2020-08-13 11:44:36.2040,-0.92,-0.13,-0.2
2020-08-13 11:44:36.3010,-0.26,-0.08,-0.32
2020-08-13 11:44:36.3620,-0.05,0.06,-0.0
2020-08-13 11:44:36.4510,0.01,0.05,0.13
2020-08-13 11:44:36.5530,0.0,-0.01,-0.08
2020-08-13 11:44:36.6340,-0.03,0.01,0.01
2020-08-13 11:44:36.7310,-0.03,0.04,0.01
2020-08-13 11:44:36.8200,-0.02,0.02,-0.02
2020-08-13 11:44:36.9040,0.03,0.04,-0.03
2020-08-13 11:44:37.0060,-0.03,-0.09,-0.08
2020-08-13 11:44:37.0950,0.14,-0.2,-0.01
2020-08-13 11:44:37.1930,0.31,-0.41,-0.05
2020-08-13 11:44:37.2970,0.48,-0.25,0.16
2020-08-13 11:44:37.3920,0.32,0.19,0.35
2020-08-13 11:44:37.4560,0.7,0.29,0.05
2020-08-13 11:44:37.5610,0.28,-0.06,-0.04
2020-08-13 11:44:37.6460,-0.01,-0.27,0.03
2020-08-13 11:44:37.7270,-0.31,-0.29,0.07
2020-08-13 11:44:37.8180,-0.6,-0.24,0.01
2020-08-13 11:44:37.9160,-0.62,-0.02,-0.05
2020-08-13 11:44:38.0120,-0.86,-0.05,-0.14
2020-08-13 11:44:38.0930,-0.55,-0.39,0.21
2020-08-13 11:44:38.1910,-0.02,0.1,0.19
2020-08-13 11:44:38.2880,0.07,-0.04,-0.13
2020-08-13 11:44:38.3870,-0.02,-0.01,-0.08
2020-08-13 11:44:38.4880,-0.06,0.01,0.01
2020-08-13 11:44:38.5880,-0.01,0.0,-0.0
2020-08-13 11:44:38.6850,-0.02,0.01,-0.02
2020-08-13 11:44:38.7330,0.01,0.05,0.0
2020-08-13 11:44:38.8360,0.03,-0.02,-0.05
2020-08-13 11:44:38.9260,0.08,-0.11,-0.01
2020-08-13 11:44:39.0150,0.21,-0.31,-0.05
2020-08-13 11:44:39.0920,0.3,-0.38,-0.01
2020-08-13 11:44:39.1940,0.14,-0.14,0.14
2020-08-13 11:44:39.2830,0.81,0.3,-0.01
2020-08-13 11:44:39.3870,0.78,0.32,-0.02
2020-08-13 11:44:39.4710,0.26,-0.23,-0.02
2020-08-13 11:44:39.5710,-0.23,-0.32,0.15
2020-08-13 11:44:39.6700,-0.44,-0.31,-0.02
2020-08-13 11:44:39.7690,-0.78,-0.09,-0.01
2020-08-13 11:44:39.8250,-0.77,-0.03,-0.06
2020-08-13 11:44:39.9160,0.06,-0.76,-0.44
2020-08-13 11:44:40.0050,-0.34,-0.05,0.31
2020-08-13 11:44:40.1000,-0.05,0.01,0.08
2020-08-13 11:44:40.1980,0.01,-0.01,-0.05
2020-08-13 11:44:40.2880,-0.01,-0.0,-0.0
2020-08-13 11:44:40.3770,-0.01,0.03,-0.01
2020-08-13 11:44:40.4670,-0.04,0.01,-0.01
2020-08-13 11:44:40.5630,0.0,0.03,0.01
2020-08-13 11:44:40.6620,0.0,-0.04,-0.06
2020-08-13 11:44:40.7610,0.07,-0.08,0.01
2020-08-13 11:44:40.8320,0.19,-0.3,-0.01
2020-08-13 11:44:40.9210,0.45,-0.38,-0.0
2020-08-13 11:44:41.0130,0.21,-0.13,0.1
2020-08-13 11:44:41.1110,0.73,0.33,-0.16
2020-08-13 11:44:41.2060,0.57,0.21,0.02
2020-08-13 11:44:41.2830,0.18,-0.2,0.04
2020-08-13 11:44:41.3860,-0.23,-0.33,0.08
2020-08-13 11:44:41.4630,-0.4,-0.25,0.12
2020-08-13 11:44:41.5570,-0.56,-0.1,-0.05
2020-08-13 11:44:41.6570,-0.95,-0.04,-0.14
2020-08-13 11:44:41.7560,-0.58,-0.69,-0.21
2020-08-13 11:44:41.8530,-0.38,0.01,0.17
2020-08-13 11:44:41.9520,-0.03,0.02,0.04
2020-08-13 11:44:42.0520,-0.01,0.01,-0.04
2020-08-13 11:44:42.1220,-0.04,0.02,-0.01
2020-08-13 11:44:42.2030,-0.03,0.02,-0.02
2020-08-13 11:44:42.3020,0.01,0.01,-0.0
2020-08-13 11:44:42.3820,0.04,0.03,-0.03
2020-08-13 11:44:42.4710,0.08,-0.04,-0.05
2020-08-13 11:44:42.5600,0.07,-0.1,0.03
2020-08-13 11:44:42.6500,0.27,-0.44,0.03
2020-08-13 11:44:42.7460,0.29,-0.3,0.1
2020-08-13 11:44:42.8460,0.13,0.1,0.11
2020-08-13 11:44:42.9450,0.59,0.31,0.02
2020-08-13 11:44:43.0450,0.51,0.07,-0.04
2020-08-13 11:44:43.0980,0.18,-0.15,0.06
2020-08-13 11:44:43.2010,-0.2,-0.24,0.11
2020-08-13 11:44:43.2910,-0.38,-0.22,0.12
2020-08-13 11:44:43.3810,-0.63,-0.16,0.1
2020-08-13 11:44:43.4720,-0.83,-0.09,-0.13
2020-08-13 11:44:43.5610,0.61,-0.04,-0.22
2020-08-13 11:44:43.6520,-0.1,0.01,-0.17
2020-08-13 11:44:43.7510,0.0,0.04,-0.23
2020-08-13 11:44:43.8400,-0.02,0.05,0.14
2020-08-13 11:44:43.9410,-0.13,-0.05,-0.07
2020-08-13 11:44:44.0120,-0.06,0.03,0.04
2020-08-13 11:44:44.1390,-0.03,-0.0,-0.03
2020-08-13 11:44:44.1930,0.02,0.04,0.01
2020-08-13 11:44:44.2900,-0.0,0.0,-0.02
2020-08-13 11:44:44.3870,0.01,-0.07,-0.03
2020-08-13 11:44:44.4770,0.08,-0.2,-0.05
2020-08-13 11:44:44.5670,0.38,-0.36,0.08
2020-08-13 11:44:44.6570,0.38,-0.33,0.14
2020-08-13 11:44:44.7470,0.1,0.29,0.27
2020-08-13 11:44:44.8340,0.71,0.24,-0.01
2020-08-13 11:44:44.9340,0.47,0.03,-0.07
2020-08-13 11:44:45.0410,0.12,-0.22,0.04
2020-08-13 11:44:45.1290,-0.28,-0.33,0.09
2020-08-13 11:44:45.1850,-0.55,-0.27,0.11
2020-08-13 11:44:45.2760,-0.81,-0.07,0.04
2020-08-13 11:44:45.3920,-0.79,-0.03,-0.04
2020-08-13 11:44:45.4720,-0.39,-0.38,-0.12
2020-08-13 11:44:45.5560,-0.32,0.02,0.11
2020-08-13 11:44:45.6470,-0.03,0.01,0.04
2020-08-13 11:44:45.7400,0.01,0.03,-0.03
2020-08-13 11:44:45.8290,-0.02,0.0,-0.02
2020-08-13 11:44:45.9260,0.02,0.02,0.01
2020-08-13 11:44:46.0310,0.04,0.02,-0.03
2020-08-13 11:44:46.1220,0.03,0.03,-0.02
2020-08-13 11:44:46.2220,0.03,0.04,-0.06
2020-08-13 11:44:46.3210,0.08,-0.13,0.0
2020-08-13 11:44:46.3830,0.22,-0.34,-0.06
2020-08-13 11:44:46.4720,0.41,-0.4,0.05
2020-08-13 11:44:46.5620,0.21,0.05,0.11
2020-08-13 11:44:46.6670,0.7,0.28,0.03
2020-08-13 11:44:46.7500,0.55,0.04,-0.0
2020-08-13 11:44:46.8330,0.2,-0.2,0.02
2020-08-13 11:44:46.9370,-0.18,-0.3,0.1
2020-08-13 11:44:47.0270,-0.4,-0.29,0.05
2020-08-13 11:44:47.1170,-0.68,-0.14,0.01
2020-08-13 11:44:47.2160,-0.88,-0.02,-0.1
2020-08-13 11:44:47.3200,1.28,-0.31,-0.09
2020-08-13 11:44:47.4110,-0.31,-0.21,0.27
2020-08-13 11:44:47.4740,0.05,0.02,-0.14
2020-08-13 11:44:47.5630,-0.08,-0.01,-0.0
2020-08-13 11:44:47.6530,0.06,0.01,0.01
2020-08-13 11:44:47.7360,-0.01,0.02,0.0
2020-08-13 11:44:47.8320,-0.01,0.02,0.0
2020-08-13 11:44:47.9140,-0.06,-0.02,-0.01
2020-08-13 11:44:48.0170,0.03,-0.01,-0.0
2020-08-13 11:44:48.1110,0.03,-0.09,-0.06
2020-08-13 11:44:48.2050,0.18,-0.32,0.06
2020-08-13 11:44:48.3050,0.39,-0.29,0.04
2020-08-13 11:44:48.4050,0.33,-0.03,0.01
2020-08-13 11:44:48.5060,0.93,0.15,0.14
2020-08-13 11:44:48.5730,0.66,0.24,-0.03
2020-08-13 11:44:48.6630,0.36,-0.14,-0.02
2020-08-13 11:44:48.7520,-0.03,-0.28,0.06
2020-08-13 11:44:48.8420,-0.39,-0.35,0.11
2020-08-13 11:44:48.9330,-0.78,-0.24,-0.05
2020-08-13 11:44:49.0220,-0.83,-0.01,-0.1
2020-08-13 11:44:49.1130,1.24,-0.21,0.03
2020-08-13 11:44:49.2030,-0.08,0.05,0.25
2020-08-13 11:44:49.3020,0.29,-0.01,-0.28
2020-08-13 11:44:49.4000,0.02,0.01,0.01
2020-08-13 11:44:49.4980,0.03,0.01,0.04
2020-08-13 11:44:49.5970,0.01,0.05,-0.02
2020-08-13 11:44:49.6960,-0.02,0.04,-0.01
2020-08-13 11:44:49.7570,-0.04,0.05,-0.03
2020-08-13 11:44:49.8470,-0.01,0.02,-0.01
2020-08-13 11:44:49.9380,0.03,-0.05,-0.03
2020-08-13 11:44:50.0260,0.04,-0.12,-0.04
2020-08-13 11:44:50.1040,0.23,-0.3,0.02
2020-08-13 11:44:50.2010,0.36,-0.4,0.06
2020-08-13 11:44:50.2900,0.39,-0.06,0.09
2020-08-13 11:44:50.3940,1.18,0.29,0.03
2020-08-13 11:44:50.4900,0.58,0.23,-0.02
2020-08-13 11:44:50.5920,0.3,-0.1,-0.02
2020-08-13 11:44:50.6890,-0.32,-0.36,0.1
2020-08-13 11:44:50.7880,-0.44,-0.26,0.0
2020-08-13 11:44:50.8370,-0.53,-0.15,-0.09
2020-08-13 11:44:50.9280,-0.75,-0.05,-0.06
2020-08-13 11:44:51.0180,1.19,-0.14,0.06
2020-08-13 11:44:51.1080,-0.62,-0.23,-0.16
2020-08-13 11:44:51.1980,-0.14,0.0,-0.01
2020-08-13 11:44:51.2990,-0.01,0.02,0.01
2020-08-13 11:44:51.3940,-0.03,0.02,-0.0
2020-08-13 11:44:51.4810,-0.07,0.02,-0.06
2020-08-13 11:44:51.5810,-0.01,0.03,0.02
2020-08-13 11:44:51.6820,0.03,0.01,-0.0
2020-08-13 11:44:51.7800,0.02,0.02,-0.02
2020-08-13 11:44:51.8430,0.07,-0.05,-0.0
2020-08-13 11:44:51.9230,0.14,-0.28,-0.03
2020-08-13 11:44:52.0120,0.23,-0.4,0.08
2020-08-13 11:44:52.1020,0.22,-0.06,0.05
2020-08-13 11:44:52.2020,0.83,0.2,-0.08
2020-08-13 11:44:52.2920,0.68,0.26,-0.0
2020-08-13 11:44:52.3820,0.31,-0.14,-0.02
2020-08-13 11:44:52.4750,-0.17,-0.37,0.06
2020-08-13 11:44:52.5740,-0.42,-0.35,0.14
2020-08-13 11:44:52.6730,-0.7,-0.2,-0.08
2020-08-13 11:44:52.7790,-0.93,-0.05,-0.03
2020-08-13 11:44:52.8710,1.45,-0.13,-0.02
2020-08-13 11:44:52.9260,-0.23,-0.15,0.14
2020-08-13 11:44:53.0230,-0.01,0.02,-0.12
2020-08-13 11:44:53.1120,-0.02,0.01,0.06
2020-08-13 11:44:53.1960,0.03,0.03,0.03
2020-08-13 11:44:53.2980,-0.06,0.03,-0.0
2020-08-13 11:44:53.3880,-0.03,0.01,0.02
2020-08-13 11:44:53.4700,-0.02,-0.01,-0.01
2020-08-13 11:44:53.5690,0.03,0.05,-0.01
2020-08-13 11:44:53.6660,0.02,-0.04,-0.05
2020-08-13 11:44:53.7630,0.03,-0.11,0.01
2020-08-13 11:44:53.8620,0.32,-0.36,0.02
2020-08-13 11:44:53.9150,0.34,-0.31,0.09
2020-08-13 11:44:54.0080,0.11,-0.14,0.14
2020-08-13 11:44:54.1050,0.84,0.32,-0.09
2020-08-13 11:44:54.1880,0.58,0.17,-0.04
2020-08-13 11:44:54.2830,0.12,-0.2,0.05
2020-08-13 11:44:54.3670,-0.22,-0.33,0.08
2020-08-13 11:44:54.4680,-0.6,-0.31,0.11
2020-08-13 11:44:54.5580,-0.79,-0.12,-0.0
2020-08-13 11:44:54.6580,-0.81,-0.06,-0.08
2020-08-13 11:44:54.7570,0.57,-0.36,-0.32
2020-08-13 11:44:54.8560,-0.71,-0.24,-0.07
2020-08-13 11:44:54.9180,-0.34,-0.04,-0.11
2020-08-13 11:44:55.0080,-0.03,0.01,0.03
2020-08-13 11:44:55.1000,-0.02,0.02,0.05
2020-08-13 11:44:55.2030,-0.01,0.05,0.01
2020-08-13 11:44:55.2870,-0.01,0.0,-0.02
2020-08-13 11:44:55.3770,0.03,0.0,-0.02
2020-08-13 11:44:55.4740,0.02,0.0,0.02
2020-08-13 11:44:55.5560,0.07,-0.04,0.03
2020-08-13 11:44:55.6530,0.24,-0.32,0.03
2020-08-13 11:44:55.7510,0.47,-0.39,-0.06
2020-08-13 11:44:55.8480,0.31,-0.01,0.16
2020-08-13 11:44:55.9480,0.98,0.16,0.3
2020-08-13 11:44:56.0460,0.54,0.22,-0.05
2020-08-13 11:44:56.1460,0.16,-0.11,0.04
2020-08-13 11:44:56.2090,-0.4,-0.4,-0.01
2020-08-13 11:44:56.2980,-0.61,-0.41,0.09
2020-08-13 11:44:56.3750,-0.65,-0.2,0.0
2020-08-13 11:44:56.4760,-0.78,-0.06,-0.04
2020-08-13 11:44:56.5650,1.01,-0.0,-0.08
2020-08-13 11:44:56.6550,-0.62,-0.17,-0.27
2020-08-13 11:44:56.7410,-0.07,0.05,0.03
2020-08-13 11:44:56.8390,-0.14,-0.01,0.03
2020-08-13 11:44:56.9440,-0.04,0.02,0.04
2020-08-13 11:44:57.0390,-0.14,0.01,-0.01
2020-08-13 11:44:57.1380,-0.07,0.02,0.02
2020-08-13 11:44:57.2360,-0.1,0.04,0.02
2020-08-13 11:44:57.2890,-0.06,-0.02,0.02
2020-08-13 11:44:57.3780,-0.04,-0.03,0.05
2020-08-13 11:44:57.4690,0.18,-0.21,0.03
2020-08-13 11:44:57.5610,0.24,-0.39,0.16
2020-08-13 11:44:57.6640,0.21,-0.17,0.14
2020-08-13 11:44:57.7480,0.79,0.3,-0.06
2020-08-13 11:44:57.8430,0.48,0.38,-0.03
2020-08-13 11:44:57.9340,0.19,-0.17,-0.1
2020-08-13 11:44:58.0350,-0.34,-0.38,0.07
2020-08-13 11:44:58.1340,-0.46,-0.24,0.13
2020-08-13 11:44:58.2310,-0.56,-0.15,0.01
2020-08-13 11:44:58.2940,-0.66,-0.1,0.03
2020-08-13 11:44:58.3830,-0.66,-0.06,-0.16
2020-08-13 11:44:58.4820,0.15,-0.68,-0.04
2020-08-13 11:44:58.5790,-0.37,0.08,0.18
2020-08-13 11:44:58.6600,-0.06,-0.01,-0.05
2020-08-13 11:44:58.7590,-0.13,-0.02,-0.03
2020-08-13 11:44:58.8490,-0.16,0.0,0.0
2020-08-13 11:44:58.9390,-0.14,0.0,-0.02
2020-08-13 11:44:59.0290,-0.11,-0.0,0.01
2020-08-13 11:44:59.1270,-0.09,0.01,-0.01
2020-08-13 11:44:59.2310,-0.06,0.03,-0.04
2020-08-13 11:44:59.3210,-0.04,-0.04,-0.05
2020-08-13 11:44:59.3770,0.03,-0.23,0.02
2020-08-13 11:44:59.5130,0.33,-0.34,0.0
2020-08-13 11:44:59.6130,0.11,-0.07,0.26
2020-08-13 11:44:59.6670,0.67,0.13,0.17
2020-08-13 11:44:59.7640,0.57,0.38,-0.14
2020-08-13 11:44:59.8460,0.2,0.01,-0.01
2020-08-13 11:44:59.9440,0.06,-0.14,-0.03
2020-08-13 11:45:00.0230,-0.22,-0.31,0.11
2020-08-13 11:45:00.1190,-0.76,-0.34,0.17
2020-08-13 11:45:00.2070,-1.05,-0.16,-0.12
2020-08-13 11:45:00.3070,0.55,-0.01,0.03
2020-08-13 11:45:00.4060,-0.42,-0.51,-0.12
2020-08-13 11:45:00.5070,-0.24,0.06,0.17
2020-08-13 11:45:00.6060,-0.19,-0.06,-0.04
2020-08-13 11:45:00.7050,-0.14,0.03,0.01
2020-08-13 11:45:00.7580,-0.07,0.01,-0.02
2020-08-13 11:45:00.8450,-0.07,0.0,-0.01
2020-08-13 11:45:00.9450,-0.06,0.01,-0.01
2020-08-13 11:45:01.0340,-0.11,0.03,-0.06
2020-08-13 11:45:01.1170,-0.05,-0.08,-0.03
2020-08-13 11:45:01.2130,0.11,-0.27,0.08
2020-08-13 11:45:01.3090,0.48,-0.41,-0.01
2020-08-13 11:45:01.3980,0.12,-0.05,0.25
2020-08-13 11:45:01.4990,0.77,0.31,-0.04
2020-08-13 11:45:01.5970,0.63,0.4,-0.08
2020-08-13 11:45:01.6970,0.21,-0.05,-0.05
2020-08-13 11:45:01.7580,-0.08,-0.2,0.12
2020-08-13 11:45:01.8490,-0.37,-0.35,0.06
2020-08-13 11:45:01.9370,-0.67,-0.24,0.03
2020-08-13 11:45:02.0270,-0.73,-0.12,-0.1
2020-08-13 11:45:02.1090,-0.42,-0.08,-0.11
2020-08-13 11:45:02.2050,-0.28,-0.08,-0.12
2020-08-13 11:45:02.2930,-0.16,-0.02,-0.12
2020-08-13 11:45:02.3920,-0.13,-0.01,0.05
2020-08-13 11:45:02.4910,-0.12,-0.03,-0.0
2020-08-13 11:45:02.5900,-0.08,0.06,0.04
2020-08-13 11:45:02.6880,-0.26,-0.12,-0.11
2020-08-13 11:45:02.7880,-0.09,0.0,-0.0
2020-08-13 11:45:02.8390,-0.05,0.01,-0.0
2020-08-13 11:45:02.9310,-0.06,-0.03,-0.02
2020-08-13 11:45:03.0220,-0.03,-0.1,-0.01
2020-08-13 11:45:03.1110,0.2,-0.35,0.04
2020-08-13 11:45:03.2010,0.25,-0.27,0.13
2020-08-13 11:45:03.2990,0.13,0.21,0.19
2020-08-13 11:45:03.3830,0.65,0.3,-0.04
2020-08-13 11:45:03.4940,0.48,0.17,-0.0
2020-08-13 11:45:03.5870,0.18,-0.08,-0.05
2020-08-13 11:45:03.6810,-0.19,-0.2,0.15
2020-08-13 11:45:03.7400,-0.36,-0.26,0.01
2020-08-13 11:45:03.8300,-0.64,-0.24,-0.01
2020-08-13 11:45:03.9220,-1.02,-0.09,-0.08
2020-08-13 11:45:04.0120,-0.78,-0.68,-0.32
2020-08-13 11:45:04.1020,-0.02,0.11,0.47
2020-08-13 11:45:04.2030,0.03,-0.01,-0.09
2020-08-13 11:45:04.2940,-0.0,-0.0,-0.07
2020-08-13 11:45:04.3840,-0.1,0.01,-0.0
2020-08-13 11:45:04.4750,-0.05,0.01,-0.04
2020-08-13 11:45:04.5740,-0.05,0.02,0.01
2020-08-13 11:45:04.6860,-0.03,0.02,-0.0
2020-08-13 11:45:04.7450,-0.04,0.01,0.02
2020-08-13 11:45:04.8340,0.0,-0.04,-0.03
2020-08-13 11:45:04.9250,0.02,-0.13,-0.0
2020-08-13 11:45:05.0140,0.27,-0.32,0.04
2020-08-13 11:45:05.1070,0.32,-0.41,0.15
2020-08-13 11:45:05.1970,0.02,0.22,0.04
2020-08-13 11:45:05.3000,0.71,0.3,-0.01
2020-08-13 11:45:05.3900,0.44,0.2,-0.0
2020-08-13 11:45:05.4710,0.12,-0.13,0.06
2020-08-13 11:45:05.5700,-0.23,-0.3,0.06
2020-08-13 11:45:05.6690,-0.54,-0.34,0.12
2020-08-13 11:45:05.7660,-0.67,-0.11,0.01
2020-08-13 11:45:05.8650,-0.99,0.0,-0.08
2020-08-13 11:45:05.9170,-0.46,-0.9,-0.34
2020-08-13 11:45:06.0090,-0.28,-0.0,0.18
2020-08-13 11:45:06.1060,-0.22,-0.01,-0.03
2020-08-13 11:45:06.1990,-0.02,0.0,0.0
2020-08-13 11:45:06.3030,-0.09,-0.01,-0.04
2020-08-13 11:45:06.3800,-0.04,0.01,0.01
2020-08-13 11:45:06.4740,-0.03,0.05,0.01
2020-08-13 11:45:06.5700,-0.01,0.08,-0.05
2020-08-13 11:45:06.6610,-0.06,-0.04,-0.02
2020-08-13 11:45:06.7580,0.05,-0.09,0.0
2020-08-13 11:45:06.8670,0.2,-0.29,0.04
2020-08-13 11:45:06.9210,0.36,-0.37,-0.01
2020-08-13 11:45:07.0100,0.24,0.0,0.08
2020-08-13 11:45:07.1020,0.72,0.16,0.11
2020-08-13 11:45:07.1900,0.46,0.35,0.0
2020-08-13 11:45:07.2900,0.2,-0.06,-0.06
2020-08-13 11:45:07.3850,-0.04,-0.11,-0.03
2020-08-13 11:45:07.4620,-0.34,-0.13,0.05
2020-08-13 11:45:07.5590,-0.57,-0.23,0.05
2020-08-13 11:45:07.6560,-1.01,-0.22,0.04
2020-08-13 11:45:07.7540,2.35,-0.19,0.01
2020-08-13 11:45:07.8570,-0.07,0.05,0.09
2020-08-13 11:45:07.9110,-0.18,-0.05,-0.14
2020-08-13 11:45:08.0010,-0.12,-0.02,0.01
2020-08-13 11:45:08.0910,-0.12,0.0,-0.01
2020-08-13 11:45:08.1810,-0.05,0.02,-0.02
2020-08-13 11:45:08.2730,-0.02,0.01,-0.02
2020-08-13 11:45:08.3630,-0.07,0.01,-0.0
2020-08-13 11:45:08.4610,-0.06,0.01,-0.03
2020-08-13 11:45:08.5490,-0.04,-0.05,-0.03
2020-08-13 11:45:08.6470,0.07,-0.2,-0.02
2020-08-13 11:45:08.7470,0.25,-0.42,0.12
2020-08-13 11:45:08.8480,0.04,-0.12,0.12
2020-08-13 11:45:08.9440,0.81,0.16,-0.05
2020-08-13 11:45:09.0440,0.55,0.33,-0.07
2020-08-13 11:45:09.1060,0.28,0.0,-0.09
2020-08-13 11:45:09.1890,-0.0,-0.19,-0.02
2020-08-13 11:45:09.2840,-0.19,-0.13,0.11
2020-08-13 11:45:09.3750,-0.4,-0.22,0.06
2020-08-13 11:45:09.4630,-0.84,-0.18,0.04
2020-08-13 11:45:09.5600,-0.74,-0.07,-0.01
2020-08-13 11:45:09.6510,0.42,-0.5,-0.23
2020-08-13 11:45:09.7490,-0.4,0.06,0.16
2020-08-13 11:45:09.8390,-0.17,-0.03,-0.01
2020-08-13 11:45:09.9380,-0.13,-0.04,-0.05
2020-08-13 11:45:10.0380,-0.11,0.02,-0.0
2020-08-13 11:45:10.1010,0.0,0.04,0.01
2020-08-13 11:45:10.1900,-0.06,0.06,0.0
2020-08-13 11:45:10.2950,-0.02,0.01,0.0
2020-08-13 11:45:10.3710,-0.03,-0.02,-0.04
2020-08-13 11:45:10.4610,0.03,-0.09,-0.04
2020-08-13 11:45:10.5510,0.21,-0.25,0.03
2020-08-13 11:45:10.6410,0.49,-0.34,0.01
2020-08-13 11:45:10.7380,0.26,-0.09,0.05
2020-08-13 11:45:10.8340,0.74,0.32,-0.01
2020-08-13 11:45:10.9310,0.47,0.3,0.0
2020-08-13 11:45:11.0310,0.1,-0.05,-0.02
2020-08-13 11:45:11.1280,-0.19,-0.15,0.05
2020-08-13 11:45:11.1810,-0.3,-0.11,-0.02
2020-08-13 11:45:11.2830,-0.59,-0.13,-0.04
2020-08-13 11:45:11.3700,-0.97,-0.15,-0.09
2020-08-13 11:45:11.4620,0.63,-0.1,-0.07
2020-08-13 11:45:11.5440,-0.24,-0.03,0.04
2020-08-13 11:45:11.6400,0.0,0.02,-0.01
2020-08-13 11:45:11.7350,-0.1,-0.01,-0.01
2020-08-13 11:45:11.8250,-0.08,0.01,0.01
2020-08-13 11:45:11.9150,-0.08,0.02,-0.02
2020-08-13 11:45:12.0140,-0.07,-0.01,-0.02
2020-08-13 11:45:12.1150,-0.05,0.07,-0.04
2020-08-13 11:45:12.2130,-0.04,0.03,-0.02
2020-08-13 11:45:12.3130,-0.01,-0.02,-0.08
2020-08-13 11:45:12.3740,0.02,-0.17,-0.06
2020-08-13 11:45:12.4560,0.32,-0.43,0.08
2020-08-13 11:45:12.5530,0.16,-0.31,0.18
2020-08-13 11:45:12.6390,0.04,0.12,0.27
2020-08-13 11:45:12.7320,0.55,0.35,-0.03
2020-08-13 11:45:12.8240,0.5,0.17,-0.1
2020-08-13 11:45:12.9210,0.08,-0.01,0.03
2020-08-13 11:45:13.0070,-0.17,-0.36,0.13
2020-08-13 11:45:13.1060,-0.49,-0.38,0.01
2020-08-13 11:45:13.2050,-1.13,-0.22,-0.11
2020-08-13 11:45:13.3040,0.64,-0.08,0.04
2020-08-13 11:45:13.3630,-0.13,-0.0,-0.08
2020-08-13 11:45:13.4520,-0.02,0.03,-0.1
2020-08-13 11:45:13.5500,-0.15,0.04,0.02
2020-08-13 11:45:13.6400,-0.15,0.03,0.04
2020-08-13 11:45:13.7300,-0.03,0.01,0.03
2020-08-13 11:45:13.8200,-0.09,-0.02,-0.05
2020-08-13 11:45:13.9100,0.01,0.05,-0.02
2020-08-13 11:45:14.0120,-0.03,-0.0,-0.07
2020-08-13 11:45:14.1000,0.08,-0.08,0.05
2020-08-13 11:45:14.1980,0.27,-0.36,-0.02
2020-08-13 11:45:14.3100,0.23,-0.4,0.2
2020-08-13 11:45:14.3990,0.04,0.16,0.07
2020-08-13 11:45:14.4970,0.51,0.37,-0.06
2020-08-13 11:45:14.5560,0.4,0.06,-0.14
2020-08-13 11:45:14.6580,0.12,-0.01,0.08
2020-08-13 11:45:14.7480,-0.27,-0.17,0.16
2020-08-13 11:45:14.8390,-0.57,-0.25,0.13
2020-08-13 11:45:14.9280,-0.98,-0.24,-0.04
2020-08-13 11:45:15.0180,-1.02,-0.15,-0.26
2020-08-13 11:45:15.1070,-0.31,-0.35,0.53
2020-08-13 11:45:15.1960,0.22,0.02,-0.14
2020-08-13 11:45:15.3170,-0.04,0.0,-0.03
2020-08-13 11:45:15.3920,-0.02,-0.0,-0.0
2020-08-13 11:45:15.4910,-0.05,0.03,0.01
2020-08-13 11:45:15.5910,-0.02,0.01,-0.02
2020-08-13 11:45:15.6510,-0.07,0.03,-0.03
2020-08-13 11:45:15.7400,-0.03,0.02,0.01
2020-08-13 11:45:15.8310,0.0,-0.07,-0.06
2020-08-13 11:45:15.9240,0.08,-0.15,-0.01
2020-08-13 11:45:16.0260,0.29,-0.38,0.03
2020-08-13 11:45:16.1020,0.39,-0.37,0.25
2020-08-13 11:45:16.1910,0.0,0.12,0.05
2020-08-13 11:45:16.2880,0.65,0.41,-0.12
2020-08-13 11:45:16.3840,0.38,0.28,-0.02
2020-08-13 11:45:16.4860,0.11,-0.17,-0.06
2020-08-13 11:45:16.5880,-0.15,-0.19,-0.02
2020-08-13 11:45:16.6810,-0.44,-0.25,0.11
2020-08-13 11:45:16.7340,-0.9,-0.24,0.02
2020-08-13 11:45:16.8330,-0.72,-0.38,-0.52
2020-08-13 11:45:16.9150,-0.54,-0.49,0.33
2020-08-13 11:45:17.0320,-0.11,0.0,-0.06
2020-08-13 11:45:17.1050,-0.06,0.01,0.01
2020-08-13 11:45:17.1960,-0.04,0.02,0.02
2020-08-13 11:45:17.2910,-0.05,-0.0,-0.01
2020-08-13 11:45:17.3760,-0.09,-0.0,-0.01
2020-08-13 11:45:17.4750,-0.05,0.03,-0.02
2020-08-13 11:45:17.5760,0.0,0.04,-0.02
2020-08-13 11:45:17.6740,-0.02,-0.07,-0.13
2020-08-13 11:45:17.7390,0.04,-0.16,0.07
2020-08-13 11:45:17.8720,0.55,-0.29,0.09
2020-08-13 11:45:17.9220,0.0,-0.11,0.29
2020-08-13 11:45:18.0140,0.37,0.01,0.08
2020-08-13 11:45:18.1040,0.47,0.44,-0.07
2020-08-13 11:45:18.2020,0.52,0.26,-0.01
2020-08-13 11:45:18.2820,0.27,-0.11,0.02
2020-08-13 11:45:18.3810,-0.06,-0.29,0.08
2020-08-13 11:45:18.4670,-0.47,-0.39,0.09
2020-08-13 11:45:18.5690,-0.97,-0.23,0.05
2020-08-13 11:45:18.6650,-0.98,-0.2,-0.34
2020-08-13 11:45:18.7660,-0.58,-0.63,0.31
2020-08-13 11:45:18.8280,0.03,0.03,0.02
2020-08-13 11:45:18.9180,-0.06,0.02,-0.01
2020-08-13 11:45:19.0110,-0.05,0.02,-0.04
2020-08-13 11:45:19.1000,-0.03,0.02,0.02
2020-08-13 11:45:19.1900,-0.09,-0.06,-0.08
2020-08-13 11:45:19.2820,-0.05,0.04,0.01
2020-08-13 11:45:19.3700,-0.08,-0.01,-0.09
2020-08-13 11:45:19.4620,-0.04,-0.07,-0.04
2020-08-13 11:45:19.5610,0.08,-0.15,0.04
2020-08-13 11:45:19.6600,0.29,-0.34,0.04
2020-08-13 11:45:19.7320,0.39,-0.36,0.15
2020-08-13 11:45:19.8210,0.15,-0.02,-0.03
2020-08-13 11:45:19.9150,0.58,0.39,-0.13
2020-08-13 11:45:20.0160,0.53,0.08,-0.05
2020-08-13 11:45:20.0920,0.2,-0.11,-0.06
2020-08-13 11:45:20.1820,-0.32,-0.38,0.03
2020-08-13 11:45:20.2720,-0.76,-0.44,0.14
2020-08-13 11:45:20.3620,-1.27,-0.18,-0.02
2020-08-13 11:45:20.4660,0.78,-0.45,-0.4
2020-08-13 11:45:20.5560,-0.25,-0.08,0.19
2020-08-13 11:45:20.6520,-0.19,-0.07,-0.1
2020-08-13 11:45:20.7510,-0.08,-0.02,0.02
2020-08-13 11:45:20.8500,-0.08,0.01,0.01
2020-08-13 11:45:20.9120,-0.08,-0.01,-0.03
2020-08-13 11:45:20.9950,-0.06,-0.01,-0.01
2020-08-13 11:45:21.0960,-0.01,0.01,0.01
2020-08-13 11:45:21.1860,-0.03,-0.05,-0.03
2020-08-13 11:45:21.2760,0.02,-0.17,-0.04
2020-08-13 11:45:21.3670,0.18,-0.29,0.01
2020-08-13 11:45:21.4570,0.24,-0.14,0.05
2020-08-13 11:45:21.5470,0.2,-0.2,0.1
2020-08-13 11:45:21.6560,0.81,0.07,0.12
2020-08-13 11:45:21.7430,0.34,0.26,-0.01
2020-08-13 11:45:21.8430,0.19,0.18,-0.04
2020-08-13 11:45:21.9440,-0.01,-0.04,-0.05
2020-08-13 11:45:22.0410,-0.34,-0.17,0.1
2020-08-13 11:45:22.1020,-0.55,-0.32,-0.02
2020-08-13 11:45:22.1830,-0.97,-0.12,-0.05
2020-08-13 11:45:22.2820,1.74,-0.21,0.22
2020-08-13 11:45:22.3610,-0.05,-0.01,0.2
2020-08-13 11:45:22.4510,-0.15,-0.03,-0.09
2020-08-13 11:45:22.5400,-0.13,-0.03,-0.05
2020-08-13 11:45:22.6390,-0.04,0.01,-0.01
2020-08-13 11:45:22.7350,0.01,0.04,0.0
2020-08-13 11:45:22.8340,-0.02,0.02,0.01
2020-08-13 11:45:22.9370,-0.02,0.01,-0.02
2020-08-13 11:45:23.0340,-0.05,0.02,-0.06
2020-08-13 11:45:23.0850,0.05,-0.01,0.01
2020-08-13 11:45:23.1810,0.11,-0.19,-0.05
2020-08-13 11:45:23.2720,0.29,-0.38,0.0
2020-08-13 11:45:23.3620,0.53,-0.26,0.16
2020-08-13 11:45:23.4520,0.43,0.04,0.2
2020-08-13 11:45:23.5460,0.68,0.35,-0.02
2020-08-13 11:45:23.6470,0.27,-0.05,-0.04
2020-08-13 11:45:23.7300,-0.02,-0.27,0.1
2020-08-13 11:45:23.8270,-0.36,-0.23,0.13
2020-08-13 11:45:23.9260,-0.54,-0.25,0.0
2020-08-13 11:45:24.0260,-0.95,-0.07,-0.01
2020-08-13 11:45:24.1230,-0.8,-0.2,-0.32
2020-08-13 11:45:24.2250,-0.0,-0.03,0.28
2020-08-13 11:45:24.2770,0.2,-0.05,-0.22
2020-08-13 11:45:24.3820,-0.14,0.03,0.04
2020-08-13 11:45:24.4560,-0.01,0.01,-0.02
2020-08-13 11:45:24.5460,-0.07,0.01,-0.03
2020-08-13 11:45:24.6530,-0.01,0.01,0.01
2020-08-13 11:45:24.7270,-0.0,0.02,0.02
2020-08-13 11:45:24.8190,-0.08,-0.02,-0.08
2020-08-13 11:45:24.9190,-0.03,-0.03,-0.01
2020-08-13 11:45:25.0160,0.07,-0.15,-0.05
2020-08-13 11:45:25.1170,0.25,-0.32,-0.02
2020-08-13 11:45:25.1770,0.35,-0.43,0.08
2020-08-13 11:45:25.2670,0.13,-0.02,0.1
2020-08-13 11:45:25.3570,0.72,0.38,-0.09
2020-08-13 11:45:25.4620,0.39,0.11,-0.04
2020-08-13 11:45:25.5530,0.15,-0.16,0.03
2020-08-13 11:45:25.6360,-0.11,-0.22,0.06
2020-08-13 11:45:25.7260,-0.38,-0.27,0.04
2020-08-13 11:45:25.8230,-0.76,-0.2,-0.01
2020-08-13 11:45:25.9240,-1.09,-0.08,-0.13
2020-08-13 11:45:26.0100,-0.77,-0.65,-0.26
2020-08-13 11:45:26.1190,-0.28,-0.05,0.07
2020-08-13 11:45:26.2070,-0.05,-0.01,-0.01
2020-08-13 11:45:26.2600,0.0,0.01,0.0
2020-08-13 11:45:26.3610,-0.05,0.04,-0.02
2020-08-13 11:45:26.4510,-0.01,0.02,-0.02
2020-08-13 11:45:26.5410,-0.0,0.02,0.0
2020-08-13 11:45:26.6310,0.01,0.02,-0.02
2020-08-13 11:45:26.7240,0.08,-0.05,-0.03
2020-08-13 11:45:26.8240,0.09,-0.19,-0.03
2020-08-13 11:45:26.9140,0.25,-0.42,0.05
2020-08-13 11:45:27.0030,0.24,-0.28,0.15
2020-08-13 11:45:27.1090,0.3,0.07,0.23
2020-08-13 11:45:27.2120,0.74,0.35,0.04
2020-08-13 11:45:27.2990,0.53,0.08,-0.11
2020-08-13 11:45:27.3600,0.06,-0.32,0.08
2020-08-13 11:45:27.4570,-0.21,-0.3,0.14
2020-08-13 11:45:27.5480,-0.56,-0.32,0.01
2020-08-13 11:45:27.6370,-1.05,-0.13,-0.05
2020-08-13 11:45:27.7280,-0.52,-0.15,-0.18
2020-08-13 11:45:27.8200,-0.22,-0.13,-0.02
2020-08-13 11:45:27.9230,0.15,0.01,-0.16
2020-08-13 11:45:28.0070,0.02,0.01,0.01
2020-08-13 11:45:28.1030,-0.03,0.01,-0.03
2020-08-13 11:45:28.2040,-0.04,0.02,-0.02
2020-08-13 11:45:28.2900,-0.0,0.07,-0.04
2020-08-13 11:45:28.3880,0.01,0.02,0.04
2020-08-13 11:45:28.4880,0.02,0.03,-0.06
2020-08-13 11:45:28.5910,0.02,-0.1,-0.06
2020-08-13 11:45:28.6860,0.15,-0.35,0.08
2020-08-13 11:45:28.7480,0.38,-0.3,0.05
2020-08-13 11:45:28.8380,0.08,-0.1,0.06
2020-08-13 11:45:28.9280,0.87,0.21,-0.09
2020-08-13 11:45:29.0170,0.66,0.28,0.01
2020-08-13 11:45:29.0930,0.27,-0.09,-0.02
2020-08-13 11:45:29.1860,-0.07,-0.28,0.16
2020-08-13 11:45:29.3030,-0.34,-0.31,-0.01
2020-08-13 11:45:29.3880,-0.77,-0.22,-0.04
2020-08-13 11:45:29.4800,-1.12,-0.07,-0.16
2020-08-13 11:45:29.5820,0.04,-0.35,-0.22
2020-08-13 11:45:29.6790,-0.39,-0.33,0.2
2020-08-13 11:45:29.7380,0.03,0.02,-0.14
2020-08-13 11:45:29.8320,-0.01,-0.03,-0.02
2020-08-13 11:45:29.9180,-0.04,0.01,-0.01
2020-08-13 11:45:30.0080,-0.02,0.03,0.0
2020-08-13 11:45:30.0980,-0.01,0.03,0.01
2020-08-13 11:45:30.1880,0.0,0.04,-0.01
2020-08-13 11:45:30.2930,0.07,0.04,0.04
2020-08-13 11:45:30.3770,0.06,-0.1,-0.0
2020-08-13 11:45:30.4730,0.19,-0.29,0.01
2020-08-13 11:45:30.5710,0.44,-0.41,0.12
2020-08-13 11:45:30.6700,0.12,0.02,0.1
2020-08-13 11:45:30.7430,0.8,0.16,0.11
2020-08-13 11:45:30.8230,0.66,0.23,0.02
2020-08-13 11:45:30.9110,0.15,-0.15,-0.01
2020-08-13 11:45:31.0020,0.03,-0.23,0.04
2020-08-13 11:45:31.0900,-0.35,-0.24,0.16
2020-08-13 11:45:31.1810,-0.61,-0.24,-0.04
2020-08-13 11:45:31.2720,-1.08,-0.09,-0.09
2020-08-13 11:45:31.3670,1.72,-0.17,-0.04
2020-08-13 11:45:31.4640,-0.32,-0.27,0.09
2020-08-13 11:45:31.5630,-0.09,-0.01,0.07
2020-08-13 11:45:31.6690,0.04,0.01,0.01
2020-08-13 11:45:31.7620,-0.02,0.05,0.01
2020-08-13 11:45:31.8230,-0.18,-0.08,-0.11
2020-08-13 11:45:31.9130,-0.04,0.02,0.03
2020-08-13 11:45:32.0020,0.01,0.02,-0.02
2020-08-13 11:45:32.0960,0.03,-0.0,-0.05
2020-08-13 11:45:32.1980,0.03,-0.13,-0.06
2020-08-13 11:45:32.2810,0.25,-0.26,0.07
2020-08-13 11:45:32.3780,0.42,-0.35,0.09
2020-08-13 11:45:32.4610,0.25,-0.18,0.2
2020-08-13 11:45:32.5680,1.06,0.18,-0.01
2020-08-13 11:45:32.6570,0.63,0.36,-0.07
2020-08-13 11:45:32.7550,0.23,-0.23,-0.08
2020-08-13 11:45:32.8540,-0.16,-0.29,0.11
2020-08-13 11:45:32.9560,-0.52,-0.34,0.1
2020-08-13 11:45:33.0540,-0.91,-0.15,-0.09
2020-08-13 11:45:33.1130,-1.01,-0.11,-0.14
2020-08-13 11:45:33.1960,-0.32,-0.48,0.01
2020-08-13 11:45:33.2940,-0.18,-0.01,0.05
2020-08-13 11:45:33.3830,-0.03,0.02,0.02
2020-08-13 11:45:33.4730,-0.02,0.01,0.0
2020-08-13 11:45:33.5640,-0.0,0.04,-0.01
2020-08-13 11:45:33.6530,0.03,0.06,0.03
2020-08-13 11:45:33.7440,0.01,0.01,-0.02
2020-08-13 11:45:33.8400,0.05,0.04,0.0
2020-08-13 11:45:33.9380,-0.01,-0.08,-0.17
2020-08-13 11:45:34.0380,0.06,-0.08,0.07
2020-08-13 11:45:34.1370,0.25,-0.33,-0.1
2020-08-13 11:45:34.2370,0.52,-0.3,0.24
2020-08-13 11:45:34.2990,0.31,-0.05,0.09
2020-08-13 11:45:34.3880,0.86,0.36,-0.06
2020-08-13 11:45:34.4650,0.65,0.24,-0.13
2020-08-13 11:45:34.5540,0.32,-0.14,-0.05
2020-08-13 11:45:34.6560,-0.1,-0.36,0.1
2020-08-13 11:45:34.7370,-0.5,-0.38,0.05
2020-08-13 11:45:34.8320,-1.0,-0.13,0.06
2020-08-13 11:45:34.9310,-1.0,-0.03,-0.07
2020-08-13 11:45:35.0430,-0.33,-0.5,-0.26
2020-08-13 11:45:35.1430,-0.25,0.13,0.29
2020-08-13 11:45:35.1840,-0.1,-0.03,-0.12
2020-08-13 11:45:35.2880,0.02,-0.0,-0.04
2020-08-13 11:45:35.3810,-0.09,0.01,-0.03
2020-08-13 11:45:35.4710,0.09,0.07,0.05
2020-08-13 11:45:35.5610,-0.02,0.01,-0.03
2020-08-13 11:45:35.6640,-0.03,-0.02,-0.04
2020-08-13 11:45:35.7490,-0.03,-0.07,-0.01
2020-08-13 11:45:35.8310,0.08,-0.14,0.03
2020-08-13 11:45:35.9260,0.25,-0.27,-0.0
2020-08-13 11:45:36.0240,0.38,-0.3,0.09
2020-08-13 11:45:36.1220,0.17,-0.1,0.03
2020-08-13 11:45:36.2260,0.87,0.11,-0.02
2020-08-13 11:45:36.3190,0.71,0.32,0.01
2020-08-13 11:45:36.3730,0.26,-0.07,0.08
2020-08-13 11:45:36.4620,0.07,-0.37,0.07
2020-08-13 11:45:36.5520,-0.46,-0.49,0.04
2020-08-13 11:45:36.6430,-1.08,-0.18,-0.02
2020-08-13 11:45:36.7320,-1.07,-0.23,-0.09
2020-08-13 11:45:36.8340,-0.32,-0.4,-0.09
2020-08-13 11:45:36.9150,0.04,0.08,0.1
2020-08-13 11:45:37.0140,-0.15,-0.01,0.04
2020-08-13 11:45:37.1130,-0.03,-0.0,0.02
2020-08-13 11:45:37.2200,0.02,0.04,0.02
2020-08-13 11:45:37.2840,-0.07,-0.02,-0.08
2020-08-13 11:45:37.3730,-0.07,-0.0,0.0
2020-08-13 11:45:37.4660,-0.02,0.01,-0.02
2020-08-13 11:45:37.5550,-0.01,-0.01,-0.03
2020-08-13 11:45:37.6590,-0.01,-0.05,-0.02
2020-08-13 11:45:37.7410,0.11,-0.31,-0.01
2020-08-13 11:45:37.8390,0.29,-0.36,0.06
2020-08-13 11:45:37.9290,0.14,-0.15,0.1
2020-08-13 11:45:38.0190,0.9,0.21,-0.08
2020-08-13 11:45:38.1080,0.75,0.3,-0.01
2020-08-13 11:45:38.2030,0.17,-0.12,0.05
2020-08-13 11:45:38.3130,-0.07,-0.27,-0.02
2020-08-13 11:45:38.4020,-0.31,-0.29,0.11
2020-08-13 11:45:38.4580,-0.7,-0.22,-0.03
2020-08-13 11:45:38.5480,-0.84,-0.06,-0.08
2020-08-13 11:45:38.6490,0.94,-0.2,-0.18
2020-08-13 11:45:38.7380,-0.45,-0.47,-0.34
2020-08-13 11:45:38.8280,-0.13,0.08,0.12
2020-08-13 11:45:38.9220,-0.0,-0.0,-0.01
2020-08-13 11:45:39.0110,-0.09,0.0,-0.04
2020-08-13 11:45:39.1020,0.05,0.09,0.02
2020-08-13 11:45:39.1980,0.03,0.05,0.03
2020-08-13 11:45:39.2950,-0.0,0.01,-0.06
2020-08-13 11:45:39.3940,0.03,-0.02,0.01
2020-08-13 11:45:39.5030,0.04,-0.03,-0.01
2020-08-13 11:45:39.5930,0.08,-0.17,-0.04
2020-08-13 11:45:39.6540,0.2,-0.3,0.05
2020-08-13 11:45:39.7440,0.32,-0.3,-0.01
2020-08-13 11:45:39.8370,0.21,-0.04,0.08
2020-08-13 11:45:39.9250,0.72,0.35,-0.05
2020-08-13 11:45:40.0290,0.5,0.11,-0.03
2020-08-13 11:45:40.1040,0.18,-0.2,-0.01
2020-08-13 11:45:40.2090,-0.19,-0.27,0.07
2020-08-13 11:45:40.3000,-0.39,-0.22,0.09
2020-08-13 11:45:40.3890,-0.72,-0.11,0.01
2020-08-13 11:45:40.4870,-0.72,0.0,-0.07
2020-08-13 11:45:40.5860,1.59,-0.06,-0.16
2020-08-13 11:45:40.6830,-0.83,-0.7,0.37
2020-08-13 11:45:40.7910,-0.07,0.02,0.03
2020-08-13 11:45:40.8400,0.03,0.04,0.01
2020-08-13 11:45:40.9440,-0.05,-0.0,-0.05
2020-08-13 11:45:41.0210,-0.02,0.03,-0.03
2020-08-13 11:45:41.1240,-0.04,0.04,-0.02
2020-08-13 11:45:41.2150,-0.03,0.03,-0.0
2020-08-13 11:45:41.2900,0.01,-0.01,0.01
2020-08-13 11:45:41.3950,0.11,-0.04,-0.07
2020-08-13 11:45:41.4950,0.23,0.13,-0.11
2020-08-13 11:45:41.5810,0.19,0.15,0.02
2020-08-13 11:45:41.6910,0.21,0.05,0.03
2020-08-13 11:45:41.7790,-0.02,-0.0,0.01
2020-08-13 11:45:41.8800,0.05,-0.04,0.03
2020-08-13 11:45:41.9340,-0.07,0.06,0.06
2020-08-13 11:45:42.0240,-0.03,0.05,-0.02
2020-08-13 11:45:42.1140,0.04,0.04,0.01
2020-08-13 11:45:42.2030,-0.03,0.05,-0.0
2020-08-13 11:45:42.2950,-0.01,0.03,-0.01
2020-08-13 11:45:42.3840,0.01,0.01,0.01
2020-08-13 11:45:42.4750,-0.02,0.04,0.0
2020-08-13 11:45:42.5720,-0.01,0.04,0.01
2020-08-13 11:45:42.6720,0.0,0.01,-0.0
2020-08-13 11:45:42.7840,0.01,0.03,-0.0
2020-08-13 11:45:42.8700,0.01,0.02,0.01
2020-08-13 11:45:42.9700,-0.01,0.04,0.0
2020-08-13 11:45:43.0160,-0.01,-0.0,-0.03
2020-08-13 11:45:43.1120,-0.02,0.02,0.0
2020-08-13 11:45:43.2000,-0.03,0.07,0.01
2020-08-13 11:45:43.2900,-0.0,0.06,0.02
2020-08-13 11:45:43.3890,0.05,0.02,-0.01
2020-08-13 11:45:43.4780,-0.02,0.04,0.01
2020-08-13 11:45:43.5690,-0.03,0.07,-0.05
2020-08-13 11:45:43.6640,0.02,0.02,-0.0
2020-08-13 11:45:43.7760,0.01,0.07,-0.07
2020-08-13 11:45:43.8630,-0.1,0.07,-0.12
2020-08-13 11:45:43.9180,-0.04,0.12,-0.09
2020-08-13 11:45:44.0190,-0.03,0.04,0.03
2020-08-13 11:45:44.1130,-0.02,0.05,-0.05
2020-08-13 11:45:44.2000,0.02,0.02,0.0
2020-08-13 11:45:44.2930,0.03,0.01,0.0
2020-08-13 11:45:44.3800,0.01,-0.0,0.01
2020-08-13 11:45:44.4720,-0.13,0.04,-0.03
2020-08-13 11:45:44.5620,0.03,0.05,-0.05
