time,ax,ay,az
2020-08-12 20:20:22.2900,0.09,0.0,-0.01
2020-08-12 20:20:22.3900,0.02,0.0,0.02
2020-08-12 20:20:22.4890,0.02,-0.02,-0.01
2020-08-12 20:20:22.5880,0.01,0.01,-0.01
2020-08-12 20:20:22.6880,0.01,-0.01,-0.04
2020-08-12 20:20:22.7870,0.0,-0.0,-0.02
2020-08-12 20:20:22.8860,0.03,-0.0,-0.0
2020-08-12 20:20:22.9850,-0.02,0.02,-0.01
2020-08-12 20:20:23.0850,0.02,-0.0,-0.01
2020-08-12 20:20:23.1840,0.0,-0.01,0.0
2020-08-12 20:20:23.2830,0.01,-0.01,-0.02
2020-08-12 20:20:23.3820,0.03,-0.01,0.0
2020-08-12 20:20:23.4820,-0.04,0.02,-0.02
2020-08-12 20:20:23.5810,0.06,-0.02,-0.01
2020-08-12 20:20:23.6800,-0.01,0.04,-0.02
2020-08-12 20:20:23.7790,0.0,0.01,0.01
2020-08-12 20:20:23.8790,0.02,-0.01,0.03
2020-08-12 20:20:23.9780,-0.03,0.03,0.01
2020-08-12 20:20:24.0770,-0.05,0.02,0.03
2020-08-12 20:20:24.1770,0.0,0.01,0.02
2020-08-12 20:20:24.2760,-0.0,0.01,0.02
2020-08-12 20:20:24.3750,0.03,-0.04,0.0
2020-08-12 20:20:24.4740,-0.01,0.01,0.0
2020-08-12 20:20:24.5740,0.0,0.0,0.01
2020-08-12 20:20:24.6730,0.04,-0.02,0.01
2020-08-12 20:20:24.7720,-0.04,0.02,-0.0
2020-08-12 20:20:24.8710,0.03,-0.02,0.02
2020-08-12 20:20:24.9710,-0.01,-0.02,-0.0
2020-08-12 20:20:25.0700,-0.01,0.01,0.01
2020-08-12 20:20:25.1690,-0.02,0.02,0.02
2020-08-12 20:20:25.2690,0.01,0.01,0.01
2020-08-12 20:20:25.3680,-0.02,0.03,0.0
2020-08-12 20:20:25.4670,-0.02,0.0,-0.02
2020-08-12 20:20:25.5660,0.01,-0.0,-0.03
2020-08-12 20:20:25.6660,0.04,0.0,0.02
2020-08-12 20:20:25.7650,0.04,-0.02,-0.01
2020-08-12 20:20:25.8640,-0.03,-0.01,-0.02
2020-08-12 20:20:25.9630,-0.02,0.0,-0.0
2020-08-12 20:20:26.0620,0.01,-0.02,0.03
2020-08-12 20:20:26.1620,0.04,-0.02,-0.02
2020-08-12 20:20:26.2610,-0.01,-0.0,0.06
2020-08-12 20:20:26.3600,0.03,-0.02,0.04
2020-08-12 20:20:26.4600,-0.05,-0.01,-0.04
2020-08-12 20:20:26.5590,0.02,0.04,0.1
2020-08-12 20:20:26.6580,0.21,-0.02,0.08
2020-08-12 20:20:26.7580,0.25,-0.12,-0.07
2020-08-12 20:20:26.8570,0.4,0.0,-0.17
2020-08-12 20:20:26.9560,0.0,-0.12,-0.02
2020-08-12 20:20:27.0550,-0.32,0.01,0.15
2020-08-12 20:20:27.1550,-0.42,0.08,0.12
2020-08-12 20:20:27.2540,-0.34,0.01,-0.03
2020-08-12 20:20:27.3530,-0.55,-0.31,-0.46
2020-08-12 20:20:27.4520,-0.01,0.11,0.27
2020-08-12 20:20:27.5520,0.08,-0.01,0.08
2020-08-12 20:20:27.6510,-0.08,0.0,-0.01
2020-08-12 20:20:27.7500,0.0,0.03,0.01
2020-08-12 20:20:27.8500,0.0,-0.0,-0.0
2020-08-12 20:20:27.9490,-0.0,0.01,-0.02
2020-08-12 20:20:28.0480,0.02,0.01,-0.0
2020-08-12 20:20:28.1470,0.05,-0.03,-0.04
2020-08-12 20:20:28.2470,0.1,-0.08,-0.03
2020-08-12 20:20:28.3460,0.16,-0.27,-0.06
2020-08-12 20:20:28.4450,0.52,-0.45,0.04
2020-08-12 20:20:28.5440,0.34,-0.1,0.03
2020-08-12 20:20:28.6440,0.93,0.18,-0.06
2020-08-12 20:20:28.7430,0.4,-0.17,-0.18
2020-08-12 20:20:28.8420,-0.13,-0.38,0.15
2020-08-12 20:20:28.9410,-0.47,-0.33,0.17
2020-08-12 20:20:29.0410,-1.08,-0.06,0.22
2020-08-12 20:20:29.1400,0.61,-0.23,-0.43
2020-08-12 20:20:29.2390,0.13,0.02,0.35
2020-08-12 20:20:29.3390,-0.06,-0.03,-0.05
2020-08-12 20:20:29.4380,-0.04,0.01,0.02
2020-08-12 20:20:29.5370,-0.0,-0.0,0.02
2020-08-12 20:20:29.6360,-0.02,0.03,-0.02
2020-08-12 20:20:29.7360,0.04,-0.04,0.0
2020-08-12 20:20:29.8350,0.04,-0.01,-0.04
2020-08-12 20:20:29.9340,0.07,-0.02,-0.01
2020-08-12 20:20:30.0330,0.12,-0.09,-0.03
2020-08-12 20:20:30.1330,0.25,-0.31,0.0
2020-08-12 20:20:30.2320,0.33,-0.51,-0.05
2020-08-12 20:20:30.3310,0.33,-0.02,0.07
2020-08-12 20:20:30.4310,0.85,0.24,-0.21
2020-08-12 20:20:30.5300,0.36,-0.13,-0.14
2020-08-12 20:20:30.6290,-0.19,-0.46,0.11
2020-08-12 20:20:30.7280,-0.81,-0.24,0.2
2020-08-12 20:20:30.8280,-0.98,-0.02,0.11
2020-08-12 20:20:30.9270,1.7,-0.49,-0.84
2020-08-12 20:20:31.0260,-0.15,0.03,0.51
2020-08-12 20:20:31.1250,-0.14,-0.01,0.03
2020-08-12 20:20:31.2250,-0.03,-0.01,0.01
2020-08-12 20:20:31.3240,-0.0,0.01,-0.01
2020-08-12 20:20:31.4230,-0.0,-0.01,0.03
2020-08-12 20:20:31.5230,0.05,-0.01,-0.0
2020-08-12 20:20:31.6220,0.02,-0.01,0.0
2020-08-12 20:20:31.7210,0.06,-0.03,-0.01
2020-08-12 20:20:31.8200,0.08,-0.12,-0.02
2020-08-12 20:20:31.9190,0.31,-0.46,-0.02
2020-08-12 20:20:32.0190,0.32,-0.3,0.12
2020-08-12 20:20:32.1180,0.74,0.07,0.02
2020-08-12 20:20:32.2170,0.66,0.17,-0.1
2020-08-12 20:20:32.3170,0.18,-0.25,-0.02
2020-08-12 20:20:32.4160,-0.35,-0.44,0.1
2020-08-12 20:20:32.5150,-1.0,-0.16,0.11
2020-08-12 20:20:32.6140,-0.75,0.02,0.06
2020-08-12 20:20:32.7140,-0.41,-0.28,-0.11
2020-08-12 20:20:32.8130,0.04,0.02,0.02
2020-08-12 20:20:32.9120,-0.08,-0.07,0.05
2020-08-12 20:20:33.0120,-0.1,-0.0,0.04
2020-08-12 20:20:33.1110,-0.01,0.01,0.01
2020-08-12 20:20:33.2100,0.03,-0.01,-0.0
2020-08-12 20:20:33.3090,0.05,-0.02,0.01
2020-08-12 20:20:33.4090,0.03,-0.02,0.01
2020-08-12 20:20:33.5080,0.06,-0.06,-0.01
2020-08-12 20:20:33.6070,0.07,-0.11,0.01
2020-08-12 20:20:33.7070,0.18,-0.43,0.03
2020-08-12 20:20:33.8060,0.36,-0.43,-0.04
2020-08-12 20:20:33.9050,0.59,0.11,0.05
2020-08-12 20:20:34.0040,0.68,0.22,-0.09
2020-08-12 20:20:34.1030,0.31,-0.07,-0.12
2020-08-12 20:20:34.2030,-0.24,-0.41,0.15
2020-08-12 20:20:34.3020,-0.96,-0.1,0.34
2020-08-12 20:20:34.4010,-1.02,-0.02,0.13
2020-08-12 20:20:34.5000,-0.43,-0.32,0.14
2020-08-12 20:20:34.6000,0.04,0.01,0.01
2020-08-12 20:20:34.6990,-0.0,-0.01,0.04
2020-08-12 20:20:34.7980,-0.01,-0.01,-0.03
2020-08-12 20:20:34.8980,0.04,0.05,-0.0
2020-08-12 20:20:34.9970,-0.08,-0.0,0.01
2020-08-12 20:20:35.0960,-0.02,-0.03,-0.02
2020-08-12 20:20:35.1950,0.04,-0.01,0.02
2020-08-12 20:20:35.2950,0.04,-0.04,-0.03
2020-08-12 20:20:35.3940,0.09,-0.08,0.05
2020-08-12 20:20:35.4930,0.35,-0.41,-0.01
2020-08-12 20:20:35.5920,0.18,-0.4,0.06
2020-08-12 20:20:35.6920,0.72,0.28,-0.06
2020-08-12 20:20:35.7910,0.63,0.13,-0.12
2020-08-12 20:20:35.8900,0.08,-0.25,0.02
2020-08-12 20:20:35.9900,-0.08,-0.29,0.13
2020-08-12 20:20:36.0890,-0.46,-0.07,0.24
2020-08-12 20:20:36.1880,-0.77,-0.01,0.17
2020-08-12 20:20:36.2870,1.32,-0.25,-0.25
2020-08-12 20:20:36.3870,0.02,0.02,0.4
2020-08-12 20:20:36.4860,-0.02,0.01,0.03
2020-08-12 20:20:36.5850,0.01,-0.01,0.03
2020-08-12 20:20:36.6850,0.01,-0.02,-0.02
2020-08-12 20:20:36.7840,-0.03,-0.01,0.02
2020-08-12 20:20:36.8830,0.04,-0.03,-0.01
2020-08-12 20:20:36.9820,0.04,-0.01,0.01
2020-08-12 20:20:37.0820,0.02,0.01,0.01
2020-08-12 20:20:37.1810,0.11,-0.01,-0.03
2020-08-12 20:20:37.2800,0.07,-0.05,-0.0
2020-08-12 20:20:37.3790,0.24,-0.39,-0.05
2020-08-12 20:20:37.4790,0.3,-0.5,-0.0
2020-08-12 20:20:37.5780,0.67,0.15,0.12
2020-08-12 20:20:37.6770,0.75,0.27,-0.17
2020-08-12 20:20:37.7760,0.12,-0.23,-0.01
2020-08-12 20:20:37.8760,-0.17,-0.28,0.04
2020-08-12 20:20:37.9750,-0.67,-0.25,0.25
2020-08-12 20:20:38.0740,-0.86,-0.03,0.14
2020-08-12 20:20:38.1730,1.34,-0.25,-0.66
2020-08-12 20:20:38.2730,-0.32,0.04,0.36
2020-08-12 20:20:38.3720,-0.15,-0.01,0.01
2020-08-12 20:20:38.4710,-0.0,-0.01,0.03
2020-08-12 20:20:38.5710,-0.05,0.02,0.01
2020-08-12 20:20:38.6700,0.03,0.0,-0.0
2020-08-12 20:20:38.7690,0.03,-0.02,-0.0
2020-08-12 20:20:38.8680,0.01,-0.01,0.0
2020-08-12 20:20:38.9680,0.01,-0.02,0.0
2020-08-12 20:20:39.0670,0.07,-0.06,0.0
2020-08-12 20:20:39.1660,0.08,-0.09,-0.03
2020-08-12 20:20:39.2650,0.27,-0.36,0.04
2020-08-12 20:20:39.3650,0.3,-0.28,0.11
2020-08-12 20:20:39.4640,0.71,0.04,-0.07
2020-08-12 20:20:39.5630,0.66,0.2,-0.02
2020-08-12 20:20:39.6620,0.24,-0.15,-0.09
2020-08-12 20:20:39.7620,-0.19,-0.4,0.04
2020-08-12 20:20:39.8610,-0.77,-0.17,0.35
2020-08-12 20:20:39.9600,-0.77,-0.02,0.07
2020-08-12 20:20:40.0600,0.99,-0.49,-0.77
2020-08-12 20:20:40.1590,-0.25,-0.08,0.25
2020-08-12 20:20:40.2580,-0.09,0.0,0.01
2020-08-12 20:20:40.3570,-0.05,0.01,0.02
2020-08-12 20:20:40.4570,-0.03,0.0,0.02
2020-08-12 20:20:40.5560,-0.02,0.03,-0.0
2020-08-12 20:20:40.6550,-0.0,-0.0,-0.0
2020-08-12 20:20:40.7540,0.03,-0.01,0.01
2020-08-12 20:20:40.8540,0.03,-0.02,-0.0
2020-08-12 20:20:40.9530,0.07,-0.0,0.03
2020-08-12 20:20:41.0520,0.05,-0.04,-0.07
2020-08-12 20:20:41.1510,0.15,-0.24,0.03
2020-08-12 20:20:41.2510,0.59,-0.74,-0.1
2020-08-12 20:20:41.3500,0.19,-0.03,0.15
2020-08-12 20:20:41.4490,0.77,0.35,-0.14
2020-08-12 20:20:41.5490,0.23,-0.12,-0.04
2020-08-12 20:20:41.6480,-0.23,-0.28,0.14
2020-08-12 20:20:41.7470,-0.46,-0.36,0.17
2020-08-12 20:20:41.8460,-0.91,-0.06,0.12
2020-08-12 20:20:41.9460,0.23,-0.04,-0.13
2020-08-12 20:20:42.0450,-0.42,-0.19,-0.32
2020-08-12 20:20:42.1440,-0.12,-0.03,0.01
2020-08-12 20:20:42.2430,-0.02,-0.02,0.04
2020-08-12 20:20:42.3430,-0.04,0.01,0.05
2020-08-12 20:20:42.4420,-0.06,0.0,-0.0
2020-08-12 20:20:42.5410,0.01,-0.02,0.04
2020-08-12 20:20:42.6400,-0.01,0.0,0.01
2020-08-12 20:20:42.7400,0.0,0.01,0.0
2020-08-12 20:20:42.8390,0.01,-0.02,-0.0
2020-08-12 20:20:42.9380,0.02,-0.05,-0.01
2020-08-12 20:20:43.0380,0.07,-0.17,-0.04
2020-08-12 20:20:43.1370,0.38,-0.3,-0.02
2020-08-12 20:20:43.2360,0.18,-0.24,0.1
2020-08-12 20:20:43.3350,0.93,0.28,-0.15
2020-08-12 20:20:43.4350,0.53,0.02,-0.14
2020-08-12 20:20:43.5340,-0.1,-0.38,0.13
2020-08-12 20:20:43.6330,-0.53,-0.31,0.17
2020-08-12 20:20:43.7320,-0.87,-0.04,0.11
2020-08-12 20:20:43.8320,-0.99,0.04,-0.03
2020-08-12 20:20:43.9310,-0.45,-0.53,-0.16
2020-08-12 20:20:44.0300,-0.15,0.05,0.08
2020-08-12 20:20:44.1300,-0.02,-0.01,0.07
2020-08-12 20:20:44.2290,-0.09,-0.03,-0.0
2020-08-12 20:20:44.3280,-0.02,0.01,0.02
2020-08-12 20:20:44.4280,-0.05,0.0,0.03
2020-08-12 20:20:44.5270,0.01,-0.01,0.01
2020-08-12 20:20:44.6260,0.0,-0.01,0.02
2020-08-12 20:20:44.7250,-0.01,-0.0,0.02
2020-08-12 20:20:44.8250,0.03,-0.01,0.0
2020-08-12 20:20:44.9240,0.04,-0.03,0.01
2020-08-12 20:20:45.0230,0.17,-0.29,-0.07
2020-08-12 20:20:45.1220,0.4,-0.39,-0.05
2020-08-12 20:20:45.2210,0.21,0.01,0.25
2020-08-12 20:20:45.3210,0.79,0.19,-0.13
2020-08-12 20:20:45.4200,0.3,-0.18,-0.12
2020-08-12 20:20:45.5190,-0.19,-0.36,0.16
2020-08-12 20:20:45.6190,-0.53,-0.26,0.1
2020-08-12 20:20:45.7180,-0.92,-0.08,0.22
2020-08-12 20:20:45.8170,1.4,-0.33,-0.63
2020-08-12 20:20:45.9160,-0.17,-0.01,0.37
2020-08-12 20:20:46.0160,-0.11,-0.01,0.04
2020-08-12 20:20:46.1150,-0.04,-0.02,0.05
2020-08-12 20:20:46.2140,-0.03,0.01,0.03
2020-08-12 20:20:46.3130,-0.08,-0.01,0.01
2020-08-12 20:20:46.4130,-0.02,0.01,-0.0
2020-08-12 20:20:46.5120,-0.0,-0.01,0.01
2020-08-12 20:20:46.6110,0.02,-0.01,0.02
2020-08-12 20:20:46.7110,0.0,-0.01,0.01
2020-08-12 20:20:46.8100,0.02,-0.02,0.0
2020-08-12 20:20:46.9090,0.06,-0.1,0.02
2020-08-12 20:20:47.0080,0.25,-0.35,-0.04
2020-08-12 20:20:47.1070,0.1,-0.29,0.13
2020-08-12 20:20:47.2070,0.58,0.02,-0.0
2020-08-12 20:20:47.3060,0.65,0.17,-0.1
2020-08-12 20:20:47.4050,0.24,-0.18,-0.03
2020-08-12 20:20:47.5050,-0.15,-0.31,0.16
2020-08-12 20:20:47.6040,-0.77,-0.23,0.27
2020-08-12 20:20:47.7030,-0.94,-0.06,0.06
2020-08-12 20:20:47.8020,-0.67,-0.53,-0.01
2020-08-12 20:20:47.9020,0.01,0.07,0.05
2020-08-12 20:20:48.0010,-0.08,-0.02,0.03
2020-08-12 20:20:48.1010,-0.03,0.01,0.0
2020-08-12 20:20:48.1990,-0.02,0.02,0.01
2020-08-12 20:20:48.2990,-0.06,-0.03,0.03
2020-08-12 20:20:48.3980,0.01,0.0,0.01
2020-08-12 20:20:48.4970,-0.02,0.0,-0.02
2020-08-12 20:20:48.5970,0.01,-0.01,0.01
2020-08-12 20:20:48.6960,0.04,-0.03,0.02
2020-08-12 20:20:48.7950,0.02,-0.05,0.01
2020-08-12 20:20:48.8940,0.16,-0.23,-0.1
2020-08-12 20:20:48.9940,0.25,-0.39,0.05
2020-08-12 20:20:49.0930,0.17,-0.08,0.14
2020-08-12 20:20:49.1920,0.69,0.2,-0.19
2020-08-12 20:20:49.2910,0.38,-0.0,-0.14
2020-08-12 20:20:49.3910,-0.05,-0.31,0.09
2020-08-12 20:20:49.4900,-0.38,-0.38,0.08
2020-08-12 20:20:49.5890,-0.77,-0.05,0.15
2020-08-12 20:20:49.6890,-0.79,-0.01,0.11
2020-08-12 20:20:49.7880,-0.13,-0.53,0.31
2020-08-12 20:20:49.8870,0.17,0.04,-0.07
2020-08-12 20:20:49.9860,0.04,0.01,0.09
2020-08-12 20:20:50.0850,-0.05,0.03,0.04
2020-08-12 20:20:50.1850,-0.02,0.0,-0.0
2020-08-12 20:20:50.2840,-0.03,-0.0,0.01
2020-08-12 20:20:50.3830,-0.02,0.0,0.03
2020-08-12 20:20:50.4830,0.01,-0.0,0.02
2020-08-12 20:20:50.5820,0.01,-0.01,0.01
2020-08-12 20:20:50.6810,0.04,-0.03,0.01
2020-08-12 20:20:50.7810,0.03,-0.04,0.04
2020-08-12 20:20:50.8800,0.14,-0.31,-0.09
2020-08-12 20:20:50.9790,0.25,-0.24,0.03
2020-08-12 20:20:51.0780,0.21,-0.22,0.2
2020-08-12 20:20:51.1770,0.73,0.28,-0.12
2020-08-12 20:20:51.2770,0.5,-0.0,-0.14
2020-08-12 20:20:51.3760,-0.02,-0.36,0.09
2020-08-12 20:20:51.4750,-0.66,-0.31,0.31
2020-08-12 20:20:51.5740,-1.05,-0.07,0.21
2020-08-12 20:20:51.6740,1.17,-0.3,-0.55
2020-08-12 20:20:51.7730,-0.26,-0.03,0.51
2020-08-12 20:20:51.8720,-0.1,-0.01,0.02
2020-08-12 20:20:51.9720,-0.02,-0.02,0.01
2020-08-12 20:20:52.0710,0.02,-0.0,0.02
2020-08-12 20:20:52.1700,-0.01,0.01,0.04
2020-08-12 20:20:52.2690,-0.01,-0.01,0.0
2020-08-12 20:20:52.3690,-0.05,-0.04,0.01
2020-08-12 20:20:52.4680,-0.0,-0.03,0.01
2020-08-12 20:20:52.5670,0.01,-0.03,0.01
2020-08-12 20:20:52.6670,0.04,-0.06,-0.01
2020-08-12 20:20:52.7660,0.16,-0.27,-0.04
2020-08-12 20:20:52.8650,0.29,-0.28,-0.07
2020-08-12 20:20:52.9640,0.16,-0.12,0.16
2020-08-12 20:20:53.0640,0.84,0.27,-0.19
2020-08-12 20:20:53.1630,0.31,-0.04,-0.11
2020-08-12 20:20:53.2620,-0.09,-0.31,0.18
2020-08-12 20:20:53.3610,-0.45,-0.36,0.16
2020-08-12 20:20:53.4610,-0.99,-0.11,0.24
2020-08-12 20:20:53.5600,0.19,-0.09,-0.43
2020-08-12 20:20:53.6590,-0.42,-0.14,-0.16
2020-08-12 20:20:53.7590,-0.05,-0.03,0.02
2020-08-12 20:20:53.8580,0.03,-0.01,-0.02
2020-08-12 20:20:53.9570,-0.07,0.01,0.03
2020-08-12 20:20:54.0560,-0.04,0.04,0.01
2020-08-12 20:20:54.1550,0.03,0.0,0.03
2020-08-12 20:20:54.2550,-0.01,0.01,0.01
2020-08-12 20:20:54.3540,-0.02,-0.02,-0.01
2020-08-12 20:20:54.4530,0.02,0.0,0.02
2020-08-12 20:20:54.5530,0.01,-0.03,0.0
2020-08-12 20:20:54.6520,0.08,-0.16,0.01
2020-08-12 20:20:54.7510,0.33,-0.27,-0.1
2020-08-12 20:20:54.8500,0.06,-0.23,0.2
2020-08-12 20:20:54.9500,0.8,0.2,-0.19
2020-08-12 20:20:55.0490,0.56,0.16,-0.08
2020-08-12 20:20:55.1480,0.08,-0.27,0.07
2020-08-12 20:20:55.2480,-0.4,-0.35,0.22
2020-08-12 20:20:55.3470,-0.92,-0.1,0.22
2020-08-12 20:20:55.4460,-0.8,-0.13,-0.06
2020-08-12 20:20:55.5450,-0.24,-0.28,-0.14
2020-08-12 20:20:55.6450,-0.04,0.01,0.04
2020-08-12 20:20:55.7440,0.02,-0.01,0.03
2020-08-12 20:20:55.8430,-0.02,-0.0,0.04
2020-08-12 20:20:55.9420,-0.09,-0.02,-0.02
2020-08-12 20:20:56.0420,-0.01,-0.01,0.02
2020-08-12 20:20:56.1410,0.01,-0.01,0.04
2020-08-12 20:20:56.2400,-0.02,0.01,-0.02
2020-08-12 20:20:56.3400,-0.02,0.03,0.01
2020-08-12 20:20:56.4390,0.01,-0.04,-0.03
2020-08-12 20:20:56.5380,0.05,-0.17,-0.01
2020-08-12 20:20:56.6370,0.41,-0.3,-0.05
2020-08-12 20:20:56.7370,0.24,-0.27,0.1
2020-08-12 20:20:56.8360,0.8,0.17,-0.08
2020-08-12 20:20:56.9350,0.62,0.16,-0.12
2020-08-12 20:20:57.0340,0.09,-0.25,-0.01
2020-08-12 20:20:57.1340,-0.37,-0.43,0.15
2020-08-12 20:20:57.2330,-0.84,-0.16,0.3
2020-08-12 20:20:57.3320,-0.8,-0.02,0.04
2020-08-12 20:20:57.4310,-0.36,-0.45,0.43
2020-08-12 20:20:57.5310,0.08,-0.01,0.02
2020-08-12 20:20:57.6300,-0.0,0.01,0.04
2020-08-12 20:20:57.7290,0.03,0.03,-0.0
2020-08-12 20:20:57.8280,0.09,0.02,0.0
2020-08-12 20:20:57.9280,0.01,0.01,0.04
2020-08-12 20:20:58.0270,-0.02,-0.03,0.02
2020-08-12 20:20:58.1260,0.01,-0.01,0.02
2020-08-12 20:20:58.2260,0.01,-0.01,-0.0
2020-08-12 20:20:58.3250,0.02,-0.03,-0.01
2020-08-12 20:20:58.4240,0.04,-0.09,0.02
2020-08-12 20:20:58.5230,0.2,-0.3,-0.1
2020-08-12 20:20:58.6230,0.23,-0.24,0.11
2020-08-12 20:20:58.7220,0.17,0.03,0.2
2020-08-12 20:20:58.8210,0.69,0.29,-0.11
2020-08-12 20:20:58.9200,0.35,-0.09,-0.15
2020-08-12 20:20:59.0200,-0.13,-0.31,0.15
2020-08-12 20:20:59.1190,-0.62,-0.33,0.16
2020-08-12 20:20:59.2180,-1.04,-0.1,0.14
2020-08-12 20:20:59.3180,0.99,-0.22,-0.56
2020-08-12 20:20:59.4170,-0.33,-0.12,0.36
2020-08-12 20:20:59.5160,-0.08,0.01,0.05
2020-08-12 20:20:59.6150,-0.0,0.01,-0.02
2020-08-12 20:20:59.7150,-0.08,0.01,0.07
2020-08-12 20:20:59.8140,-0.01,-0.01,0.0
2020-08-12 20:20:59.9130,0.03,-0.01,0.02
2020-08-12 20:21:00.0120,-0.01,-0.0,0.01
2020-08-12 20:21:00.1120,-0.03,0.02,0.0
2020-08-12 20:21:00.2110,-0.02,0.01,-0.02
2020-08-12 20:21:00.3100,-0.0,-0.06,0.03
2020-08-12 20:21:00.4090,0.09,-0.29,-0.04
2020-08-12 20:21:00.5090,0.39,-0.17,0.05
2020-08-12 20:21:00.6080,0.17,-0.15,0.16
2020-08-12 20:21:00.7070,0.69,0.3,-0.15
2020-08-12 20:21:00.8070,0.39,-0.03,-0.17
2020-08-12 20:21:00.9060,-0.03,-0.31,0.11
2020-08-12 20:21:01.0050,-0.49,-0.31,0.19
2020-08-12 20:21:01.1040,-1.03,-0.08,0.04
2020-08-12 20:21:01.2040,1.34,-0.13,-0.47
2020-08-12 20:21:01.3030,-0.61,-0.12,0.34
2020-08-12 20:21:01.4020,-0.06,-0.03,0.01
2020-08-12 20:21:01.5010,0.02,-0.0,0.01
2020-08-12 20:21:01.6010,0.04,0.04,-0.02
2020-08-12 20:21:01.7000,-0.01,-0.01,0.0
2020-08-12 20:21:01.8000,0.02,0.0,0.02
2020-08-12 20:21:01.8990,0.03,0.01,-0.0
2020-08-12 20:21:01.9980,0.04,-0.01,0.03
2020-08-12 20:21:02.0970,-0.0,-0.01,-0.01
2020-08-12 20:21:02.1960,0.07,-0.06,0.05
2020-08-12 20:21:02.2960,0.14,-0.21,0.04
2020-08-12 20:21:02.3950,0.25,-0.24,-0.09
2020-08-12 20:21:02.4940,0.11,-0.26,0.14
2020-08-12 20:21:02.5930,0.82,0.13,-0.16
2020-08-12 20:21:02.6930,0.57,0.15,-0.12
2020-08-12 20:21:02.7920,0.17,-0.25,-0.07
2020-08-12 20:21:02.8910,-0.42,-0.47,0.18
2020-08-12 20:21:02.9900,-1.18,-0.22,0.32
2020-08-12 20:21:03.0900,-0.22,-0.11,-0.33
2020-08-12 20:21:03.1890,-0.12,-0.21,0.06
2020-08-12 20:21:03.2880,0.02,0.01,-0.01
2020-08-12 20:21:03.3880,-0.01,-0.02,0.01
2020-08-12 20:21:03.4870,-0.08,0.01,0.03
2020-08-12 20:21:03.5860,0.0,-0.0,0.0
2020-08-12 20:21:03.6850,-0.11,-0.02,0.03
2020-08-12 20:21:03.7850,-0.01,-0.02,0.02
2020-08-12 20:21:03.8840,0.02,-0.01,0.0
2020-08-12 20:21:03.9830,0.02,-0.02,0.01
2020-08-12 20:21:04.0820,0.0,-0.03,0.01
2020-08-12 20:21:04.1820,0.1,-0.19,0.04
2020-08-12 20:21:04.2810,0.29,-0.18,-0.15
2020-08-12 20:21:04.3800,0.15,-0.23,0.15
2020-08-12 20:21:04.4800,0.71,0.07,-0.05
2020-08-12 20:21:04.5790,0.57,0.16,-0.06
2020-08-12 20:21:04.6780,0.17,-0.24,-0.09
2020-08-12 20:21:04.7770,-0.28,-0.38,0.13
2020-08-12 20:21:04.8770,-0.73,-0.13,0.2
2020-08-12 20:21:04.9760,-0.92,0.01,0.08
2020-08-12 20:21:05.0750,-0.4,-0.46,0.21
2020-08-12 20:21:05.1740,0.08,0.09,0.05
2020-08-12 20:21:05.2740,0.0,-0.01,0.0
2020-08-12 20:21:05.3730,0.04,0.02,-0.02
2020-08-12 20:21:05.4720,-0.01,-0.0,0.06
2020-08-12 20:21:05.5710,-0.05,-0.0,0.04
2020-08-12 20:21:05.6710,-0.06,-0.02,-0.02
2020-08-12 20:21:05.7700,-0.11,-0.05,0.0
2020-08-12 20:21:05.8700,-0.04,-0.02,0.02
2020-08-12 20:21:05.9680,-0.01,-0.03,-0.0
2020-08-12 20:21:06.0680,-0.0,-0.02,0.01
2020-08-12 20:21:06.1670,0.13,-0.23,0.01
2020-08-12 20:21:06.2660,0.35,-0.21,-0.1
2020-08-12 20:21:06.3660,0.02,-0.1,0.22
2020-08-12 20:21:06.4650,0.65,0.18,-0.13
2020-08-12 20:21:06.5640,0.38,0.03,-0.1
2020-08-12 20:21:06.6630,0.05,-0.21,0.06
2020-08-12 20:21:06.7630,-0.27,-0.24,0.11
2020-08-12 20:21:06.8620,-0.67,-0.08,0.17
2020-08-12 20:21:06.9610,-0.73,-0.03,0.04
2020-08-12 20:21:07.0600,0.04,-0.5,-0.37
2020-08-12 20:21:07.1600,-0.26,-0.1,0.23
2020-08-12 20:21:07.2590,-0.05,-0.01,-0.0
2020-08-12 20:21:07.3580,0.01,-0.0,0.03
2020-08-12 20:21:07.4580,-0.03,0.0,0.02
2020-08-12 20:21:07.5570,-0.03,0.0,-0.01
2020-08-12 20:21:07.6560,-0.0,-0.02,-0.01
2020-08-12 20:21:07.7560,-0.01,0.0,0.03
2020-08-12 20:21:07.8540,-0.04,-0.02,0.02
2020-08-12 20:21:07.9540,-0.0,-0.04,0.02
2020-08-12 20:21:08.0530,0.02,-0.03,0.02
2020-08-12 20:21:08.1520,0.13,-0.22,0.01
2020-08-12 20:21:08.2520,0.32,-0.27,-0.11
2020-08-12 20:21:08.3510,0.17,-0.15,0.12
2020-08-12 20:21:08.4500,0.72,0.16,-0.21
2020-08-12 20:21:08.5500,0.31,-0.07,-0.21
2020-08-12 20:21:08.6490,-0.03,-0.2,-0.02
2020-08-12 20:21:08.7480,-0.51,-0.24,0.22
2020-08-12 20:21:08.8470,-0.83,-0.11,0.21
2020-08-12 20:21:08.9470,0.92,-0.29,-0.35
2020-08-12 20:21:09.0460,-0.24,0.0,0.12
2020-08-12 20:21:09.1450,-0.02,0.01,-0.0
2020-08-12 20:21:09.2440,0.01,-0.02,0.04
2020-08-12 20:21:09.3440,-0.05,0.01,0.03
2020-08-12 20:21:09.4430,0.01,-0.0,-0.03
2020-08-12 20:21:09.5420,-0.0,-0.02,-0.0
2020-08-12 20:21:09.6410,0.0,-0.0,-0.01
2020-08-12 20:21:09.7410,-0.03,0.01,0.01
2020-08-12 20:21:09.8400,-0.06,-0.02,-0.02
2020-08-12 20:21:09.9400,0.04,-0.04,0.0
2020-08-12 20:21:10.0390,0.09,-0.19,0.02
2020-08-12 20:21:10.1380,0.24,-0.2,-0.1
2020-08-12 20:21:10.2370,0.19,-0.21,0.1
2020-08-12 20:21:10.3360,0.86,0.13,-0.21
2020-08-12 20:21:10.4360,0.6,0.1,-0.17
2020-08-12 20:21:10.5350,0.06,-0.26,0.05
2020-08-12 20:21:10.6340,-0.44,-0.25,0.2
2020-08-12 20:21:10.7330,-0.81,-0.11,0.18
2020-08-12 20:21:10.8330,-0.81,-0.12,0.07
2020-08-12 20:21:10.9320,-0.15,-0.41,-0.16
2020-08-12 20:21:11.0310,0.01,0.07,0.12
2020-08-12 20:21:11.1310,0.01,-0.01,0.03
2020-08-12 20:21:11.2300,-0.08,0.03,0.06
2020-08-12 20:21:11.3290,-0.03,-0.01,-0.01
2020-08-12 20:21:11.4280,-0.01,-0.01,0.03
2020-08-12 20:21:11.5280,-0.02,-0.01,0.03
2020-08-12 20:21:11.6270,0.0,-0.01,0.01
2020-08-12 20:21:11.7260,0.03,-0.02,0.02
2020-08-12 20:21:11.8250,0.07,-0.07,0.06
2020-08-12 20:21:11.9250,0.16,-0.32,-0.08
2020-08-12 20:21:12.0240,0.31,-0.13,0.06
2020-08-12 20:21:12.1230,0.14,-0.02,0.32
2020-08-12 20:21:12.2220,0.72,0.26,-0.11
2020-08-12 20:21:12.3220,0.26,-0.11,-0.14
2020-08-12 20:21:12.4210,-0.19,-0.33,0.02
2020-08-12 20:21:12.5200,-0.74,-0.22,0.04
2020-08-12 20:21:12.6200,-0.77,-0.02,0.0
2020-08-12 20:21:12.7190,-0.92,-0.41,0.03
2020-08-12 20:21:12.8180,-0.16,0.07,0.26
2020-08-12 20:21:12.9170,-0.08,0.02,0.03
2020-08-12 20:21:13.0170,-0.06,0.01,0.0
2020-08-12 20:21:13.1160,-0.01,-0.0,0.03
2020-08-12 20:21:13.2150,-0.0,-0.01,0.02
2020-08-12 20:21:13.3140,0.0,-0.0,0.02
2020-08-12 20:21:13.4140,-0.04,-0.02,-0.0
2020-08-12 20:21:13.5130,0.02,-0.03,0.0
2020-08-12 20:21:13.6120,0.01,-0.07,-0.02
2020-08-12 20:21:13.7120,0.16,-0.32,-0.01
2020-08-12 20:21:13.8110,0.36,-0.28,0.04
2020-08-12 20:21:13.9100,0.24,0.18,0.16
2020-08-12 20:21:14.0100,0.66,0.24,-0.15
2020-08-12 20:21:14.1080,0.3,-0.11,-0.15
2020-08-12 20:21:14.2080,-0.1,-0.32,0.09
2020-08-12 20:21:14.3070,-0.48,-0.21,0.25
2020-08-12 20:21:14.4060,-0.83,-0.06,0.07
2020-08-12 20:21:14.5060,-0.57,-0.03,0.06
2020-08-12 20:21:14.6050,0.04,-0.1,-0.14
2020-08-12 20:21:14.7040,0.04,0.02,0.0
2020-08-12 20:21:14.8030,-0.05,-0.03,0.02
2020-08-12 20:21:14.9030,-0.06,0.02,0.06
2020-08-12 20:21:15.0020,-0.05,-0.02,0.02
2020-08-12 20:21:15.1010,-0.07,-0.01,0.02
2020-08-12 20:21:15.2010,0.06,-0.04,-0.02
2020-08-12 20:21:15.3000,-0.02,0.01,0.01
2020-08-12 20:21:15.3990,-0.04,-0.0,0.01
2020-08-12 20:21:15.4980,-0.03,-0.04,-0.02
2020-08-12 20:21:15.5980,0.13,-0.27,-0.01
2020-08-12 20:21:15.6970,0.39,-0.26,-0.09
2020-08-12 20:21:15.7960,0.14,-0.13,0.16
2020-08-12 20:21:15.8950,0.78,0.26,-0.14
2020-08-12 20:21:15.9950,0.32,-0.14,-0.18
2020-08-12 20:21:16.0940,-0.17,-0.34,0.17
2020-08-12 20:21:16.1930,-0.56,-0.21,0.23
2020-08-12 20:21:16.2930,-0.8,-0.03,0.08
2020-08-12 20:21:16.3920,-0.2,0.02,0.04
2020-08-12 20:21:16.4910,0.01,0.02,-0.23
2020-08-12 20:21:16.5900,-0.06,0.0,0.01
2020-08-12 20:21:16.6900,-0.02,0.0,0.02
2020-08-12 20:21:16.7890,0.0,0.01,0.03
2020-08-12 20:21:16.8880,0.02,0.02,0.01
2020-08-12 20:21:16.9870,-0.05,-0.03,0.01
2020-08-12 20:21:17.0870,-0.02,-0.01,0.04
2020-08-12 20:21:17.1860,0.05,-0.02,0.02
2020-08-12 20:21:17.2850,0.02,-0.04,-0.01
2020-08-12 20:21:17.3840,-0.0,0.0,0.02
2020-08-12 20:21:17.4840,0.08,-0.25,0.01
2020-08-12 20:21:17.5830,0.32,-0.2,-0.07
2020-08-12 20:21:17.6820,0.16,-0.18,0.23
2020-08-12 20:21:17.7820,0.71,0.12,-0.16
2020-08-12 20:21:17.8810,0.49,0.11,-0.14
2020-08-12 20:21:17.9800,0.08,-0.21,0.04
2020-08-12 20:21:18.0790,-0.33,-0.21,0.2
2020-08-12 20:21:18.1790,-0.61,-0.11,0.18
2020-08-12 20:21:18.2780,-1.04,-0.02,0.17
2020-08-12 20:21:18.3770,-0.48,-0.36,0.09
2020-08-12 20:21:18.4760,-0.06,-0.01,0.04
2020-08-12 20:21:18.5760,-0.08,0.01,0.07
2020-08-12 20:21:18.6750,-0.03,-0.0,0.03
2020-08-12 20:21:18.7740,-0.02,-0.02,0.02
2020-08-12 20:21:18.8730,0.03,0.02,-0.02
2020-08-12 20:21:18.9730,0.02,-0.0,0.03
2020-08-12 20:21:19.0720,0.04,0.0,0.01
2020-08-12 20:21:19.1710,0.04,-0.02,-0.02
2020-08-12 20:21:19.2710,0.01,-0.05,-0.0
2020-08-12 20:21:19.3700,0.08,-0.1,0.0
2020-08-12 20:21:19.4690,0.21,-0.27,-0.0
2020-08-12 20:21:19.5690,0.15,-0.21,0.13
2020-08-12 20:21:19.6680,0.63,-0.03,-0.09
2020-08-12 20:21:19.7670,0.55,0.16,-0.09
2020-08-12 20:21:19.8660,0.17,-0.16,-0.04
2020-08-12 20:21:19.9660,-0.16,-0.25,0.16
2020-08-12 20:21:20.0650,-0.76,-0.17,0.28
2020-08-12 20:21:20.1640,-0.96,-0.05,0.03
2020-08-12 20:21:20.2630,-0.56,-0.46,0.02
2020-08-12 20:21:20.3630,-0.02,-0.02,0.07
2020-08-12 20:21:20.4620,-0.04,0.01,0.02
2020-08-12 20:21:20.5610,-0.01,-0.0,0.01
2020-08-12 20:21:20.6600,-0.04,0.0,0.02
2020-08-12 20:21:20.7600,-0.01,-0.01,0.01
2020-08-12 20:21:20.8590,0.03,-0.02,0.01
2020-08-12 20:21:20.9580,-0.0,-0.01,0.01
2020-08-12 20:21:21.0570,0.02,0.0,0.01
2020-08-12 20:21:21.1570,0.03,-0.05,-0.02
2020-08-12 20:21:21.2560,0.04,-0.14,-0.02
2020-08-12 20:21:21.3550,0.31,-0.27,-0.06
2020-08-12 20:21:21.4540,0.2,-0.21,0.21
2020-08-12 20:21:21.5540,0.87,0.09,-0.14
2020-08-12 20:21:21.6530,0.58,0.07,-0.08
2020-08-12 20:21:21.7520,0.09,-0.3,-0.02
2020-08-12 20:21:21.8520,-0.49,-0.39,0.14
2020-08-12 20:21:21.9510,-1.0,-0.11,0.21
2020-08-12 20:21:22.0500,-0.18,-0.03,-0.17
2020-08-12 20:21:22.1490,-0.32,-0.16,-0.18
2020-08-12 20:21:22.2490,0.01,0.01,-0.01
2020-08-12 20:21:22.3480,0.01,-0.05,-0.01
2020-08-12 20:21:22.4470,-0.07,0.02,0.04
2020-08-12 20:21:22.5460,-0.04,-0.01,0.0
2020-08-12 20:21:22.6460,0.0,0.03,0.04
2020-08-12 20:21:22.7450,0.02,-0.01,-0.02
2020-08-12 20:21:22.8440,-0.03,-0.01,0.01
2020-08-12 20:21:22.9440,0.0,-0.02,0.01
2020-08-12 20:21:23.0430,0.05,-0.04,-0.04
2020-08-12 20:21:23.1420,0.17,-0.26,0.02
2020-08-12 20:21:23.2410,0.31,-0.34,-0.13
2020-08-12 20:21:23.3410,0.11,0.13,0.15
2020-08-12 20:21:23.4400,0.66,0.16,-0.18
2020-08-12 20:21:23.5390,0.41,-0.11,-0.15
2020-08-12 20:21:23.6380,-0.04,-0.32,0.11
2020-08-12 20:21:23.7380,-0.61,-0.27,0.27
2020-08-12 20:21:23.8370,-1.04,-0.03,0.06
2020-08-12 20:21:23.9360,1.44,-0.37,-0.39
2020-08-12 20:21:24.0360,-0.24,-0.09,0.35
2020-08-12 20:21:24.1350,-0.11,-0.01,0.05
2020-08-12 20:21:24.2340,-0.0,-0.02,-0.01
2020-08-12 20:21:24.3330,-0.04,0.0,0.04
2020-08-12 20:21:24.4330,-0.08,-0.03,-0.01
2020-08-12 20:21:24.5320,-0.02,-0.0,0.01
2020-08-12 20:21:24.6310,0.01,-0.01,-0.01
2020-08-12 20:21:24.7300,0.01,-0.02,-0.01
2020-08-12 20:21:24.8300,0.03,-0.06,-0.03
2020-08-12 20:21:24.9290,0.13,-0.26,-0.03
2020-08-12 20:21:25.0280,0.27,-0.28,-0.08
2020-08-12 20:21:25.1270,0.14,-0.13,0.1
2020-08-12 20:21:25.2270,0.67,0.15,-0.11
2020-08-12 20:21:25.3260,0.57,0.12,-0.08
2020-08-12 20:21:25.4250,0.17,-0.24,0.07
2020-08-12 20:21:25.5240,-0.41,-0.31,0.26
2020-08-12 20:21:25.6240,-0.76,-0.11,0.2
2020-08-12 20:21:25.7230,-0.85,-0.12,-0.01
2020-08-12 20:21:25.8220,-0.33,-0.51,0.15
2020-08-12 20:21:25.9220,-0.07,0.07,0.07
2020-08-12 20:21:26.0210,0.01,0.02,0.08
2020-08-12 20:21:26.1200,-0.09,0.02,0.03
2020-08-12 20:21:26.2190,-0.03,0.01,-0.02
2020-08-12 20:21:26.3190,-0.02,-0.01,0.04
2020-08-12 20:21:26.4180,0.02,-0.02,0.02
2020-08-12 20:21:26.5170,0.0,-0.02,-0.01
2020-08-12 20:21:26.6160,0.01,-0.03,0.02
2020-08-12 20:21:26.7160,0.04,-0.06,0.04
2020-08-12 20:21:26.8150,0.13,-0.31,-0.05
2020-08-12 20:21:26.9140,0.2,-0.26,0.08
2020-08-12 20:21:27.0140,0.15,-0.07,0.09
2020-08-12 20:21:27.1130,0.57,0.3,-0.01
2020-08-12 20:21:27.2120,0.54,0.03,-0.08
2020-08-12 20:21:27.3110,0.06,-0.25,0.06
2020-08-12 20:21:27.4110,-0.54,-0.4,0.1
2020-08-12 20:21:27.5100,-1.14,-0.12,0.06
2020-08-12 20:21:27.6090,1.37,-0.23,-0.29
2020-08-12 20:21:27.7080,-0.02,-0.07,0.42
2020-08-12 20:21:27.8080,0.02,-0.04,0.01
2020-08-12 20:21:27.9070,0.02,-0.02,0.01
2020-08-12 20:21:28.0060,-0.06,0.02,-0.03
2020-08-12 20:21:28.1060,-0.07,-0.02,0.03
2020-08-12 20:21:28.2050,-0.01,-0.01,0.02
2020-08-12 20:21:28.3040,-0.03,-0.03,-0.01
2020-08-12 20:21:28.4030,-0.02,0.01,0.02
2020-08-12 20:21:28.5030,0.02,-0.01,-0.02
2020-08-12 20:21:28.6020,0.03,-0.05,-0.02
2020-08-12 20:21:28.7010,0.16,-0.26,-0.02
2020-08-12 20:21:28.8000,0.26,-0.23,0.0
2020-08-12 20:21:28.9000,0.35,0.06,0.26
2020-08-12 20:21:28.9990,0.61,0.16,-0.1
2020-08-12 20:21:29.0980,0.31,-0.11,-0.03
2020-08-12 20:21:29.1970,-0.06,-0.19,0.1
2020-08-12 20:21:29.2970,-0.27,-0.27,0.11
2020-08-12 20:21:29.3960,-0.72,-0.12,0.2
2020-08-12 20:21:29.4950,-0.76,-0.03,0.03
2020-08-12 20:21:29.5950,-0.52,-0.53,-0.09
2020-08-12 20:21:29.6940,0.08,0.0,-0.0
2020-08-12 20:21:29.7930,-0.02,-0.01,0.01
2020-08-12 20:21:29.8920,-0.09,-0.02,0.01
2020-08-12 20:21:29.9910,-0.07,-0.0,0.05
2020-08-12 20:21:30.0910,-0.09,-0.03,-0.01
2020-08-12 20:21:30.1900,-0.0,-0.01,0.01
2020-08-12 20:21:30.2900,0.05,0.05,0.07
2020-08-12 20:21:30.3890,0.1,0.08,0.05
2020-08-12 20:21:30.4880,0.08,-0.0,0.03
2020-08-12 20:21:30.5870,0.1,0.0,-0.01
2020-08-12 20:21:30.6860,0.1,-0.05,0.0
2020-08-12 20:21:30.7860,0.15,-0.3,0.01
2020-08-12 20:21:30.8850,0.34,-0.31,-0.03
2020-08-12 20:21:30.9840,0.07,-0.06,0.07
2020-08-12 20:21:31.0840,0.66,0.19,-0.15
2020-08-12 20:21:31.1830,0.34,0.02,-0.1
2020-08-12 20:21:31.2820,0.04,-0.2,0.07
2020-08-12 20:21:31.3810,-0.28,-0.29,0.14
2020-08-12 20:21:31.4810,-0.62,-0.11,0.06
2020-08-12 20:21:31.5800,-0.82,-0.07,0.1
2020-08-12 20:21:31.6790,0.37,-0.56,-0.51
2020-08-12 20:21:31.7780,-0.29,-0.14,0.36
2020-08-12 20:21:31.8780,-0.06,-0.02,-0.01
2020-08-12 20:21:31.9770,-0.0,-0.04,-0.06
2020-08-12 20:21:32.0760,-0.02,0.01,0.04
2020-08-12 20:21:32.1750,-0.05,-0.03,-0.01
2020-08-12 20:21:32.2750,-0.01,-0.02,0.02
2020-08-12 20:21:32.3740,0.02,-0.02,0.0
2020-08-12 20:21:32.4730,0.03,-0.0,-0.01
2020-08-12 20:21:32.5730,-0.03,-0.03,0.02
2020-08-12 20:21:32.6720,0.04,-0.11,0.01
2020-08-12 20:21:32.7710,0.17,-0.28,-0.03
2020-08-12 20:21:32.8700,0.22,-0.12,0.02
2020-08-12 20:21:32.9700,0.14,-0.1,0.09
2020-08-12 20:21:33.0690,0.65,0.26,-0.15
2020-08-12 20:21:33.1680,0.52,-0.06,-0.13
2020-08-12 20:21:33.2670,-0.0,-0.34,0.07
2020-08-12 20:21:33.3670,-0.54,-0.37,0.27
2020-08-12 20:21:33.4660,-0.98,-0.09,0.11
2020-08-12 20:21:33.5650,0.28,-0.14,-0.2
2020-08-12 20:21:33.6650,-0.52,-0.17,-0.13
2020-08-12 20:21:33.7640,-0.21,-0.01,0.07
2020-08-12 20:21:33.8630,-0.04,-0.03,0.02
2020-08-12 20:21:33.9620,-0.03,-0.0,0.02
2020-08-12 20:21:34.0620,0.01,-0.02,0.02
2020-08-12 20:21:34.1610,-0.01,-0.0,0.0
2020-08-12 20:21:34.2600,-0.03,-0.0,0.01
2020-08-12 20:21:34.3590,0.01,-0.01,0.02
2020-08-12 20:21:34.4590,-0.01,-0.02,0.02
2020-08-12 20:21:34.5580,-0.0,-0.02,0.02
2020-08-12 20:21:34.6570,0.04,-0.21,-0.01
2020-08-12 20:21:34.7560,0.15,-0.12,-0.1
2020-08-12 20:21:34.8560,0.06,-0.15,0.06
2020-08-12 20:21:34.9550,0.49,-0.05,-0.08
2020-08-12 20:21:35.0540,0.54,0.1,-0.08
2020-08-12 20:21:35.1540,0.28,-0.11,0.02
2020-08-12 20:21:35.2530,0.04,-0.18,0.05
2020-08-12 20:21:35.3520,-0.3,-0.24,0.19
2020-08-12 20:21:35.4510,-0.76,-0.09,0.28
2020-08-12 20:21:35.5510,-0.78,-0.05,0.09
2020-08-12 20:21:35.6500,-0.72,-0.45,0.47
2020-08-12 20:21:35.7490,0.16,0.0,0.09
2020-08-12 20:21:35.8480,0.01,0.01,0.09
2020-08-12 20:21:35.9480,-0.04,-0.0,0.08
2020-08-12 20:21:36.0470,-0.04,-0.01,-0.01
2020-08-12 20:21:36.1460,0.01,-0.0,0.01
2020-08-12 20:21:36.2450,0.03,-0.01,0.0
2020-08-12 20:21:36.3450,-0.0,-0.01,0.01
2020-08-12 20:21:36.4440,0.0,-0.01,0.03
2020-08-12 20:21:36.5430,0.05,-0.01,-0.0
2020-08-12 20:21:36.6430,0.16,-0.13,0.07
2020-08-12 20:21:36.7420,0.06,-0.27,-0.19
2020-08-12 20:21:36.8410,0.12,-0.12,0.05
2020-08-12 20:21:36.9400,0.49,-0.01,0.04
2020-08-12 20:21:37.0400,0.57,0.18,-0.08
2020-08-12 20:21:37.1390,0.21,-0.11,-0.01
2020-08-12 20:21:37.2380,-0.05,-0.22,-0.01
2020-08-12 20:21:37.3370,-0.33,-0.16,0.07
2020-08-12 20:21:37.4370,-0.71,0.0,0.14
2020-08-12 20:21:37.5360,-0.9,-0.03,0.23
2020-08-12 20:21:37.6350,-0.45,-0.36,0.39
2020-08-12 20:21:37.7340,0.05,0.14,0.1
2020-08-12 20:21:37.8340,-0.04,-0.0,0.02
2020-08-12 20:21:37.9330,-0.06,0.01,0.03
2020-08-12 20:21:38.0320,0.08,0.04,0.04
2020-08-12 20:21:38.1320,0.02,-0.03,0.07
2020-08-12 20:21:38.2310,-0.0,-0.0,0.05
2020-08-12 20:21:38.3300,-0.02,-0.01,0.02
2020-08-12 20:21:38.4290,0.01,-0.02,0.0
2020-08-12 20:21:38.5290,0.07,-0.07,0.06
2020-08-12 20:21:38.6280,0.27,-0.33,-0.11
2020-08-12 20:21:38.7270,0.17,-0.19,-0.02
2020-08-12 20:21:38.8260,0.65,0.1,-0.04
2020-08-12 20:21:38.9260,0.57,0.12,-0.06
2020-08-12 20:21:39.0250,0.27,-0.12,-0.1
2020-08-12 20:21:39.1240,-0.1,-0.28,0.07
2020-08-12 20:21:39.2230,-0.51,-0.21,0.24
2020-08-12 20:21:39.3230,-0.97,-0.09,0.15
2020-08-12 20:21:39.4220,1.14,-0.4,-0.49
2020-08-12 20:21:39.5210,-0.31,-0.11,0.44
2020-08-12 20:21:39.6200,-0.07,-0.02,0.04
2020-08-12 20:21:39.7200,0.01,-0.01,0.01
2020-08-12 20:21:39.8190,-0.02,0.01,0.05
2020-08-12 20:21:39.9180,-0.02,-0.02,0.02
2020-08-12 20:21:40.0180,-0.01,-0.02,0.01
2020-08-12 20:21:40.1170,0.0,-0.01,0.02
2020-08-12 20:21:40.2160,-0.01,-0.01,0.01
2020-08-12 20:21:40.3150,-0.0,-0.03,0.02
2020-08-12 20:21:40.4150,0.03,-0.06,-0.0
2020-08-12 20:21:40.5140,0.25,-0.3,-0.01
2020-08-12 20:21:40.6130,-0.01,-0.16,0.12
2020-08-12 20:21:40.7120,0.64,0.1,-0.15
2020-08-12 20:21:40.8120,0.55,0.19,-0.06
2020-08-12 20:21:40.9110,0.17,-0.19,0.02
2020-08-12 20:21:41.0100,-0.08,-0.22,0.08
2020-08-12 20:21:41.1100,-0.55,-0.19,0.13
2020-08-12 20:21:41.2090,-0.76,-0.08,0.17
2020-08-12 20:21:41.3080,-0.17,-0.07,-0.03
2020-08-12 20:21:41.4070,-0.41,0.08,-0.15
2020-08-12 20:21:41.5070,-0.06,-0.01,0.01
2020-08-12 20:21:41.6060,0.02,-0.02,-0.03
2020-08-12 20:21:41.7050,-0.01,0.01,0.05
2020-08-12 20:21:41.8040,-0.05,-0.01,0.02
2020-08-12 20:21:41.9040,-0.12,-0.03,0.05
2020-08-12 20:21:42.0030,-0.05,0.0,0.02
2020-08-12 20:21:42.1020,-0.0,0.0,0.02
2020-08-12 20:21:42.2020,0.02,-0.05,0.01
2020-08-12 20:21:42.3010,0.04,-0.07,0.0
2020-08-12 20:21:42.4000,0.21,-0.26,-0.03
2020-08-12 20:21:42.4990,0.36,-0.18,-0.02
2020-08-12 20:21:42.5990,0.35,0.05,0.29
2020-08-12 20:21:42.6980,0.67,0.22,-0.08
2020-08-12 20:21:42.7970,0.2,-0.23,-0.04
2020-08-12 20:21:42.8960,-0.18,-0.3,0.11
2020-08-12 20:21:42.9960,-0.55,-0.17,0.18
2020-08-12 20:21:43.0950,-0.78,-0.0,0.18
2020-08-12 20:21:43.1940,1.22,-0.25,-0.39
2020-08-12 20:21:43.2930,-0.13,0.02,0.38
2020-08-12 20:21:43.3930,0.05,-0.06,-0.06
2020-08-12 20:21:43.4920,-0.01,-0.04,0.0
2020-08-12 20:21:43.5910,-0.03,0.01,0.05
2020-08-12 20:21:43.6910,-0.03,-0.01,-0.01
2020-08-12 20:21:43.7900,-0.0,-0.0,0.01
2020-08-12 20:21:43.8890,-0.01,0.01,0.03
2020-08-12 20:21:43.9880,-0.0,-0.01,-0.0
2020-08-12 20:21:44.0880,0.02,-0.02,0.0
2020-08-12 20:21:44.1870,0.02,-0.04,0.05
2020-08-12 20:21:44.2860,0.09,-0.18,0.01
2020-08-12 20:21:44.3850,0.23,-0.19,-0.11
2020-08-12 20:21:44.4850,0.13,-0.24,0.1
2020-08-12 20:21:44.5840,0.75,0.08,-0.14
2020-08-12 20:21:44.6830,0.56,0.1,-0.05
2020-08-12 20:21:44.7830,0.18,-0.26,0.03
2020-08-12 20:21:44.8820,-0.19,-0.28,0.14
2020-08-12 20:21:44.9810,-0.56,-0.18,0.13
2020-08-12 20:21:45.0800,-0.82,-0.04,0.15
2020-08-12 20:21:45.1800,0.21,-0.05,-0.25
2020-08-12 20:21:45.2790,-0.18,-0.13,-0.06
2020-08-12 20:21:45.3780,0.01,0.03,0.0
2020-08-12 20:21:45.4770,0.06,0.01,-0.02
2020-08-12 20:21:45.5770,-0.15,0.02,0.06
2020-08-12 20:21:45.6760,0.04,-0.01,0.04
2020-08-12 20:21:45.7750,-0.05,-0.01,0.03
2020-08-12 20:21:45.8740,0.0,-0.0,-0.02
2020-08-12 20:21:45.9740,-0.01,-0.01,0.01
2020-08-12 20:21:46.0730,0.01,-0.01,0.02
2020-08-12 20:21:46.1720,-0.01,-0.02,0.01
2020-08-12 20:21:46.2710,0.1,-0.16,0.06
2020-08-12 20:21:46.3710,0.2,-0.28,-0.18
2020-08-12 20:21:46.4700,0.21,-0.13,0.04
2020-08-12 20:21:46.5690,0.24,0.1,0.16
2020-08-12 20:21:46.6690,0.64,0.11,-0.12
2020-08-12 20:21:46.7680,0.27,-0.12,-0.05
2020-08-12 20:21:46.8670,-0.04,-0.27,0.11
2020-08-12 20:21:46.9660,-0.55,-0.2,0.2
2020-08-12 20:21:47.0660,-0.94,-0.09,0.03
2020-08-12 20:21:47.1650,0.43,-0.05,-0.02
2020-08-12 20:21:47.2640,-0.27,-0.32,-0.23
2020-08-12 20:21:47.3630,-0.04,0.09,0.03
2020-08-12 20:21:47.4630,-0.04,-0.01,0.03
2020-08-12 20:21:47.5620,-0.05,0.02,0.09
2020-08-12 20:21:47.6610,-0.02,-0.01,0.02
2020-08-12 20:21:47.7610,-0.03,-0.01,0.05
2020-08-12 20:21:47.8600,0.03,-0.01,0.01
2020-08-12 20:21:47.9590,0.02,-0.0,0.03
2020-08-12 20:21:48.0580,0.02,-0.02,0.02
2020-08-12 20:21:48.1580,0.0,-0.03,0.02
2020-08-12 20:21:48.2570,0.11,-0.17,0.02
2020-08-12 20:21:48.3560,0.16,-0.27,-0.07
2020-08-12 20:21:48.4550,0.17,-0.13,0.15
2020-08-12 20:21:48.5550,0.66,0.17,-0.12
2020-08-12 20:21:48.6540,0.59,0.15,-0.12
2020-08-12 20:21:48.7530,0.06,-0.23,0.03
2020-08-12 20:21:48.8520,-0.21,-0.27,0.06
2020-08-12 20:21:48.9520,-0.72,-0.14,0.1
2020-08-12 20:21:49.0510,-0.89,-0.02,0.17
2020-08-12 20:21:49.1500,-0.14,-0.43,-0.1
2020-08-12 20:21:49.2500,-0.08,-0.1,0.16
2020-08-12 20:21:49.3490,-0.06,0.0,0.06
2020-08-12 20:21:49.4480,-0.07,-0.02,-0.0
2020-08-12 20:21:49.5470,-0.09,-0.0,-0.02
2020-08-12 20:21:49.6470,-0.03,-0.0,0.04
2020-08-12 20:21:49.7460,-0.02,0.0,0.02
2020-08-12 20:21:49.8450,0.02,-0.01,0.0
2020-08-12 20:21:49.9440,0.01,-0.01,0.01
2020-08-12 20:21:50.0440,0.03,-0.03,0.03
2020-08-12 20:21:50.1430,0.11,-0.18,0.03
2020-08-12 20:21:50.2420,0.35,-0.37,-0.1
2020-08-12 20:21:50.3410,0.16,-0.11,0.09
2020-08-12 20:21:50.4410,0.66,0.09,-0.1
2020-08-12 20:21:50.5400,0.52,0.13,-0.04
2020-08-12 20:21:50.6390,0.2,-0.18,0.0
2020-08-12 20:21:50.7390,-0.13,-0.25,0.07
2020-08-12 20:21:50.8380,-0.51,-0.19,0.09
2020-08-12 20:21:50.9370,-0.88,-0.06,0.13
2020-08-12 20:21:51.0360,0.51,-0.09,-0.17
2020-08-12 20:21:51.1360,-0.47,-0.19,-0.11
2020-08-12 20:21:51.2350,-0.06,0.01,-0.01
2020-08-12 20:21:51.3340,0.11,-0.01,-0.0
2020-08-12 20:21:51.4330,-0.06,0.0,0.05
2020-08-12 20:21:51.5330,-0.05,0.01,-0.01
2020-08-12 20:21:51.6320,-0.01,-0.01,0.03
2020-08-12 20:21:51.7310,0.01,-0.04,-0.0
2020-08-12 20:21:51.8310,-0.01,-0.0,0.0
2020-08-12 20:21:51.9300,0.0,-0.02,-0.03
2020-08-12 20:21:52.0290,0.02,-0.03,0.03
2020-08-12 20:21:52.1280,0.17,-0.24,0.05
2020-08-12 20:21:52.2280,0.25,-0.42,0.03
2020-08-12 20:21:52.3270,0.92,0.07,-0.18
2020-08-12 20:21:52.4260,0.67,0.17,-0.17
2020-08-12 20:21:52.5250,0.06,-0.29,0.03
2020-08-12 20:21:52.6250,-0.25,-0.23,0.12
2020-08-12 20:21:52.7240,-1.01,-0.1,0.31
2020-08-12 20:21:52.8230,-0.95,-0.01,0.16
2020-08-12 20:21:52.9230,-0.5,-0.4,0.51
2020-08-12 20:21:53.0220,0.08,0.09,-0.0
2020-08-12 20:21:53.1210,-0.04,0.01,0.05
2020-08-12 20:21:53.2200,-0.09,-0.01,0.04
2020-08-12 20:21:53.3210,-0.07,0.01,-0.0
2020-08-12 20:21:53.4190,-0.04,-0.02,0.01
2020-08-12 20:21:53.5180,0.01,-0.01,0.02
2020-08-12 20:21:53.6170,-0.0,-0.0,0.01
2020-08-12 20:21:53.7170,0.01,-0.03,0.04
2020-08-12 20:21:53.8160,0.05,-0.06,0.02
2020-08-12 20:21:53.9150,0.14,-0.23,-0.1
2020-08-12 20:21:54.0140,0.28,-0.2,-0.02
2020-08-12 20:21:54.1140,0.12,-0.16,0.18
2020-08-12 20:21:54.2130,0.85,0.25,-0.1
2020-08-12 20:21:54.3120,0.48,-0.01,-0.18
2020-08-12 20:21:54.4120,-0.06,-0.38,0.1
2020-08-12 20:21:54.5110,-0.52,-0.34,0.18
2020-08-12 20:21:54.6100,-0.9,-0.07,0.11
2020-08-12 20:21:54.7090,-0.65,-0.04,-0.04
2020-08-12 20:21:54.8090,-0.19,-0.22,-0.14
2020-08-12 20:21:54.9080,0.0,0.04,-0.04
2020-08-12 20:21:55.0070,-0.01,0.0,0.07
2020-08-12 20:21:55.1060,-0.06,-0.01,0.04
2020-08-12 20:21:55.2060,-0.05,0.01,0.02
2020-08-12 20:21:55.3050,-0.03,-0.01,0.05
2020-08-12 20:21:55.4040,-0.01,-0.01,-0.01
2020-08-12 20:21:55.5030,0.0,0.0,0.01
2020-08-12 20:21:55.6030,0.02,-0.03,-0.01
2020-08-12 20:21:55.7020,0.06,-0.06,0.01
2020-08-12 20:21:55.8010,0.22,-0.29,0.03
2020-08-12 20:21:55.9000,0.16,-0.22,0.03
2020-08-12 20:21:56.0000,0.71,-0.03,0.04
2020-08-12 20:21:56.0990,0.66,0.15,-0.09
2020-08-12 20:21:56.1980,0.12,-0.26,-0.07
2020-08-12 20:21:56.2980,-0.22,-0.3,0.08
2020-08-12 20:21:56.3970,-0.6,-0.21,0.2
2020-08-12 20:21:56.4960,-0.91,-0.05,0.17
2020-08-12 20:21:56.5950,1.38,-0.19,-0.43
2020-08-12 20:21:56.6950,-0.47,-0.03,0.15
2020-08-12 20:21:56.7940,0.07,-0.03,0.01
2020-08-12 20:21:56.8930,-0.05,-0.04,-0.0
2020-08-12 20:21:56.9920,-0.05,0.0,-0.01
2020-08-12 20:21:57.0920,-0.01,-0.02,0.01
2020-08-12 20:21:57.1910,-0.01,-0.01,0.02
2020-08-12 20:21:57.2900,-0.02,-0.02,0.02
2020-08-12 20:21:57.3890,0.0,-0.02,-0.03
2020-08-12 20:21:57.4890,0.03,-0.05,-0.01
2020-08-12 20:21:57.5880,0.03,-0.05,-0.0
2020-08-12 20:21:57.6870,0.2,-0.33,-0.02
2020-08-12 20:21:57.7870,0.21,-0.25,0.07
2020-08-12 20:21:57.8860,0.51,0.09,0.09
2020-08-12 20:21:57.9850,0.6,0.19,-0.06
2020-08-12 20:21:58.0840,0.34,-0.13,-0.11
2020-08-12 20:21:58.1840,-0.05,-0.24,0.06
2020-08-12 20:21:58.2830,-0.34,-0.3,0.14
2020-08-12 20:21:58.3820,-0.88,-0.06,0.17
2020-08-12 20:21:58.4810,-0.74,-0.03,0.1
2020-08-12 20:21:58.5810,-0.32,-0.37,0.16
2020-08-12 20:21:58.6800,0.11,0.06,0.07
2020-08-12 20:21:58.7790,-0.03,0.02,-0.03
2020-08-12 20:21:58.8780,-0.01,0.02,0.03
2020-08-12 20:21:58.9780,-0.03,0.02,0.03
2020-08-12 20:21:59.0770,-0.06,-0.02,0.04
2020-08-12 20:21:59.1760,0.01,-0.02,0.03
2020-08-12 20:21:59.2760,0.01,-0.02,0.04
2020-08-12 20:21:59.3750,-0.01,-0.01,0.02
2020-08-12 20:21:59.4740,0.03,-0.04,0.0
2020-08-12 20:21:59.5730,0.1,-0.16,0.02
2020-08-12 20:21:59.6730,0.14,-0.38,-0.1
2020-08-12 20:21:59.7720,0.22,-0.15,0.06
2020-08-12 20:21:59.8710,0.6,-0.01,-0.01
2020-08-12 20:21:59.9700,0.63,0.19,-0.08
2020-08-12 20:22:00.0700,0.22,-0.16,-0.02
2020-08-12 20:22:00.1690,-0.14,-0.37,0.09
2020-08-12 20:22:00.2680,-0.66,-0.24,0.24
2020-08-12 20:22:00.3680,-0.96,-0.04,0.13
2020-08-12 20:22:00.4670,0.8,-0.09,-0.19
2020-08-12 20:22:00.5660,-0.41,-0.26,-0.02
2020-08-12 20:22:00.6650,-0.13,0.01,-0.02
2020-08-12 20:22:00.7650,0.03,-0.03,-0.02
2020-08-12 20:22:00.8640,-0.1,0.01,0.06
2020-08-12 20:22:00.9630,-0.03,-0.01,-0.02
2020-08-12 20:22:01.0620,-0.02,0.01,0.05
2020-08-12 20:22:01.1620,-0.03,-0.03,0.02
2020-08-12 20:22:01.2610,0.02,-0.01,0.02
2020-08-12 20:22:01.3600,-0.02,-0.02,0.02
2020-08-12 20:22:01.4600,0.01,-0.07,0.01
2020-08-12 20:22:01.5590,0.16,-0.26,-0.03
2020-08-12 20:22:01.6580,0.24,-0.28,-0.02
2020-08-12 20:22:01.7570,0.19,-0.12,0.06
2020-08-12 20:22:01.8570,0.64,0.15,-0.19
2020-08-12 20:22:01.9560,0.53,0.08,-0.13
2020-08-12 20:22:02.0550,0.21,-0.22,-0.02
2020-08-12 20:22:02.1540,-0.22,-0.36,0.09
2020-08-12 20:22:02.2540,-0.79,-0.22,0.25
2020-08-12 20:22:02.3530,-0.98,-0.06,0.08
2020-08-12 20:22:02.4520,-0.06,-0.51,-0.27
2020-08-12 20:22:02.5510,-0.32,-0.09,0.3
2020-08-12 20:22:02.6510,-0.01,-0.01,0.01
2020-08-12 20:22:02.7500,0.0,-0.06,-0.02
2020-08-12 20:22:02.8490,-0.02,0.01,0.0
2020-08-12 20:22:02.9480,-0.02,0.02,0.01
2020-08-12 20:22:03.0480,0.01,-0.02,0.01
2020-08-12 20:22:03.1470,0.03,-0.01,-0.02
2020-08-12 20:22:03.2460,0.02,-0.0,0.01
2020-08-12 20:22:03.3460,0.03,-0.01,-0.01
2020-08-12 20:22:03.4450,0.06,-0.05,-0.02
2020-08-12 20:22:03.5440,0.16,-0.23,0.02
2020-08-12 20:22:03.6430,0.15,-0.2,-0.06
2020-08-12 20:22:03.7430,0.18,-0.28,0.09
2020-08-12 20:22:03.8420,0.71,0.03,-0.13
2020-08-12 20:22:03.9410,0.66,0.14,-0.08
2020-08-12 20:22:04.0410,0.21,-0.25,0.0
2020-08-12 20:22:04.1400,-0.28,-0.32,0.21
2020-08-12 20:22:04.2390,-0.68,-0.15,0.27
2020-08-12 20:22:04.3380,-0.99,-0.04,0.2
2020-08-12 20:22:04.4370,0.38,-0.5,-0.7
2020-08-12 20:22:04.5370,-0.56,-0.23,0.34
2020-08-12 20:22:04.6360,-0.04,0.04,0.03
2020-08-12 20:22:04.7350,-0.0,-0.01,0.01
2020-08-12 20:22:04.8340,-0.0,-0.02,-0.04
2020-08-12 20:22:04.9340,-0.11,0.02,0.01
2020-08-12 20:22:05.0330,-0.01,0.0,0.01
2020-08-12 20:22:05.1330,0.01,-0.01,0.03
2020-08-12 20:22:05.2320,-0.02,-0.0,0.01
2020-08-12 20:22:05.3310,0.02,-0.03,0.0
2020-08-12 20:22:05.4300,0.05,-0.03,0.03
2020-08-12 20:22:05.5290,0.14,-0.25,-0.02
2020-08-12 20:22:05.6290,0.29,-0.31,-0.07
2020-08-12 20:22:05.7280,0.24,-0.12,0.09
2020-08-12 20:22:05.8270,0.7,0.23,-0.26
2020-08-12 20:22:05.9270,0.52,0.06,-0.14
2020-08-12 20:22:06.0260,0.09,-0.26,0.08
2020-08-12 20:22:06.1250,-0.25,-0.32,0.18
2020-08-12 20:22:06.2240,-0.66,-0.13,0.14
2020-08-12 20:22:06.3240,-0.84,-0.04,0.07
2020-08-12 20:22:06.4230,1.13,-0.09,-0.26
2020-08-12 20:22:06.5220,-0.64,-0.05,0.18
2020-08-12 20:22:06.6210,0.0,-0.02,-0.01
2020-08-12 20:22:06.7210,0.11,0.02,0.01
2020-08-12 20:22:06.8200,0.02,0.03,0.02
2020-08-12 20:22:06.9190,-0.04,-0.01,0.02
2020-08-12 20:22:07.0180,-0.03,-0.0,-0.0
2020-08-12 20:22:07.1180,-0.01,-0.01,0.02
2020-08-12 20:22:07.2170,0.0,-0.02,0.05
2020-08-12 20:22:07.3160,0.02,-0.02,-0.01
2020-08-12 20:22:07.4160,0.09,-0.04,0.05
2020-08-12 20:22:07.5150,0.16,-0.38,-0.1
2020-08-12 20:22:07.6140,0.21,-0.14,-0.06
2020-08-12 20:22:07.7130,0.17,0.01,0.16
2020-08-12 20:22:07.8130,0.68,0.18,-0.16
2020-08-12 20:22:07.9120,0.33,-0.11,-0.07
2020-08-12 20:22:08.0110,-0.01,-0.24,0.12
2020-08-12 20:22:08.1100,-0.3,-0.26,0.21
2020-08-12 20:22:08.2100,-0.79,-0.13,0.18
2020-08-12 20:22:08.3090,-0.87,-0.01,0.1
2020-08-12 20:22:08.4080,-0.74,-0.31,0.36
2020-08-12 20:22:08.5070,0.04,0.03,-0.01
2020-08-12 20:22:08.6070,-0.03,-0.0,0.04
2020-08-12 20:22:08.7060,-0.03,-0.02,-0.01
2020-08-12 20:22:08.8050,-0.01,0.02,0.03
2020-08-12 20:22:08.9040,0.01,-0.01,0.02
2020-08-12 20:22:09.0040,0.02,-0.02,0.03
2020-08-12 20:22:09.1030,0.03,-0.01,0.01
2020-08-12 20:22:09.2020,0.02,-0.04,-0.02
2020-08-12 20:22:09.3020,-0.03,-0.07,0.0
2020-08-12 20:22:09.4010,0.14,-0.37,-0.03
2020-08-12 20:22:09.5000,0.27,-0.18,0.03
2020-08-12 20:22:09.5990,0.39,0.1,0.19
2020-08-12 20:22:09.6990,0.73,0.15,-0.03
2020-08-12 20:22:09.7980,0.41,-0.08,-0.05
2020-08-12 20:22:09.8970,-0.04,-0.28,0.03
2020-08-12 20:22:09.9960,-0.44,-0.34,0.11
2020-08-12 20:22:10.0960,-1.12,-0.09,0.19
2020-08-12 20:22:10.1950,-0.69,-0.12,-0.09
2020-08-12 20:22:10.2940,-0.57,-0.31,-0.04
2020-08-12 20:22:10.3940,-0.11,0.01,-0.0
2020-08-12 20:22:10.4930,0.03,0.01,0.0
2020-08-12 20:22:10.5920,-0.05,0.02,0.04
2020-08-12 20:22:10.6910,-0.04,-0.0,0.01
2020-08-12 20:22:10.7910,-0.01,0.0,0.04
2020-08-12 20:22:10.8900,0.03,-0.01,0.02
2020-08-12 20:22:10.9890,0.03,-0.03,0.02
2020-08-12 20:22:11.0880,0.04,-0.06,0.0
2020-08-12 20:22:11.1880,0.04,-0.04,-0.03
2020-08-12 20:22:11.2870,0.2,-0.37,0.02
2020-08-12 20:22:11.3860,0.3,-0.27,0.04
2020-08-12 20:22:11.4850,0.24,0.03,0.21
2020-08-12 20:22:11.5850,0.72,0.29,-0.14
2020-08-12 20:22:11.6840,0.31,-0.13,-0.16
2020-08-12 20:22:11.7830,-0.17,-0.47,0.11
2020-08-12 20:22:11.8820,-0.64,-0.39,0.24
2020-08-12 20:22:11.9820,-1.0,-0.04,0.22
2020-08-12 20:22:12.0810,0.83,-0.06,-0.46
2020-08-12 20:22:12.1800,-0.26,-0.0,-0.0
2020-08-12 20:22:12.2800,-0.08,-0.02,0.05
2020-08-12 20:22:12.3790,0.06,-0.05,-0.01
2020-08-12 20:22:12.4780,-0.05,0.03,0.04
2020-08-12 20:22:12.5770,-0.03,0.03,0.01
2020-08-12 20:22:12.6770,-0.05,-0.02,0.02
2020-08-12 20:22:12.7760,-0.08,-0.02,0.01
2020-08-12 20:22:12.8750,-0.01,-0.02,0.0
2020-08-12 20:22:12.9740,0.03,-0.03,-0.01
2020-08-12 20:22:13.0740,0.04,-0.06,-0.01
2020-08-12 20:22:13.1730,0.26,-0.33,0.03
2020-08-12 20:22:13.2720,0.19,-0.29,0.04
2020-08-12 20:22:13.3720,0.19,-0.04,0.14
2020-08-12 20:22:13.4710,0.69,0.22,-0.13
2020-08-12 20:22:13.5700,0.35,-0.09,-0.18
2020-08-12 20:22:13.6690,-0.09,-0.31,0.07
2020-08-12 20:22:13.7690,-0.39,-0.35,0.16
2020-08-12 20:22:13.8680,-0.84,-0.05,0.23
2020-08-12 20:22:13.9670,-0.77,-0.02,0.13
2020-08-12 20:22:14.0660,-0.18,-0.49,0.44
2020-08-12 20:22:14.1660,0.1,0.02,-0.04
2020-08-12 20:22:14.2650,-0.07,0.01,0.11
2020-08-12 20:22:14.3640,-0.08,0.01,0.05
2020-08-12 20:22:14.4630,-0.05,-0.0,-0.0
2020-08-12 20:22:14.5630,-0.02,0.0,0.01
2020-08-12 20:22:14.6620,0.01,0.0,0.05
2020-08-12 20:22:14.7610,0.04,-0.02,0.01
2020-08-12 20:22:14.8610,-0.01,-0.02,0.01
2020-08-12 20:22:14.9600,0.04,-0.06,-0.04
2020-08-12 20:22:15.0590,0.11,-0.19,-0.03
2020-08-12 20:22:15.1580,0.27,-0.25,-0.05
2020-08-12 20:22:15.2580,0.19,-0.21,0.05
2020-08-12 20:22:15.3570,0.75,0.19,-0.19
2020-08-12 20:22:15.4560,0.56,0.05,-0.13
2020-08-12 20:22:15.5560,0.09,-0.19,0.02
2020-08-12 20:22:15.6550,-0.25,-0.33,0.06
2020-08-12 20:22:15.7540,-0.76,-0.19,0.23
2020-08-12 20:22:15.8530,-0.93,-0.01,0.25
2020-08-12 20:22:15.9520,0.04,-0.43,-0.27
2020-08-12 20:22:16.0520,-0.18,-0.01,0.3
2020-08-12 20:22:16.1510,-0.17,0.02,0.06
2020-08-12 20:22:16.2500,-0.02,-0.02,0.02
2020-08-12 20:22:16.3500,-0.05,0.0,0.0
2020-08-12 20:22:16.4490,-0.05,-0.02,0.03
2020-08-12 20:22:16.5480,-0.0,-0.01,0.03
2020-08-12 20:22:16.6470,-0.01,-0.02,0.02
2020-08-12 20:22:16.7470,-0.0,-0.02,-0.01
2020-08-12 20:22:16.8460,0.02,-0.02,0.0
2020-08-12 20:22:16.9450,0.03,-0.1,-0.02
2020-08-12 20:22:17.0440,0.22,-0.31,0.0
2020-08-12 20:22:17.1440,0.26,-0.35,-0.01
2020-08-12 20:22:17.2430,0.24,0.12,0.32
2020-08-12 20:22:17.3420,0.74,0.26,-0.17
2020-08-12 20:22:17.4410,0.27,-0.18,-0.1
2020-08-12 20:22:17.5410,-0.21,-0.34,0.13
2020-08-12 20:22:17.6400,-0.68,-0.21,0.29
2020-08-12 20:22:17.7390,-0.99,-0.05,0.21
2020-08-12 20:22:17.8390,0.9,-0.18,-0.42
2020-08-12 20:22:17.9380,-0.46,-0.06,0.01
2020-08-12 20:22:18.0370,-0.08,-0.03,0.0
2020-08-12 20:22:18.1360,0.07,-0.03,0.01
2020-08-12 20:22:18.2360,-0.04,0.01,0.02
2020-08-12 20:22:18.3350,-0.0,-0.03,0.02
2020-08-12 20:22:18.4340,-0.02,0.02,0.01
2020-08-12 20:22:18.5330,-0.01,0.01,0.02
2020-08-12 20:22:18.6330,-0.05,-0.01,0.03
2020-08-12 20:22:18.7320,-0.06,-0.05,-0.01
2020-08-12 20:22:18.8310,0.01,-0.06,0.0
2020-08-12 20:22:18.9310,0.06,-0.15,0.04
2020-08-12 20:22:19.0300,0.15,-0.27,0.01
2020-08-12 20:22:19.1290,0.02,-0.13,0.05
2020-08-12 20:22:19.2280,0.51,-0.06,0.01
2020-08-12 20:22:19.3280,0.57,0.11,-0.03
2020-08-12 20:22:19.4270,0.17,-0.16,0.04
2020-08-12 20:22:19.5260,-0.06,-0.22,0.06
2020-08-12 20:22:19.6250,-0.39,-0.26,0.13
2020-08-12 20:22:19.7250,-0.84,-0.11,0.2
2020-08-12 20:22:19.8240,-0.75,-0.08,-0.08
2020-08-12 20:22:19.9230,-0.26,-0.26,-0.24
2020-08-12 20:22:20.0230,-0.02,0.03,0.02
2020-08-12 20:22:20.1220,-0.04,-0.02,0.03
2020-08-12 20:22:20.2210,-0.04,0.03,0.05
2020-08-12 20:22:20.3200,-0.04,0.01,0.05
2020-08-12 20:22:20.4200,-0.02,-0.03,0.03
2020-08-12 20:22:20.5190,-0.0,-0.02,0.03
2020-08-12 20:22:20.6180,0.01,-0.04,-0.01
2020-08-12 20:22:20.7170,-0.03,-0.03,0.06
2020-08-12 20:22:20.8170,0.02,-0.05,-0.01
2020-08-12 20:22:20.9160,0.11,-0.2,0.01
2020-08-12 20:22:21.0150,0.28,-0.29,-0.05
2020-08-12 20:22:21.1140,0.12,-0.1,0.05
2020-08-12 20:22:21.2140,0.75,0.08,-0.17
2020-08-12 20:22:21.3130,0.56,0.06,-0.06
2020-08-12 20:22:21.4120,0.18,-0.22,-0.01
2020-08-12 20:22:21.5120,-0.27,-0.33,0.12
2020-08-12 20:22:21.6110,-0.74,-0.16,0.23
2020-08-12 20:22:21.7100,-0.94,-0.04,0.1
2020-08-12 20:22:21.8090,-0.33,-0.53,-0.37
2020-08-12 20:22:21.9080,-0.26,-0.02,0.33
2020-08-12 20:22:22.0080,-0.05,-0.01,0.07
2020-08-12 20:22:22.1070,-0.02,-0.02,0.01
2020-08-12 20:22:22.2060,-0.05,-0.0,0.01
2020-08-12 20:22:22.3060,-0.02,-0.02,-0.02
2020-08-12 20:22:22.4050,0.01,-0.01,0.01
2020-08-12 20:22:22.5040,-0.03,-0.0,0.04
2020-08-12 20:22:22.6030,0.01,0.01,-0.01
2020-08-12 20:22:22.7030,0.01,-0.02,0.01
2020-08-12 20:22:22.8020,0.0,-0.05,0.0
2020-08-12 20:22:22.9010,0.2,-0.19,-0.04
2020-08-12 20:22:23.0000,0.22,-0.19,-0.03
2020-08-12 20:22:23.1000,0.13,-0.2,0.11
2020-08-12 20:22:23.1990,0.76,0.11,-0.22
2020-08-12 20:22:23.2980,0.6,0.1,-0.08
2020-08-12 20:22:23.3980,0.2,-0.21,0.01
2020-08-12 20:22:23.4970,-0.22,-0.37,0.1
2020-08-12 20:22:23.5960,-0.81,-0.17,0.24
2020-08-12 20:22:23.6950,-0.91,-0.05,0.12
2020-08-12 20:22:23.7950,-0.94,-0.45,0.03
2020-08-12 20:22:23.8940,-0.05,0.02,0.09
2020-08-12 20:22:23.9930,-0.06,0.02,0.07
2020-08-12 20:22:24.0920,-0.07,0.0,0.05
2020-08-12 20:22:24.1920,-0.08,-0.0,0.0
2020-08-12 20:22:24.2910,0.0,0.0,0.02
2020-08-12 20:22:24.3900,-0.0,-0.02,-0.02
2020-08-12 20:22:24.4900,0.0,-0.0,0.01
2020-08-12 20:22:24.5890,-0.0,-0.03,-0.0
2020-08-12 20:22:24.6880,0.01,-0.05,0.01
2020-08-12 20:22:24.7870,0.06,-0.09,0.03
2020-08-12 20:22:24.8870,0.15,-0.21,-0.0
2020-08-12 20:22:24.9860,0.1,-0.21,0.09
2020-08-12 20:22:25.0850,0.52,-0.02,0.18
2020-08-12 20:22:25.1840,0.62,0.13,-0.06
2020-08-12 20:22:25.2840,0.32,-0.15,-0.14
2020-08-12 20:22:25.3830,-0.12,-0.3,0.06
2020-08-12 20:22:25.4820,-0.53,-0.32,0.1
2020-08-12 20:22:25.5810,-1.04,-0.08,0.11
2020-08-12 20:22:25.6810,0.8,-0.11,-0.01
2020-08-12 20:22:25.7800,-0.17,-0.14,-0.01
2020-08-12 20:22:25.8790,0.01,-0.03,-0.01
2020-08-12 20:22:25.9790,0.03,-0.01,0.0
2020-08-12 20:22:26.0780,-0.06,0.01,0.07
2020-08-12 20:22:26.1770,-0.02,-0.02,0.01
2020-08-12 20:22:26.2760,-0.0,-0.03,0.03
2020-08-12 20:22:26.3760,0.09,-0.0,0.06
2020-08-12 20:22:26.4750,-0.01,-0.01,0.01
2020-08-12 20:22:26.5740,-0.03,-0.03,-0.0
2020-08-12 20:22:26.6730,0.03,-0.05,0.02
2020-08-12 20:22:26.7730,0.1,-0.18,0.01
2020-08-12 20:22:26.8720,0.31,-0.34,-0.04
2020-08-12 20:22:26.9710,0.16,-0.2,0.1
2020-08-12 20:22:27.0700,0.72,0.13,-0.18
2020-08-12 20:22:27.1700,0.5,0.07,-0.11
2020-08-12 20:22:27.2690,0.11,-0.21,0.05
2020-08-12 20:22:27.3680,-0.31,-0.3,0.1
2020-08-12 20:22:27.4680,-0.76,-0.15,0.31
2020-08-12 20:22:27.5670,-0.94,-0.04,0.16
2020-08-12 20:22:27.6660,-0.81,-0.47,0.04
2020-08-12 20:22:27.7650,0.0,-0.0,0.09
2020-08-12 20:22:27.8650,-0.13,0.0,0.06
2020-08-12 20:22:27.9640,-0.07,0.0,0.03
2020-08-12 20:22:28.0630,-0.04,0.0,-0.02
2020-08-12 20:22:28.1620,-0.02,0.0,0.02
2020-08-12 20:22:28.2620,-0.01,-0.01,0.01
2020-08-12 20:22:28.3610,-0.01,-0.02,-0.01
2020-08-12 20:22:28.4600,-0.01,-0.04,0.0
2020-08-12 20:22:28.5590,0.06,-0.07,0.09
2020-08-12 20:22:28.6590,0.13,-0.27,-0.04
2020-08-12 20:22:28.7580,0.26,-0.17,0.07
2020-08-12 20:22:28.8570,0.17,-0.04,0.16
2020-08-12 20:22:28.9560,0.65,0.21,-0.04
2020-08-12 20:22:29.0560,0.38,-0.02,-0.16
2020-08-12 20:22:29.1550,0.02,-0.24,-0.05
2020-08-12 20:22:29.2540,-0.4,-0.32,0.16
2020-08-12 20:22:29.3540,-0.82,-0.12,0.12
2020-08-12 20:22:29.4530,-0.82,-0.11,0.07
2020-08-12 20:22:29.5520,-0.25,-0.47,-0.0
2020-08-12 20:22:29.6520,0.1,0.1,0.05
2020-08-12 20:22:29.7510,-0.0,0.0,0.05
2020-08-12 20:22:29.8500,-0.07,0.03,0.05
2020-08-12 20:22:29.9490,-0.04,-0.01,0.01
2020-08-12 20:22:30.0480,-0.02,-0.01,0.05
2020-08-12 20:22:30.1480,0.01,0.01,0.01
2020-08-12 20:22:30.2470,-0.15,-0.04,-0.02
2020-08-12 20:22:30.3460,-0.09,-0.03,0.01
2020-08-12 20:22:30.4460,-0.01,-0.03,0.01
2020-08-12 20:22:30.5450,-0.01,-0.03,0.0
2020-08-12 20:22:30.6440,0.11,-0.24,-0.03
2020-08-12 20:22:30.7430,0.34,-0.13,-0.06
2020-08-12 20:22:30.8430,0.13,-0.22,0.1
2020-08-12 20:22:30.9420,0.66,0.07,-0.15
2020-08-12 20:22:31.0410,0.49,0.09,-0.11
2020-08-12 20:22:31.1400,0.15,-0.18,0.04
2020-08-12 20:22:31.2400,-0.07,-0.22,0.18
2020-08-12 20:22:31.3390,-0.48,-0.17,0.21
2020-08-12 20:22:31.4380,-0.84,-0.05,0.11
2020-08-12 20:22:31.5370,0.17,-0.12,-0.25
2020-08-12 20:22:31.6370,-0.52,-0.06,-0.07
2020-08-12 20:22:31.7360,-0.02,-0.03,0.01
2020-08-12 20:22:31.8350,-0.02,-0.05,0.02
2020-08-12 20:22:31.9350,-0.04,0.01,0.05
2020-08-12 20:22:32.0340,0.01,0.01,0.02
2020-08-12 20:22:32.1330,0.01,-0.01,0.02
2020-08-12 20:22:32.2320,-0.01,-0.01,-0.01
2020-08-12 20:22:32.3320,0.06,-0.0,0.0
2020-08-12 20:22:32.4310,0.03,0.0,0.01
2020-08-12 20:22:32.5300,0.01,-0.04,-0.01
2020-08-12 20:22:32.6290,0.14,-0.29,-0.05
2020-08-12 20:22:32.7290,0.45,-0.24,-0.0
2020-08-12 20:22:32.8280,0.18,-0.1,0.05
2020-08-12 20:22:32.9270,0.7,0.24,-0.12
2020-08-12 20:22:33.0270,0.45,-0.02,-0.17
2020-08-12 20:22:33.1260,-0.03,-0.27,0.08
2020-08-12 20:22:33.2250,-0.56,-0.34,0.18
2020-08-12 20:22:33.3240,-0.92,-0.09,0.06
2020-08-12 20:22:33.4230,-0.08,-0.09,0.13
2020-08-12 20:22:33.5230,-0.31,-0.1,-0.22
2020-08-12 20:22:33.6220,-0.06,0.01,0.05
2020-08-12 20:22:33.7210,0.02,-0.02,-0.0
2020-08-12 20:22:33.8210,-0.04,0.01,0.03
2020-08-12 20:22:33.9200,-0.05,-0.01,0.01
2020-08-12 20:22:34.0190,-0.02,-0.01,0.03
2020-08-12 20:22:34.1180,0.01,-0.01,0.02
2020-08-12 20:22:34.2180,0.01,-0.01,0.01
2020-08-12 20:22:34.3170,0.02,-0.02,-0.02
2020-08-12 20:22:34.4160,0.03,-0.04,-0.01
2020-08-12 20:22:34.5150,0.23,-0.33,-0.04
2020-08-12 20:22:34.6150,0.41,-0.27,-0.01
2020-08-12 20:22:34.7140,0.16,0.04,0.21
2020-08-12 20:22:34.8130,0.7,0.22,-0.12
2020-08-12 20:22:34.9130,0.34,-0.14,-0.1
2020-08-12 20:22:35.0120,-0.16,-0.32,0.2
2020-08-12 20:22:35.1110,-0.47,-0.3,0.14
2020-08-12 20:22:35.2100,-0.79,-0.08,0.15
2020-08-12 20:22:35.3090,-0.91,0.02,0.17
2020-08-12 20:22:35.4090,-0.08,-0.46,0.18
2020-08-12 20:22:35.5080,0.12,0.1,0.05
2020-08-12 20:22:35.6080,-0.04,0.03,0.04
2020-08-12 20:22:35.7070,-0.03,0.02,0.06
2020-08-12 20:22:35.8060,-0.03,-0.01,0.01
2020-08-12 20:22:35.9050,-0.01,-0.0,0.02
2020-08-12 20:22:36.0050,0.01,-0.01,0.0
2020-08-12 20:22:36.1040,0.02,-0.01,0.0
2020-08-12 20:22:36.2030,0.02,-0.03,-0.01
2020-08-12 20:22:36.3020,0.06,-0.05,0.07
2020-08-12 20:22:36.4020,0.2,-0.39,-0.04
2020-08-12 20:22:36.5010,0.3,-0.26,0.08
2020-08-12 20:22:36.6000,0.62,0.04,0.11
2020-08-12 20:22:36.6990,0.64,0.29,-0.1
2020-08-12 20:22:36.7990,0.24,-0.15,-0.09
2020-08-12 20:22:36.8980,-0.14,-0.3,0.13
2020-08-12 20:22:36.9970,-0.48,-0.37,0.12
2020-08-12 20:22:37.0960,-0.92,-0.07,0.21
2020-08-12 20:22:37.1960,-0.42,-0.11,-0.26
2020-08-12 20:22:37.2950,-0.5,-0.53,-0.38
2020-08-12 20:22:37.3940,-0.07,0.04,0.02
2020-08-12 20:22:37.4930,-0.01,-0.02,0.0
2020-08-12 20:22:37.5930,-0.1,-0.0,0.01
2020-08-12 20:22:37.6920,0.01,0.01,0.01
2020-08-12 20:22:37.7910,-0.05,-0.01,0.05
2020-08-12 20:22:37.8910,-0.01,0.01,0.02
2020-08-12 20:22:37.9900,0.01,-0.01,0.01
2020-08-12 20:22:38.0890,0.02,-0.0,-0.0
2020-08-12 20:22:38.1880,0.07,-0.02,-0.01
2020-08-12 20:22:38.2880,0.11,-0.22,-0.07
2020-08-12 20:22:38.3870,0.5,-0.42,-0.05
2020-08-12 20:22:38.4860,0.2,-0.13,0.05
2020-08-12 20:22:38.5860,0.85,0.23,-0.13
2020-08-12 20:22:38.6850,0.29,-0.18,-0.03
2020-08-12 20:22:38.7840,-0.24,-0.23,0.28
2020-08-12 20:22:38.8830,-0.42,-0.24,0.09
2020-08-12 20:22:38.9830,-0.84,-0.08,0.11
2020-08-12 20:22:39.0820,-0.54,-0.09,-0.22
2020-08-12 20:22:39.1810,-0.26,-0.08,-0.05
2020-08-12 20:22:39.2800,-0.09,-0.05,-0.03
2020-08-12 20:22:39.3800,-0.01,-0.01,0.02
2020-08-12 20:22:39.4790,-0.06,0.0,0.03
2020-08-12 20:22:39.5780,-0.03,0.0,0.02
2020-08-12 20:22:39.6770,0.01,0.02,0.04
2020-08-12 20:22:39.7770,0.09,-0.01,0.01
2020-08-12 20:22:39.8760,0.06,-0.02,-0.01
2020-08-12 20:22:39.9750,0.05,-0.03,0.01
2020-08-12 20:22:40.0740,0.04,-0.06,0.01
2020-08-12 20:22:40.1740,0.18,-0.26,-0.07
2020-08-12 20:22:40.2730,0.34,-0.35,0.04
2020-08-12 20:22:40.3720,0.19,-0.07,0.19
2020-08-12 20:22:40.4720,0.77,0.29,-0.14
2020-08-12 20:22:40.5710,0.36,-0.11,-0.13
2020-08-12 20:22:40.6700,-0.17,-0.4,0.13
2020-08-12 20:22:40.7690,-0.65,-0.26,0.26
2020-08-12 20:22:40.8690,-0.88,-0.06,0.16
2020-08-12 20:22:40.9680,0.92,-0.24,-0.51
2020-08-12 20:22:41.0670,-0.34,0.06,0.24
2020-08-12 20:22:41.1660,-0.05,-0.03,0.05
2020-08-12 20:22:41.2660,-0.04,-0.02,0.01
2020-08-12 20:22:41.3650,-0.05,0.02,0.0
2020-08-12 20:22:41.4640,-0.01,-0.01,-0.01
2020-08-12 20:22:41.5630,-0.01,-0.01,0.02
2020-08-12 20:22:41.6630,0.02,-0.02,0.01
2020-08-12 20:22:41.7620,0.02,0.02,0.03
2020-08-12 20:22:41.8610,0.02,-0.02,-0.01
2020-08-12 20:22:41.9610,0.01,-0.04,0.05
2020-08-12 20:22:42.0600,0.21,-0.27,-0.07
2020-08-12 20:22:42.1590,0.31,-0.28,-0.03
2020-08-12 20:22:42.2580,0.18,-0.28,0.11
2020-08-12 20:22:42.3580,0.85,0.28,-0.12
2020-08-12 20:22:42.4570,0.44,-0.05,-0.12
2020-08-12 20:22:42.5560,-0.1,-0.31,0.14
2020-08-12 20:22:42.6550,-0.52,-0.31,0.22
2020-08-12 20:22:42.7550,-0.99,-0.09,0.21
2020-08-12 20:22:42.8540,-0.51,-0.11,-0.16
2020-08-12 20:22:42.9530,-0.25,-0.06,-0.09
2020-08-12 20:22:43.0530,-0.11,-0.09,0.04
2020-08-12 20:22:43.1520,-0.12,-0.02,-0.02
2020-08-12 20:22:43.2510,-0.09,0.01,0.01
2020-08-12 20:22:43.3500,-0.05,-0.02,0.02
2020-08-12 20:22:43.4490,-0.03,0.01,0.0
2020-08-12 20:22:43.5490,-0.0,-0.0,0.02
2020-08-12 20:22:43.6480,-0.01,0.01,0.0
2020-08-12 20:22:43.7470,0.06,-0.05,0.03
2020-08-12 20:22:43.8460,0.04,-0.09,-0.02
2020-08-12 20:22:43.9460,0.18,-0.3,-0.07
2020-08-12 20:22:44.0450,0.45,-0.29,-0.01
2020-08-12 20:22:44.1440,0.46,0.07,0.29
2020-08-12 20:22:44.2440,0.73,0.27,-0.18
2020-08-12 20:22:44.3430,0.21,-0.17,-0.06
2020-08-12 20:22:44.4420,-0.27,-0.36,0.23
2020-08-12 20:22:44.5420,-0.75,-0.16,0.21
2020-08-12 20:22:44.6410,-0.88,-0.04,0.01
2020-08-12 20:22:44.7400,0.99,-0.5,-0.43
2020-08-12 20:22:44.8390,-0.13,-0.11,0.32
2020-08-12 20:22:44.9380,-0.04,-0.03,-0.03
2020-08-12 20:22:45.0380,0.01,-0.0,0.02
2020-08-12 20:22:45.1370,0.05,0.05,0.03
2020-08-12 20:22:45.2360,0.09,0.0,-0.0
2020-08-12 20:22:45.3360,-0.02,-0.02,-0.04
2020-08-12 20:22:45.4350,0.0,-0.03,-0.02
2020-08-12 20:22:45.5340,0.01,-0.03,-0.02
2020-08-12 20:22:45.6330,0.04,-0.05,0.01
2020-08-12 20:22:45.7330,0.13,-0.26,0.02
2020-08-12 20:22:45.8320,0.35,-0.37,-0.02
2020-08-12 20:22:45.9310,0.2,-0.06,0.04
2020-08-12 20:22:46.0300,0.63,0.23,-0.08
2020-08-12 20:22:46.1300,0.4,0.02,-0.08
2020-08-12 20:22:46.2290,0.03,-0.2,0.0
2020-08-12 20:22:46.3280,-0.26,-0.3,0.13
2020-08-12 20:22:46.4280,-0.68,-0.12,0.16
2020-08-12 20:22:46.5270,-0.92,-0.03,0.11
2020-08-12 20:22:46.6260,-0.6,-0.3,0.26
2020-08-12 20:22:46.7250,-0.08,0.13,0.13
2020-08-12 20:22:46.8250,-0.06,-0.02,0.06
2020-08-12 20:22:46.9240,0.04,0.02,0.02
2020-08-12 20:22:47.0230,-0.05,-0.0,-0.01
2020-08-12 20:22:47.1220,-0.13,-0.06,0.01
2020-08-12 20:22:47.2220,-0.07,-0.04,0.02
2020-08-12 20:22:47.3210,0.05,-0.03,-0.01
2020-08-12 20:22:47.4200,0.01,-0.01,-0.0
2020-08-12 20:22:47.5190,0.0,-0.05,-0.0
2020-08-12 20:22:47.6190,0.12,-0.15,-0.04
2020-08-12 20:22:47.7180,0.11,-0.39,-0.02
2020-08-12 20:22:47.8170,0.24,-0.21,0.04
2020-08-12 20:22:47.9170,0.73,0.07,-0.08
2020-08-12 20:22:48.0160,0.56,0.1,-0.1
2020-08-12 20:22:48.1150,0.16,-0.17,-0.01
2020-08-12 20:22:48.2140,-0.3,-0.41,0.08
2020-08-12 20:22:48.3140,-0.79,-0.15,0.23
2020-08-12 20:22:48.4130,-0.81,-0.07,0.08
2020-08-12 20:22:48.5120,-0.42,-0.45,0.26
2020-08-12 20:22:48.6120,-0.05,0.06,0.05
2020-08-12 20:22:48.7110,-0.06,0.01,0.04
2020-08-12 20:22:48.8100,-0.08,0.01,0.04
2020-08-12 20:22:48.9090,0.01,-0.01,-0.02
2020-08-12 20:22:49.0090,-0.0,-0.01,0.03
2020-08-12 20:22:49.1080,0.01,-0.03,0.02
2020-08-12 20:22:49.2070,-0.02,0.01,0.02
2020-08-12 20:22:49.3060,-0.05,-0.01,0.0
2020-08-12 20:22:49.4050,-0.02,-0.02,0.01
2020-08-12 20:22:49.5050,0.04,-0.08,-0.0
2020-08-12 20:22:49.6040,0.25,-0.33,0.03
2020-08-12 20:22:49.7030,0.38,-0.21,0.01
2020-08-12 20:22:49.8030,0.35,0.11,0.17
2020-08-12 20:22:49.9020,0.65,0.32,-0.1
2020-08-12 20:22:50.0010,0.17,-0.21,-0.06
2020-08-12 20:22:50.1000,-0.12,-0.28,0.09
2020-08-12 20:22:50.2000,-0.61,-0.23,0.13
2020-08-12 20:22:50.2990,-0.88,-0.06,0.06
2020-08-12 20:22:50.3980,-0.11,-0.01,-0.02
2020-08-12 20:22:50.4980,-0.19,-0.13,-0.12
2020-08-12 20:22:50.5970,-0.06,-0.02,-0.02
2020-08-12 20:22:50.6960,0.04,0.01,0.02
2020-08-12 20:22:50.7950,-0.06,-0.01,0.02
2020-08-12 20:22:50.8950,0.0,-0.01,-0.0
2020-08-12 20:22:50.9940,0.03,0.01,0.04
2020-08-12 20:22:51.0930,0.03,-0.02,0.03
2020-08-12 20:22:51.1920,0.03,-0.02,-0.01
2020-08-12 20:22:51.2920,0.02,-0.01,-0.02
2020-08-12 20:22:51.3910,0.04,-0.07,0.01
2020-08-12 20:22:51.4900,0.15,-0.22,0.04
2020-08-12 20:22:51.5890,0.27,-0.21,-0.01
2020-08-12 20:22:51.6890,0.26,-0.18,0.07
2020-08-12 20:22:51.7880,0.81,0.11,-0.17
2020-08-12 20:22:51.8870,0.51,0.09,-0.16
2020-08-12 20:22:51.9860,0.05,-0.21,0.08
2020-08-12 20:22:52.0860,-0.46,-0.37,0.03
2020-08-12 20:22:52.1850,-0.8,-0.09,0.21
2020-08-12 20:22:52.2840,-0.82,-0.01,0.13
2020-08-12 20:22:52.3840,-0.69,-0.44,0.25
2020-08-12 20:22:52.4830,0.11,0.05,0.03
2020-08-12 20:22:52.5820,-0.04,0.0,-0.02
2020-08-12 20:22:52.6810,-0.03,-0.02,0.04
2020-08-12 20:22:52.7810,-0.01,0.01,0.03
2020-08-12 20:22:52.8800,-0.01,0.01,0.03
2020-08-12 20:22:52.9790,-0.04,-0.03,0.01
2020-08-12 20:22:53.0780,-0.02,-0.02,0.01
2020-08-12 20:22:53.1780,-0.02,-0.02,0.0
2020-08-12 20:22:53.2770,0.04,-0.03,-0.0
2020-08-12 20:22:53.3760,0.08,-0.14,-0.02
2020-08-12 20:22:53.4750,0.27,-0.32,0.0
2020-08-12 20:22:53.5750,0.17,-0.27,0.03
2020-08-12 20:22:53.6740,0.72,0.0,0.01
2020-08-12 20:22:53.7730,0.6,0.14,-0.1
2020-08-12 20:22:53.8730,0.21,-0.18,-0.02
2020-08-12 20:22:53.9720,-0.35,-0.44,0.12
2020-08-12 20:22:54.0710,-0.89,-0.16,0.28
2020-08-12 20:22:54.1700,-0.86,-0.03,0.13
2020-08-12 20:22:54.2700,-0.3,-0.55,0.34
2020-08-12 20:22:54.3690,0.06,0.05,-0.02
2020-08-12 20:22:54.4680,0.02,-0.0,-0.05
2020-08-12 20:22:54.5670,-0.02,0.03,0.07
2020-08-12 20:22:54.6670,0.01,-0.03,-0.01
2020-08-12 20:22:54.7660,-0.04,-0.01,0.04
2020-08-12 20:22:54.8650,-0.0,-0.01,0.03
2020-08-12 20:22:54.9650,0.01,-0.01,0.02
2020-08-12 20:22:55.0640,0.04,-0.05,-0.07
2020-08-12 20:22:55.1630,0.03,-0.05,-0.03
2020-08-12 20:22:55.2620,0.12,-0.18,0.0
2020-08-12 20:22:55.3620,0.24,-0.21,-0.05
2020-08-12 20:22:55.4610,0.25,-0.27,0.06
2020-08-12 20:22:55.5600,0.94,0.14,-0.16
2020-08-12 20:22:55.6590,0.54,0.12,-0.19
2020-08-12 20:22:55.7590,0.02,-0.31,-0.03
2020-08-12 20:22:55.8580,-0.63,-0.4,0.16
2020-08-12 20:22:55.9570,-0.92,-0.15,0.18
2020-08-12 20:22:56.0560,-0.0,-0.02,-0.16
2020-08-12 20:22:56.1560,0.01,-0.12,-0.18
2020-08-12 20:22:56.2550,-0.06,-0.02,0.0
2020-08-12 20:22:56.3540,-0.06,-0.02,0.0
2020-08-12 20:22:56.4530,-0.07,0.03,0.05
2020-08-12 20:22:56.5530,-0.04,-0.01,0.01
2020-08-12 20:22:56.6520,-0.03,-0.03,0.01
2020-08-12 20:22:56.7510,-0.02,-0.01,0.04
2020-08-12 20:22:56.8510,0.01,0.0,0.02
2020-08-12 20:22:56.9500,0.01,-0.02,0.02
2020-08-12 20:22:57.0490,0.06,-0.06,-0.03
2020-08-12 20:22:57.1480,0.06,-0.11,0.01
2020-08-12 20:22:57.2480,0.38,-0.33,0.07
2020-08-12 20:22:57.3470,0.08,-0.23,0.11
2020-08-12 20:22:57.4460,0.69,0.13,-0.09
2020-08-12 20:22:57.5450,0.56,0.15,-0.12
2020-08-12 20:22:57.6450,0.11,-0.22,0.02
2020-08-12 20:22:57.7440,-0.25,-0.31,0.03
2020-08-12 20:22:57.8430,-0.54,-0.1,0.27
2020-08-12 20:22:57.9430,-0.86,-0.07,0.21
2020-08-12 20:22:58.0420,0.81,-0.34,-0.81
2020-08-12 20:22:58.1410,-0.53,-0.04,0.42
2020-08-12 20:22:58.2400,-0.08,-0.01,0.03
2020-08-12 20:22:58.3400,-0.0,-0.01,0.03
2020-08-12 20:22:58.4390,0.01,0.0,-0.01
2020-08-12 20:22:58.5380,-0.01,-0.0,0.02
2020-08-12 20:22:58.6370,-0.02,-0.0,0.01
2020-08-12 20:22:58.7370,-0.01,-0.02,0.01
2020-08-12 20:22:58.8360,0.0,-0.01,0.01
2020-08-12 20:22:58.9350,0.02,-0.02,0.0
2020-08-12 20:22:59.0340,0.01,-0.03,-0.01
2020-08-12 20:22:59.1340,0.19,-0.22,0.0
2020-08-12 20:22:59.2330,0.32,-0.46,-0.13
2020-08-12 20:22:59.3320,0.29,-0.01,0.09
2020-08-12 20:22:59.4320,0.76,0.36,-0.23
2020-08-12 20:22:59.5310,0.43,-0.1,-0.12
2020-08-12 20:22:59.6300,-0.09,-0.39,0.2
2020-08-12 20:22:59.7290,-0.58,-0.26,0.22
2020-08-12 20:22:59.8290,-0.91,-0.07,0.13
2020-08-12 20:22:59.9280,0.81,-0.11,-0.35
2020-08-12 20:23:00.0270,-0.4,-0.08,0.04
2020-08-12 20:23:00.1260,0.0,-0.02,-0.01
2020-08-12 20:23:00.2260,0.08,-0.03,-0.02
2020-08-12 20:23:00.3250,-0.06,0.01,0.06
2020-08-12 20:23:00.4240,-0.01,-0.0,-0.01
2020-08-12 20:23:00.5240,-0.03,0.0,0.01
2020-08-12 20:23:00.6230,-0.04,-0.0,0.0
2020-08-12 20:23:00.7220,-0.04,-0.0,-0.01
2020-08-12 20:23:00.8210,-0.0,-0.02,0.01
2020-08-12 20:23:00.9210,0.03,-0.05,0.03
2020-08-12 20:23:01.0200,0.11,-0.11,0.07
2020-08-12 20:23:01.1190,0.24,-0.31,-0.08
2020-08-12 20:23:01.2180,0.25,-0.32,0.05
2020-08-12 20:23:01.3180,0.65,0.14,0.05
2020-08-12 20:23:01.4170,0.62,0.17,-0.07
2020-08-12 20:23:01.5160,0.22,-0.2,-0.11
2020-08-12 20:23:01.6150,-0.2,-0.39,0.12
2020-08-12 20:23:01.7150,-0.67,-0.18,0.19
2020-08-12 20:23:01.8140,-0.91,-0.05,0.18
2020-08-12 20:23:01.9130,-0.75,-0.38,0.28
2020-08-12 20:23:02.0130,-0.02,0.16,0.07
2020-08-12 20:23:02.1120,-0.06,0.01,0.08
2020-08-12 20:23:02.2110,0.02,-0.0,0.01
2020-08-12 20:23:02.3100,-0.01,0.01,-0.0
2020-08-12 20:23:02.4090,-0.01,-0.0,0.01
2020-08-12 20:23:02.5090,-0.0,-0.02,0.0
2020-08-12 20:23:02.6080,0.04,-0.03,0.01
2020-08-12 20:23:02.7070,0.06,-0.05,0.04
2020-08-12 20:23:02.8070,0.0,-0.05,-0.01
2020-08-12 20:23:02.9060,0.12,-0.27,0.02
2020-08-12 20:23:03.0050,0.3,-0.26,0.04
2020-08-12 20:23:03.1040,0.29,0.03,0.21
2020-08-12 20:23:03.2040,0.74,0.24,-0.09
2020-08-12 20:23:03.3030,0.25,-0.1,-0.06
2020-08-12 20:23:03.4020,-0.1,-0.31,0.07
2020-08-12 20:23:03.5010,-0.55,-0.34,0.11
2020-08-12 20:23:03.6010,-0.9,-0.07,0.15
2020-08-12 20:23:03.7000,0.36,-0.11,-0.32
2020-08-12 20:23:03.7990,-0.25,-0.08,0.14
2020-08-12 20:23:03.8990,0.06,-0.02,-0.08
2020-08-12 20:23:03.9980,-0.02,-0.0,0.02
2020-08-12 20:23:04.0970,-0.02,0.0,0.02
2020-08-12 20:23:04.1960,-0.02,-0.01,0.01
2020-08-12 20:23:04.2960,0.01,-0.01,0.03
2020-08-12 20:23:04.3950,0.0,-0.01,0.03
2020-08-12 20:23:04.4940,-0.01,-0.02,0.01
2020-08-12 20:23:04.5940,0.05,-0.03,-0.02
2020-08-12 20:23:04.6930,0.05,-0.05,-0.01
2020-08-12 20:23:04.7920,0.23,-0.22,0.05
2020-08-12 20:23:04.8910,0.41,-0.29,-0.02
2020-08-12 20:23:04.9900,0.24,-0.0,0.26
2020-08-12 20:23:05.0900,0.74,0.22,-0.18
2020-08-12 20:23:05.1890,0.26,-0.13,-0.07
2020-08-12 20:23:05.2880,-0.19,-0.33,0.15
2020-08-12 20:23:05.3880,-0.62,-0.19,0.23
2020-08-12 20:23:05.4870,-0.91,-0.04,0.14
2020-08-12 20:23:05.5860,1.44,-0.27,-0.43
2020-08-12 20:23:05.6850,-0.11,-0.06,0.37
2020-08-12 20:23:05.7850,-0.05,-0.02,0.03
2020-08-12 20:23:05.8840,-0.03,-0.02,-0.01
2020-08-12 20:23:05.9830,-0.05,0.0,0.03
2020-08-12 20:23:06.0820,-0.03,0.01,0.0
2020-08-12 20:23:06.1820,-0.03,-0.01,0.03
2020-08-12 20:23:06.2810,0.02,-0.02,0.01
2020-08-12 20:23:06.3800,0.01,-0.04,-0.01
2020-08-12 20:23:06.4790,0.05,-0.01,0.03
2020-08-12 20:23:06.5790,0.03,-0.06,-0.0
2020-08-12 20:23:06.6780,0.3,-0.38,-0.04
2020-08-12 20:23:06.7770,0.08,-0.25,0.02
2020-08-12 20:23:06.8760,0.67,0.1,-0.04
2020-08-12 20:23:06.9760,0.61,0.17,-0.02
2020-08-12 20:23:07.0750,0.17,-0.21,-0.04
2020-08-12 20:23:07.1740,-0.26,-0.26,0.11
2020-08-12 20:23:07.2740,-0.54,-0.16,0.19
2020-08-12 20:23:07.3730,-0.89,-0.02,0.15
2020-08-12 20:23:07.4720,1.42,-0.22,-0.42
2020-08-12 20:23:07.5710,-0.36,-0.13,0.52
2020-08-12 20:23:07.6710,-0.12,-0.01,0.05
2020-08-12 20:23:07.7700,-0.05,-0.01,0.06
2020-08-12 20:23:07.8690,-0.03,-0.01,0.0
2020-08-12 20:23:07.9680,-0.05,-0.03,-0.01
2020-08-12 20:23:08.0680,-0.04,0.0,-0.0
2020-08-12 20:23:08.1670,-0.03,-0.04,0.02
2020-08-12 20:23:08.2660,-0.01,-0.01,-0.05
2020-08-12 20:23:08.3660,0.0,-0.01,-0.01
2020-08-12 20:23:08.4650,0.01,-0.04,0.01
2020-08-12 20:23:08.5640,0.13,-0.24,-0.05
2020-08-12 20:23:08.6630,0.3,-0.35,-0.02
2020-08-12 20:23:08.7630,0.17,-0.04,0.09
2020-08-12 20:23:08.8620,0.7,0.16,-0.12
2020-08-12 20:23:08.9610,0.44,-0.01,-0.18
2020-08-12 20:23:09.0600,-0.06,-0.24,0.1
2020-08-12 20:23:09.1590,-0.36,-0.27,0.12
2020-08-12 20:23:09.2590,-0.71,-0.09,0.15
2020-08-12 20:23:09.3580,-0.9,-0.01,0.18
2020-08-12 20:23:09.4570,-0.26,-0.48,0.3
2020-08-12 20:23:09.5570,-0.27,0.01,0.12
2020-08-12 20:23:09.6560,-0.04,0.01,0.04
2020-08-12 20:23:09.7550,-0.01,0.01,0.01
2020-08-12 20:23:09.8540,-0.02,0.0,-0.01
2020-08-12 20:23:09.9540,-0.04,0.0,0.03
2020-08-12 20:23:10.0530,0.01,-0.01,0.01
2020-08-12 20:23:10.1520,-0.01,-0.01,0.01
2020-08-12 20:23:10.2520,0.01,0.0,0.04
2020-08-12 20:23:10.3510,-0.0,-0.05,-0.02
2020-08-12 20:23:10.4500,0.04,-0.11,0.05
2020-08-12 20:23:10.5490,0.29,-0.29,-0.11
2020-08-12 20:23:10.6490,0.26,-0.21,0.02
2020-08-12 20:23:10.7480,0.33,0.11,0.29
2020-08-12 20:23:10.8470,0.75,0.22,-0.15
2020-08-12 20:23:10.9460,0.23,-0.23,-0.12
2020-08-12 20:23:11.0460,-0.2,-0.33,0.13
2020-08-12 20:23:11.1450,-0.61,-0.18,0.18
2020-08-12 20:23:11.2440,-0.9,-0.04,0.18
2020-08-12 20:23:11.3430,0.72,-0.47,-0.58
2020-08-12 20:23:11.4430,-0.38,-0.14,0.36
2020-08-12 20:23:11.5420,-0.13,0.04,0.03
2020-08-12 20:23:11.6410,0.03,-0.02,0.03
2020-08-12 20:23:11.7410,-0.03,0.01,0.03
2020-08-12 20:23:11.8400,0.01,-0.03,0.01
2020-08-12 20:23:11.9390,0.02,0.0,0.01
2020-08-12 20:23:12.0380,0.03,-0.02,0.01
2020-08-12 20:23:12.1380,0.03,0.01,-0.02
2020-08-12 20:23:12.2370,0.11,0.0,-0.01
2020-08-12 20:23:12.3360,0.15,-0.12,0.0
2020-08-12 20:23:12.4360,0.26,-0.53,-0.07
2020-08-12 20:23:12.5350,0.21,-0.05,0.06
2020-08-12 20:23:12.6340,0.69,0.22,-0.14
2020-08-12 20:23:12.7330,0.34,-0.1,-0.12
2020-08-12 20:23:12.8330,-0.08,-0.27,0.13
2020-08-12 20:23:12.9320,-0.6,-0.34,0.19
2020-08-12 20:23:13.0310,-0.92,-0.05,0.25
2020-08-12 20:23:13.1300,-0.2,-0.08,-0.38
2020-08-12 20:23:13.2300,0.06,-0.21,-0.06
2020-08-12 20:23:13.3290,-0.02,0.02,-0.05
2020-08-12 20:23:13.4280,0.01,-0.02,-0.03
2020-08-12 20:23:13.5270,-0.07,0.01,0.05
2020-08-12 20:23:13.6270,-0.04,-0.02,-0.02
2020-08-12 20:23:13.7260,0.0,-0.01,0.04
2020-08-12 20:23:13.8250,-0.02,-0.0,0.0
2020-08-12 20:23:13.9250,0.02,0.01,0.02
2020-08-12 20:23:14.0240,0.02,-0.03,-0.02
2020-08-12 20:23:14.1230,0.06,-0.06,0.02
2020-08-12 20:23:14.2220,0.27,-0.38,-0.04
2020-08-12 20:23:14.3220,0.14,-0.31,0.01
2020-08-12 20:23:14.4210,0.66,0.13,0.05
2020-08-12 20:23:14.5200,0.66,0.14,-0.1
2020-08-12 20:23:14.6190,0.15,-0.27,-0.05
2020-08-12 20:23:14.7190,-0.26,-0.27,0.15
2020-08-12 20:23:14.8180,-0.63,-0.12,0.24
2020-08-12 20:23:14.9170,-0.86,-0.02,0.08
2020-08-12 20:23:15.0160,0.66,-0.71,-0.56
2020-08-12 20:23:15.1160,0.03,-0.1,0.24
2020-08-12 20:23:15.2150,-0.03,0.02,-0.06
2020-08-12 20:23:15.3140,-0.04,-0.04,0.02
2020-08-12 20:23:15.4130,-0.05,-0.01,0.02
2020-08-12 20:23:15.5130,-0.03,-0.01,0.03
2020-08-12 20:23:15.6120,-0.01,-0.01,0.03
2020-08-12 20:23:15.7110,-0.0,-0.0,0.01
2020-08-12 20:23:15.8100,-0.0,-0.0,0.01
2020-08-12 20:23:15.9100,0.03,-0.02,0.01
2020-08-12 20:23:16.0090,0.03,-0.05,-0.02
2020-08-12 20:23:16.1080,0.15,-0.36,-0.01
2020-08-12 20:23:16.2080,0.25,-0.09,0.02
2020-08-12 20:23:16.3070,0.43,-0.01,0.04
2020-08-12 20:23:16.4060,0.64,0.23,-0.11
2020-08-12 20:23:16.5050,0.15,-0.18,0.07
2020-08-12 20:23:16.6050,-0.05,-0.21,0.05
2020-08-12 20:23:16.7040,-0.38,-0.2,0.11
2020-08-12 20:23:16.8030,-0.75,-0.03,0.18
2020-08-12 20:23:16.9020,-0.93,-0.06,-0.03
2020-08-12 20:23:17.0020,-0.6,-0.59,0.2
2020-08-12 20:23:17.1010,0.17,0.02,-0.09
2020-08-12 20:23:17.2000,0.01,0.0,0.03
2020-08-12 20:23:17.3000,-0.06,0.03,0.02
2020-08-12 20:23:17.3990,-0.02,-0.02,0.01
2020-08-12 20:23:17.4980,-0.03,-0.0,0.01
2020-08-12 20:23:17.5970,0.01,-0.0,-0.01
2020-08-12 20:23:17.6970,0.01,-0.02,0.02
2020-08-12 20:23:17.7960,-0.01,0.0,0.01
2020-08-12 20:23:17.8950,0.03,-0.03,-0.0
2020-08-12 20:23:17.9940,0.11,-0.13,0.0
2020-08-12 20:23:18.0940,0.24,-0.36,-0.08
2020-08-12 20:23:18.1930,0.14,-0.26,0.06
2020-08-12 20:23:18.2920,0.87,0.2,-0.15
2020-08-12 20:23:18.3920,0.62,0.02,-0.03
2020-08-12 20:23:18.4910,0.0,-0.33,0.1
2020-08-12 20:23:18.5900,-0.48,-0.36,0.17
2020-08-12 20:23:18.6890,-1.08,-0.11,0.13
2020-08-12 20:23:18.7880,-0.83,-0.06,0.06
2020-08-12 20:23:18.8880,-0.38,-0.35,0.06
2020-08-12 20:23:18.9870,0.02,0.07,0.08
2020-08-12 20:23:19.0860,-0.03,-0.04,0.03
2020-08-12 20:23:19.1860,-0.09,0.0,0.09
2020-08-12 20:23:19.2850,-0.05,-0.01,0.0
2020-08-12 20:23:19.3840,-0.03,-0.0,0.01
2020-08-12 20:23:19.4830,0.0,-0.01,0.01
2020-08-12 20:23:19.5820,0.0,-0.03,0.03
2020-08-12 20:23:19.6820,0.01,-0.02,0.01
2020-08-12 20:23:19.7810,0.06,-0.05,-0.03
2020-08-12 20:23:19.8800,0.09,-0.19,-0.01
2020-08-12 20:23:19.9800,0.38,-0.28,-0.11
2020-08-12 20:23:20.0790,0.08,-0.14,0.11
2020-08-12 20:23:20.1780,0.63,0.18,-0.11
2020-08-12 20:23:20.2780,0.51,0.12,-0.08
2020-08-12 20:23:20.3770,0.06,-0.23,0.06
2020-08-12 20:23:20.4760,-0.38,-0.4,0.17
2020-08-12 20:23:20.5750,-0.97,-0.1,0.28
2020-08-12 20:23:20.6750,-0.7,-0.21,-0.43
2020-08-12 20:23:20.7740,-0.01,-0.28,-0.02
2020-08-12 20:23:20.8730,-0.02,-0.0,-0.02
2020-08-12 20:23:20.9720,-0.06,-0.03,0.04
2020-08-12 20:23:21.0720,-0.08,0.02,0.04
2020-08-12 20:23:21.1710,-0.06,-0.0,0.0
2020-08-12 20:23:21.2700,-0.02,-0.02,0.04
2020-08-12 20:23:21.3690,-0.0,-0.0,-0.0
2020-08-12 20:23:21.4690,-0.04,-0.01,0.01
2020-08-12 20:23:21.5680,-0.01,-0.01,0.01
2020-08-12 20:23:21.6670,0.03,-0.03,0.02
2020-08-12 20:23:21.7670,0.06,-0.17,0.05
2020-08-12 20:23:21.8660,0.23,-0.27,-0.11
2020-08-12 20:23:21.9650,0.03,-0.16,0.06
2020-08-12 20:23:22.0640,0.82,0.07,-0.08
2020-08-12 20:23:22.1640,0.53,0.12,-0.01
2020-08-12 20:23:22.2630,0.16,-0.2,-0.02
2020-08-12 20:23:22.3620,-0.24,-0.3,0.12
2020-08-12 20:23:22.4610,-0.69,-0.14,0.19
2020-08-12 20:23:22.5610,-1.07,0.01,0.17
2020-08-12 20:23:22.6600,-1.0,-0.44,0.43
2020-08-12 20:23:22.7590,-0.07,0.11,0.06
2020-08-12 20:23:22.8580,-0.08,-0.01,0.03
2020-08-12 20:23:22.9580,-0.08,0.01,0.03
2020-08-12 20:23:23.0570,0.01,0.02,0.01
2020-08-12 20:23:23.1560,-0.06,-0.01,0.03
2020-08-12 20:23:23.2550,0.05,0.0,0.04
2020-08-12 20:23:23.3550,0.05,-0.01,0.03
2020-08-12 20:23:23.4540,0.04,-0.03,0.04
2020-08-12 20:23:23.5530,0.01,-0.04,-0.03
2020-08-12 20:23:23.6530,0.05,-0.14,0.06
2020-08-12 20:23:23.7520,0.23,-0.26,-0.15
2020-08-12 20:23:23.8510,0.06,-0.17,0.13
2020-08-12 20:23:23.9500,0.52,-0.05,0.04
2020-08-12 20:23:24.0500,0.6,0.23,-0.08
2020-08-12 20:23:24.1490,0.31,-0.17,-0.14
2020-08-12 20:23:24.2480,-0.15,-0.43,0.05
2020-08-12 20:23:24.3470,-0.69,-0.14,0.12
2020-08-12 20:23:24.4470,-0.95,0.0,0.25
2020-08-12 20:23:24.5460,-0.34,-0.74,-0.43
2020-08-12 20:23:24.6450,-0.06,-0.04,0.1
2020-08-12 20:23:24.7450,-0.09,0.03,0.09
2020-08-12 20:23:24.8440,-0.03,-0.02,0.03
2020-08-12 20:23:24.9430,-0.0,0.01,0.01
2020-08-12 20:23:25.0420,-0.02,-0.01,0.03
2020-08-12 20:23:25.1420,-0.06,-0.01,0.02
2020-08-12 20:23:25.2410,0.03,-0.01,0.0
2020-08-12 20:23:25.3400,0.01,-0.02,-0.01
2020-08-12 20:23:25.4390,0.0,-0.07,0.02
2020-08-12 20:23:25.5390,0.12,-0.25,-0.03
2020-08-12 20:23:25.6380,0.29,-0.14,-0.1
2020-08-12 20:23:25.7370,0.08,-0.19,0.16
2020-08-12 20:23:25.8370,0.81,0.14,-0.01
2020-08-12 20:23:25.9360,0.54,0.06,-0.09
2020-08-12 20:23:26.0350,0.15,-0.26,-0.09
2020-08-12 20:23:26.1340,-0.4,-0.36,0.11
2020-08-12 20:23:26.2330,-0.88,-0.11,0.1
2020-08-12 20:23:26.3330,-1.01,-0.09,0.09
2020-08-12 20:23:26.4320,-0.24,-0.44,0.01
2020-08-12 20:23:26.5310,0.23,0.06,-0.02
2020-08-12 20:23:26.6310,0.03,-0.01,0.01
2020-08-12 20:23:26.7300,-0.06,0.02,0.0
2020-08-12 20:23:26.8290,-0.02,0.0,0.02
2020-08-12 20:23:26.9280,-0.02,0.0,0.01
2020-08-12 20:23:27.0280,-0.0,-0.01,0.0
2020-08-12 20:23:27.1270,0.0,-0.02,0.02
2020-08-12 20:23:27.2260,0.01,0.01,0.0
2020-08-12 20:23:27.3250,0.04,-0.04,0.02
2020-08-12 20:23:27.4250,0.05,-0.09,0.02
2020-08-12 20:23:27.5240,0.08,-0.14,-0.02
2020-08-12 20:23:27.6230,0.38,-0.14,-0.07
2020-08-12 20:23:27.7220,0.1,-0.28,0.16
2020-08-12 20:23:27.8220,0.72,0.22,-0.11
2020-08-12 20:23:27.9210,0.51,0.03,-0.1
2020-08-12 20:23:28.0200,0.05,-0.24,0.12
2020-08-12 20:23:28.1200,-0.43,-0.23,0.22
2020-08-12 20:23:28.2190,-0.98,-0.14,0.17
2020-08-12 20:23:28.3180,-0.86,-0.17,-0.2
2020-08-12 20:23:28.4170,-0.32,-0.33,0.05
2020-08-12 20:23:28.5170,0.04,0.11,0.01
2020-08-12 20:23:28.6160,0.01,-0.01,0.07
2020-08-12 20:23:28.7150,-0.12,0.01,0.05
2020-08-12 20:23:28.8150,-0.04,-0.03,-0.11
2020-08-12 20:23:28.9140,-0.03,-0.02,0.02
2020-08-12 20:23:29.0130,-0.04,0.02,0.04
2020-08-12 20:23:29.1120,-0.05,-0.01,0.03
2020-08-12 20:23:29.2110,0.03,-0.0,0.03
2020-08-12 20:23:29.3110,0.03,-0.02,0.01
2020-08-12 20:23:29.4100,0.03,-0.03,0.05
2020-08-12 20:23:29.5090,0.2,-0.2,-0.09
2020-08-12 20:23:29.6090,0.13,-0.03,-0.12
2020-08-12 20:23:29.7080,0.14,-0.21,0.12
2020-08-12 20:23:29.8070,0.67,-0.06,-0.05
2020-08-12 20:23:29.9060,0.68,0.18,-0.08
2020-08-12 20:23:30.0060,0.18,-0.19,0.03
2020-08-12 20:23:30.1050,-0.14,-0.21,0.17
2020-08-12 20:23:30.2040,-0.55,-0.21,0.1
2020-08-12 20:23:30.3030,-0.85,-0.05,0.07
2020-08-12 20:23:30.4030,1.53,-0.27,-0.26
2020-08-12 20:23:30.5020,-0.21,-0.03,0.38
2020-08-12 20:23:30.6010,-0.0,-0.04,-0.01
2020-08-12 20:23:30.7010,-0.0,-0.03,0.0
2020-08-12 20:23:30.8000,-0.02,0.01,0.01
2020-08-12 20:23:30.8990,-0.01,-0.02,0.0
2020-08-12 20:23:30.9980,-0.05,-0.0,-0.02
2020-08-12 20:23:31.0980,-0.04,-0.0,0.05
2020-08-12 20:23:31.1970,-0.01,-0.01,0.0
2020-08-12 20:23:31.2960,0.01,-0.01,-0.02
2020-08-12 20:23:31.3950,0.0,0.01,0.02
2020-08-12 20:23:31.4950,0.03,0.0,-0.01
2020-08-12 20:23:31.5940,0.08,-0.02,0.05
2020-08-12 20:23:31.6930,-0.0,0.0,0.04
2020-08-12 20:23:31.7930,-0.05,-0.01,0.04
2020-08-12 20:23:31.8920,-0.02,-0.0,0.03
2020-08-12 20:23:31.9910,-0.12,0.04,0.06
2020-08-12 20:23:32.0900,-0.02,-0.02,-0.03
2020-08-12 20:23:32.1900,-0.01,0.01,0.04
2020-08-12 20:23:32.2890,0.01,-0.02,0.0
2020-08-12 20:23:32.3880,-0.02,0.02,0.01
2020-08-12 20:23:32.4870,0.02,-0.02,0.01
2020-08-12 20:23:32.5860,0.01,-0.0,0.0
2020-08-12 20:23:32.6860,0.01,0.0,0.0
2020-08-12 20:23:32.7850,0.02,-0.01,-0.0
2020-08-12 20:23:32.8840,0.0,0.0,0.01
2020-08-12 20:23:32.9840,-0.0,-0.0,-0.01
2020-08-12 20:23:33.0830,0.0,0.0,0.03
2020-08-12 20:23:33.1820,-0.0,-0.0,0.0
2020-08-12 20:23:33.2810,-0.0,-0.01,-0.0
2020-08-12 20:23:33.3810,0.0,-0.0,0.0
2020-08-12 20:23:33.4800,-0.01,0.0,-0.0
2020-08-12 20:23:33.5790,0.01,-0.0,-0.0
2020-08-12 20:23:33.6790,-0.21,0.02,0.07
2020-08-12 20:23:33.7780,0.06,-0.06,-0.03
2020-08-12 20:23:33.8770,-0.01,-0.0,0.01
2020-08-12 20:23:33.9760,-0.01,-0.0,0.01
2020-08-12 20:23:34.0760,0.01,-0.01,-0.0
2020-08-12 20:23:34.1750,-0.01,-0.0,0.0
2020-08-12 20:23:34.2740,0.01,-0.01,0.0
2020-08-12 20:23:34.3730,0.04,0.02,0.04
2020-08-12 20:23:34.4730,-0.06,0.02,-0.02
2020-08-12 20:23:34.5730,0.01,0.02,-0.01
2020-08-12 20:23:34.6740,-0.01,-0.04,0.01
2020-08-12 20:23:34.7700,-0.01,0.0,0.01
2020-08-12 20:23:34.8700,-0.0,0.01,-0.01
2020-08-12 20:23:34.9690,0.0,-0.01,0.01
2020-08-12 20:23:35.0680,-0.01,0.0,0.01
2020-08-12 20:23:35.1670,0.01,-0.01,0.01
2020-08-12 20:23:35.2670,-0.02,0.0,0.01
2020-08-12 20:23:35.3660,0.03,-0.02,-0.02
2020-08-12 20:23:35.4650,-0.05,0.03,0.01
2020-08-12 20:23:35.5650,-0.03,-0.01,-0.01
