time,ax,ay,az
2020-08-12 19:30:47.1670,-0.1,-0.02,0.2
2020-08-12 19:30:47.2660,0.0,-0.0,-0.01
2020-08-12 19:30:47.3650,0.02,-0.0,-0.01
2020-08-12 19:30:47.4650,-0.01,-0.0,-0.0
2020-08-12 19:30:47.5640,-0.02,0.02,-0.04
2020-08-12 19:30:47.6630,0.04,0.0,-0.01
2020-08-12 19:30:47.7620,-0.01,0.0,-0.01
2020-08-12 19:30:47.8620,-0.08,0.02,-0.03
2020-08-12 19:30:47.9610,0.07,-0.01,0.01
2020-08-12 19:30:48.0600,-0.02,-0.01,0.02
2020-08-12 19:30:48.1590,0.03,-0.01,0.02
2020-08-12 19:30:48.2590,0.08,-0.0,-0.02
2020-08-12 19:30:48.3580,0.02,0.02,0.02
2020-08-12 19:30:48.4570,-0.05,-0.01,0.02
2020-08-12 19:30:48.5570,0.02,0.01,-0.0
2020-08-12 19:30:48.6560,-0.0,-0.0,0.0
2020-08-12 19:30:48.7550,-0.01,0.02,-0.01
2020-08-12 19:30:48.8540,0.01,-0.01,0.01
2020-08-12 19:30:48.9540,0.03,-0.02,0.0
2020-08-12 19:30:49.0530,0.02,-0.01,0.02
2020-08-12 19:30:49.1520,-0.01,-0.01,-0.01
2020-08-12 19:30:49.2520,0.02,-0.01,-0.01
2020-08-12 19:30:49.3510,-0.05,-0.0,0.02
2020-08-12 19:30:49.4500,0.02,-0.02,-0.01
2020-08-12 19:30:49.5490,0.01,-0.01,-0.02
2020-08-12 19:30:49.6480,-0.02,0.01,0.0
2020-08-12 19:30:49.7480,-0.0,0.0,-0.01
2020-08-12 19:30:49.8470,-0.01,0.0,-0.0
2020-08-12 19:30:49.9460,0.01,-0.01,0.0
2020-08-12 19:30:50.0460,-0.01,0.01,0.05
2020-08-12 19:30:50.1450,0.0,0.0,0.01
2020-08-12 19:30:50.2440,-0.03,0.01,-0.01
2020-08-12 19:30:50.3440,-0.01,-0.0,0.01
2020-08-12 19:30:50.4430,-0.0,0.0,0.0
2020-08-12 19:30:50.5420,0.01,0.0,-0.02
2020-08-12 19:30:50.6410,-0.01,-0.01,0.01
2020-08-12 19:30:50.7400,0.0,0.0,-0.0
2020-08-12 19:30:50.8400,0.01,-0.01,0.01
2020-08-12 19:30:50.9390,0.08,-0.02,-0.0
2020-08-12 19:30:51.0380,0.11,-0.16,0.07
2020-08-12 19:30:51.1370,0.11,-0.22,0.18
2020-08-12 19:30:51.2370,0.43,0.35,0.1
2020-08-12 19:30:51.3360,0.37,0.03,-0.21
2020-08-12 19:30:51.4350,-0.01,-0.17,-0.28
2020-08-12 19:30:51.5350,-0.85,0.03,0.38
2020-08-12 19:30:51.6340,-0.17,-0.64,-0.18
2020-08-12 19:30:51.7330,-0.2,0.17,0.02
2020-08-12 19:30:51.8320,0.01,0.01,0.01
2020-08-12 19:30:51.9320,-0.01,-0.01,-0.05
2020-08-12 19:30:52.0310,-0.04,0.02,-0.03
2020-08-12 19:30:52.1300,0.01,-0.01,0.03
2020-08-12 19:30:52.2290,0.01,-0.01,-0.0
2020-08-12 19:30:52.3290,0.09,-0.07,0.03
2020-08-12 19:30:52.4280,0.21,-0.39,0.02
2020-08-12 19:30:52.5270,0.36,-0.32,-0.03
2020-08-12 19:30:52.6270,0.5,-0.16,0.22
2020-08-12 19:30:52.7260,0.78,0.04,-0.34
2020-08-12 19:30:52.8250,0.37,0.03,-0.21
2020-08-12 19:30:52.9240,-0.17,-0.25,-0.16
2020-08-12 19:30:53.0240,-1.43,-0.03,0.57
2020-08-12 19:30:53.1230,0.08,-0.01,-0.18
2020-08-12 19:30:53.2220,0.0,0.28,-0.23
2020-08-12 19:30:53.3210,0.04,-0.05,-0.04
2020-08-12 19:30:53.4210,-0.04,-0.02,-0.03
2020-08-12 19:30:53.5200,-0.0,0.03,0.07
2020-08-12 19:30:53.6190,-0.03,-0.0,-0.03
2020-08-12 19:30:53.7190,0.03,-0.01,-0.01
2020-08-12 19:30:53.8180,-0.01,-0.02,0.02
2020-08-12 19:30:53.9170,0.01,-0.05,-0.14
2020-08-12 19:30:54.0160,0.18,-0.29,-0.01
2020-08-12 19:30:54.1160,0.28,-0.18,-0.0
2020-08-12 19:30:54.2150,0.69,-0.45,0.08
2020-08-12 19:30:54.3140,0.82,0.08,-0.0
2020-08-12 19:30:54.4130,0.49,0.08,-0.14
2020-08-12 19:30:54.5130,-0.24,-0.0,0.07
2020-08-12 19:30:54.6120,-0.59,-0.37,-0.07
2020-08-12 19:30:54.7110,-1.16,0.07,0.44
2020-08-12 19:30:54.8100,-0.38,-0.08,0.37
2020-08-12 19:30:54.9100,-0.13,-0.06,-0.01
2020-08-12 19:30:55.0090,-0.06,0.05,0.04
2020-08-12 19:30:55.1080,-0.0,0.01,0.02
2020-08-12 19:30:55.2070,-0.0,-0.01,-0.04
2020-08-12 19:30:55.3070,-0.03,-0.02,-0.06
2020-08-12 19:30:55.4060,0.01,-0.02,-0.08
2020-08-12 19:30:55.5050,0.07,-0.08,-0.01
2020-08-12 19:30:55.6050,0.08,-0.16,-0.02
2020-08-12 19:30:55.7040,0.15,-0.15,0.03
2020-08-12 19:30:55.8030,0.32,-0.34,0.08
2020-08-12 19:30:55.9020,0.53,-0.34,0.16
2020-08-12 19:30:56.0020,0.72,0.13,-0.22
2020-08-12 19:30:56.1010,0.4,0.07,-0.21
2020-08-12 19:30:56.2000,0.02,0.08,0.11
2020-08-12 19:30:56.2990,-0.89,-0.37,0.23
2020-08-12 19:30:56.3990,-1.42,-0.09,0.21
2020-08-12 19:30:56.4980,-0.47,0.0,0.08
2020-08-12 19:30:56.5970,0.07,-0.09,0.08
2020-08-12 19:30:56.6970,0.04,0.01,0.04
2020-08-12 19:30:56.7960,-0.05,0.01,-0.04
2020-08-12 19:30:56.8950,0.01,0.01,0.05
2020-08-12 19:30:56.9940,-0.01,-0.02,-0.08
2020-08-12 19:30:57.0940,0.12,-0.07,-0.01
2020-08-12 19:30:57.1930,0.1,-0.1,0.04
2020-08-12 19:30:57.2920,0.29,-0.38,-0.03
2020-08-12 19:30:57.3910,0.49,-0.63,0.06
2020-08-12 19:30:57.4910,0.43,0.14,0.17
2020-08-12 19:30:57.5900,0.63,0.39,-0.14
2020-08-12 19:30:57.6890,0.17,-0.06,-0.12
2020-08-12 19:30:57.7890,-0.56,-0.56,-0.0
2020-08-12 19:30:57.8880,-1.03,0.06,0.3
2020-08-12 19:30:57.9870,0.81,-0.32,-0.48
2020-08-12 19:30:58.0860,-0.29,-0.02,0.11
2020-08-12 19:30:58.1860,0.03,-0.07,0.03
2020-08-12 19:30:58.2850,-0.01,-0.01,-0.02
2020-08-12 19:30:58.3840,-0.02,0.01,-0.0
2020-08-12 19:30:58.4840,-0.0,-0.02,-0.0
2020-08-12 19:30:58.5830,0.08,-0.05,-0.01
2020-08-12 19:30:58.6820,0.13,-0.14,0.03
2020-08-12 19:30:58.7810,0.23,-0.34,0.12
2020-08-12 19:30:58.8800,0.56,-0.65,-0.06
2020-08-12 19:30:58.9800,0.38,-0.02,0.17
2020-08-12 19:30:59.0790,0.52,0.26,-0.25
2020-08-12 19:30:59.1780,0.13,0.02,0.03
2020-08-12 19:30:59.2780,-0.17,-0.22,-0.15
2020-08-12 19:30:59.3770,-1.05,-0.36,0.32
2020-08-12 19:30:59.4770,-0.89,-0.2,0.18
2020-08-12 19:30:59.5750,-0.08,-0.0,0.15
2020-08-12 19:30:59.6750,-0.02,-0.08,-0.21
2020-08-12 19:30:59.7740,0.02,-0.01,0.05
2020-08-12 19:30:59.8730,-0.03,0.02,0.03
2020-08-12 19:30:59.9730,0.01,-0.01,0.01
2020-08-12 19:31:00.0720,0.02,-0.01,0.01
2020-08-12 19:31:00.1710,0.09,-0.08,-0.03
2020-08-12 19:31:00.2700,0.22,-0.35,0.01
2020-08-12 19:31:00.3700,0.46,-0.49,0.04
2020-08-12 19:31:00.4690,0.27,-0.2,0.08
2020-08-12 19:31:00.5680,0.54,0.1,0.01
2020-08-12 19:31:00.6670,0.32,0.09,-0.15
2020-08-12 19:31:00.7670,-0.03,-0.2,-0.09
2020-08-12 19:31:00.8660,-0.81,-0.37,0.13
2020-08-12 19:31:00.9650,-0.88,-0.02,0.05
2020-08-12 19:31:01.0650,-0.7,-0.49,-0.05
2020-08-12 19:31:01.1640,-0.25,0.01,0.14
2020-08-12 19:31:01.2630,0.01,0.01,-0.07
2020-08-12 19:31:01.3620,-0.02,-0.01,-0.17
2020-08-12 19:31:01.4610,-0.01,-0.0,0.04
2020-08-12 19:31:01.5610,-0.03,-0.03,-0.01
2020-08-12 19:31:01.6600,0.11,-0.07,-0.01
2020-08-12 19:31:01.7590,0.04,-0.09,-0.05
2020-08-12 19:31:01.8590,0.24,-0.32,-0.0
2020-08-12 19:31:01.9580,0.44,-0.64,0.08
2020-08-12 19:31:02.0570,0.51,-0.18,0.07
2020-08-12 19:31:02.1560,0.61,0.09,-0.21
2020-08-12 19:31:02.2560,0.32,0.09,-0.18
2020-08-12 19:31:02.3550,-0.24,-0.26,0.04
2020-08-12 19:31:02.4540,-1.33,-0.33,0.49
2020-08-12 19:31:02.5540,0.34,-0.26,-0.2
2020-08-12 19:31:02.6530,-0.57,0.01,0.26
2020-08-12 19:31:02.7520,0.02,-0.06,-0.09
2020-08-12 19:31:02.8510,-0.01,-0.02,0.02
2020-08-12 19:31:02.9510,0.06,-0.0,0.03
2020-08-12 19:31:03.0500,-0.02,-0.02,-0.09
2020-08-12 19:31:03.1490,0.01,-0.0,-0.01
2020-08-12 19:31:03.2480,0.1,-0.08,-0.09
2020-08-12 19:31:03.3480,0.13,-0.15,0.02
2020-08-12 19:31:03.4470,0.33,-0.49,0.0
2020-08-12 19:31:03.5470,0.4,-0.46,0.23
2020-08-12 19:31:03.6460,0.17,-0.1,0.1
2020-08-12 19:31:03.7450,0.63,0.19,-0.2
2020-08-12 19:31:03.8440,-0.14,-0.14,-0.06
2020-08-12 19:31:03.9430,-0.64,-0.46,0.03
2020-08-12 19:31:04.0420,-1.23,0.0,0.3
2020-08-12 19:31:04.1420,-0.44,-0.39,0.28
2020-08-12 19:31:04.2410,-0.17,0.08,0.07
2020-08-12 19:31:04.3400,-0.01,0.0,-0.02
2020-08-12 19:31:04.4400,-0.01,-0.01,-0.08
2020-08-12 19:31:04.5390,-0.05,0.01,-0.07
2020-08-12 19:31:04.6380,-0.07,-0.04,-0.03
2020-08-12 19:31:04.7370,0.03,-0.03,-0.05
2020-08-12 19:31:04.8370,0.02,-0.06,-0.01
2020-08-12 19:31:04.9360,0.26,-0.31,0.02
2020-08-12 19:31:05.0350,0.5,-0.56,-0.26
2020-08-12 19:31:05.1350,0.71,-0.43,-0.01
2020-08-12 19:31:05.2340,0.73,0.13,-0.26
2020-08-12 19:31:05.3330,0.48,0.2,-0.32
2020-08-12 19:31:05.4320,-0.48,-0.42,0.03
2020-08-12 19:31:05.5310,-1.97,0.21,0.96
2020-08-12 19:31:05.6310,-0.54,0.03,0.32
2020-08-12 19:31:05.7300,-0.03,0.02,0.04
2020-08-12 19:31:05.8290,0.06,-0.02,0.01
2020-08-12 19:31:05.9290,0.03,-0.04,-0.08
2020-08-12 19:31:06.0280,-0.0,-0.01,-0.03
2020-08-12 19:31:06.1270,-0.04,0.01,0.01
2020-08-12 19:31:06.2270,0.09,-0.08,-0.07
2020-08-12 19:31:06.3260,0.14,-0.15,0.04
2020-08-12 19:31:06.4250,0.33,-0.49,-0.04
2020-08-12 19:31:06.5240,0.4,-0.39,0.13
2020-08-12 19:31:06.6240,-0.07,-0.28,0.14
2020-08-12 19:31:06.7230,0.58,0.2,-0.2
2020-08-12 19:31:06.8220,0.08,-0.12,-0.15
2020-08-12 19:31:06.9210,-0.43,-0.46,0.08
2020-08-12 19:31:07.0210,-0.84,0.01,0.26
2020-08-12 19:31:07.1200,-0.57,-0.23,-0.46
2020-08-12 19:31:07.2190,-0.75,-0.31,0.25
2020-08-12 19:31:07.3180,-0.08,-0.09,-0.49
2020-08-12 19:31:07.4180,-0.08,0.03,0.06
2020-08-12 19:31:07.5170,-0.04,0.01,-0.03
2020-08-12 19:31:07.6170,0.04,-0.02,-0.05
2020-08-12 19:31:07.7160,0.13,-0.08,-0.06
2020-08-12 19:31:07.8150,0.06,-0.08,-0.02
2020-08-12 19:31:07.9140,0.11,-0.27,0.04
2020-08-12 19:31:08.0130,0.55,-0.49,-0.01
2020-08-12 19:31:08.1130,0.65,-0.3,0.18
2020-08-12 19:31:08.2120,0.68,0.16,-0.13
2020-08-12 19:31:08.3110,0.46,0.13,-0.18
2020-08-12 19:31:08.4100,-0.19,-0.26,-0.09
2020-08-12 19:31:08.5100,-0.97,-0.36,0.17
2020-08-12 19:31:08.6090,-1.36,-0.06,0.23
2020-08-12 19:31:08.7080,-0.41,0.09,0.08
2020-08-12 19:31:08.8080,-0.2,-0.14,-0.03
2020-08-12 19:31:08.9070,0.03,-0.03,0.03
2020-08-12 19:31:09.0060,0.02,-0.02,-0.05
2020-08-12 19:31:09.1050,0.0,-0.01,-0.05
2020-08-12 19:31:09.2040,-0.03,-0.03,-0.13
2020-08-12 19:31:09.3040,0.09,-0.08,-0.05
2020-08-12 19:31:09.4030,0.01,-0.07,-0.01
2020-08-12 19:31:09.5030,0.27,-0.4,0.03
2020-08-12 19:31:09.6020,0.34,-0.42,-0.03
2020-08-12 19:31:09.7010,0.41,-0.12,0.17
2020-08-12 19:31:09.8000,0.65,0.25,-0.21
2020-08-12 19:31:09.9000,0.26,-0.0,-0.27
2020-08-12 19:31:09.9990,-0.29,-0.4,-0.06
2020-08-12 19:31:10.0980,-1.13,-0.14,0.19
2020-08-12 19:31:10.1970,0.89,-0.3,-0.19
2020-08-12 19:31:10.2970,-0.33,0.22,-0.07
2020-08-12 19:31:10.3960,0.02,-0.02,-0.11
2020-08-12 19:31:10.4950,-0.03,-0.0,-0.04
2020-08-12 19:31:10.5940,-0.02,-0.01,-0.0
2020-08-12 19:31:10.6940,-0.02,-0.03,-0.08
2020-08-12 19:31:10.7930,-0.0,-0.02,-0.03
2020-08-12 19:31:10.8920,0.1,-0.13,-0.1
2020-08-12 19:31:10.9910,0.27,-0.38,0.09
2020-08-12 19:31:11.0910,0.52,-0.47,0.01
2020-08-12 19:31:11.1900,0.54,-0.2,0.07
2020-08-12 19:31:11.2890,0.65,0.26,-0.28
2020-08-12 19:31:11.3880,0.17,0.03,-0.19
2020-08-12 19:31:11.4880,-0.38,-0.41,-0.14
2020-08-12 19:31:11.5870,-1.4,-0.09,0.25
2020-08-12 19:31:11.6870,-0.07,-0.41,-0.07
2020-08-12 19:31:11.7860,-0.24,0.14,-0.05
2020-08-12 19:31:11.8850,0.01,-0.03,0.04
2020-08-12 19:31:11.9840,-0.01,-0.01,-0.11
2020-08-12 19:31:12.0830,-0.03,-0.02,-0.05
2020-08-12 19:31:12.1830,-0.01,-0.03,-0.07
2020-08-12 19:31:12.2820,0.08,-0.07,-0.05
2020-08-12 19:31:12.3810,0.13,-0.18,-0.08
2020-08-12 19:31:12.4810,0.44,-0.62,0.07
2020-08-12 19:31:12.5800,0.41,-0.5,0.08
2020-08-12 19:31:12.6790,0.73,0.13,-0.07
2020-08-12 19:31:12.7780,0.54,0.21,-0.23
2020-08-12 19:31:12.8780,-0.05,-0.16,-0.1
2020-08-12 19:31:12.9770,-0.91,-0.68,0.22
2020-08-12 19:31:13.0760,-1.08,0.01,0.45
2020-08-12 19:31:13.1750,-0.47,-0.43,0.1
2020-08-12 19:31:13.2750,-0.22,0.06,0.21
2020-08-12 19:31:13.3740,-0.07,0.02,-0.05
2020-08-12 19:31:13.4730,0.02,-0.03,-0.06
2020-08-12 19:31:13.5720,-0.04,-0.03,-0.01
2020-08-12 19:31:13.6720,-0.03,-0.03,-0.06
2020-08-12 19:31:13.7710,0.05,-0.1,-0.08
2020-08-12 19:31:13.8700,0.21,-0.33,-0.04
2020-08-12 19:31:13.9700,0.63,-0.59,-0.01
2020-08-12 19:31:14.0690,0.6,-0.29,0.09
2020-08-12 19:31:14.1680,0.89,0.27,-0.27
2020-08-12 19:31:14.2670,0.35,0.08,-0.26
2020-08-12 19:31:14.3670,-0.18,-0.36,-0.12
2020-08-12 19:31:14.4660,-1.27,-0.17,0.42
2020-08-12 19:31:14.5650,-0.67,0.04,0.19
2020-08-12 19:31:14.6650,-0.51,-0.38,0.34
2020-08-12 19:31:14.7640,-0.25,-0.05,0.11
2020-08-12 19:31:14.8630,0.02,-0.02,-0.06
2020-08-12 19:31:14.9620,-0.05,-0.01,-0.1
2020-08-12 19:31:15.0620,-0.05,-0.03,-0.1
2020-08-12 19:31:15.1610,-0.01,-0.01,-0.05
2020-08-12 19:31:15.2600,0.12,-0.11,-0.07
2020-08-12 19:31:15.3590,0.25,-0.33,-0.1
2020-08-12 19:31:15.4590,0.46,-0.47,-0.04
2020-08-12 19:31:15.5580,0.4,-0.11,0.12
2020-08-12 19:31:15.6570,0.68,0.23,-0.31
2020-08-12 19:31:15.7570,0.21,0.05,-0.15
2020-08-12 19:31:15.8560,-0.16,-0.41,-0.1
2020-08-12 19:31:15.9550,-0.95,-0.31,0.33
2020-08-12 19:31:16.0540,-0.64,-0.16,0.1
2020-08-12 19:31:16.1530,-0.32,-0.24,0.16
2020-08-12 19:31:16.2530,-0.42,0.08,0.25
2020-08-12 19:31:16.3520,-0.01,0.0,-0.06
2020-08-12 19:31:16.4510,-0.01,-0.02,-0.07
2020-08-12 19:31:16.5510,-0.02,-0.03,-0.06
2020-08-12 19:31:16.6500,0.0,-0.04,-0.09
2020-08-12 19:31:16.7490,0.15,-0.14,-0.05
2020-08-12 19:31:16.8480,0.27,-0.38,0.02
2020-08-12 19:31:16.9480,0.53,-0.58,-0.0
2020-08-12 19:31:17.0470,0.47,0.05,0.09
2020-08-12 19:31:17.1460,0.73,0.29,-0.26
2020-08-12 19:31:17.2460,0.06,-0.16,-0.03
2020-08-12 19:31:17.3450,-0.33,-0.48,-0.13
2020-08-12 19:31:17.4440,-1.2,-0.02,0.43
2020-08-12 19:31:17.5430,0.29,-0.31,-0.51
2020-08-12 19:31:17.6430,-0.55,-0.07,-0.03
2020-08-12 19:31:17.7420,0.14,-0.11,-0.08
2020-08-12 19:31:17.8410,-0.05,0.0,0.01
2020-08-12 19:31:17.9400,-0.0,-0.02,-0.08
2020-08-12 19:31:18.0400,-0.09,-0.03,-0.25
2020-08-12 19:31:18.1390,0.07,-0.09,-0.03
2020-08-12 19:31:18.2380,0.13,-0.16,-0.03
2020-08-12 19:31:18.3370,0.46,-0.57,-0.05
2020-08-12 19:31:18.4370,0.55,-0.47,0.04
2020-08-12 19:31:18.5360,0.81,0.18,-0.02
2020-08-12 19:31:18.6350,0.38,0.15,-0.22
2020-08-12 19:31:18.7340,-0.11,-0.15,-0.08
2020-08-12 19:31:18.8340,-0.83,-0.67,0.09
2020-08-12 19:31:18.9330,-1.19,-0.08,0.39
2020-08-12 19:31:19.0320,-0.49,-0.25,0.14
2020-08-12 19:31:19.1320,-0.21,-0.01,0.08
2020-08-12 19:31:19.2310,0.04,-0.03,-0.07
2020-08-12 19:31:19.3300,-0.09,0.02,-0.06
2020-08-12 19:31:19.4300,0.08,-0.06,-0.05
2020-08-12 19:31:19.5290,-0.0,-0.03,-0.09
2020-08-12 19:31:19.6280,0.08,-0.09,-0.08
2020-08-12 19:31:19.7270,0.17,-0.27,-0.03
2020-08-12 19:31:19.8270,0.66,-0.65,-0.15
2020-08-12 19:31:19.9260,0.64,-0.49,0.01
2020-08-12 19:31:20.0250,0.89,0.08,-0.35
2020-08-12 19:31:20.1240,0.15,0.06,-0.15
2020-08-12 19:31:20.2240,-0.15,-0.31,-0.12
2020-08-12 19:31:20.3230,-1.42,-0.37,0.66
2020-08-12 19:31:20.4220,-0.94,-0.41,-0.19
2020-08-12 19:31:20.5210,-0.93,-0.29,0.37
2020-08-12 19:31:20.6210,0.02,-0.21,-0.07
2020-08-12 19:31:20.7200,-0.13,0.02,-0.03
2020-08-12 19:31:20.8190,-0.07,-0.0,-0.1
2020-08-12 19:31:20.9180,-0.03,-0.02,-0.01
2020-08-12 19:31:21.0180,0.09,-0.09,-0.15
2020-08-12 19:31:21.1170,0.15,-0.15,-0.04
2020-08-12 19:31:21.2160,0.32,-0.48,-0.02
2020-08-12 19:31:21.3160,0.42,-0.53,0.03
2020-08-12 19:31:21.4150,0.24,-0.12,0.06
2020-08-12 19:31:21.5140,0.53,0.26,-0.31
2020-08-12 19:31:21.6130,-0.02,-0.1,-0.2
2020-08-12 19:31:21.7130,-0.54,-0.87,-0.05
2020-08-12 19:31:21.8120,-1.21,0.07,0.4
2020-08-12 19:31:21.9110,0.55,-0.6,-0.49
2020-08-12 19:31:22.0100,-0.26,0.14,-0.15
2020-08-12 19:31:22.1100,0.09,-0.1,-0.07
2020-08-12 19:31:22.2090,-0.14,0.01,0.01
2020-08-12 19:31:22.3080,-0.05,-0.01,-0.06
2020-08-12 19:31:22.4080,-0.04,-0.04,-0.06
2020-08-12 19:31:22.5070,0.08,-0.08,-0.06
2020-08-12 19:31:22.6060,0.12,-0.16,-0.04
2020-08-12 19:31:22.7050,0.39,-0.41,-0.12
2020-08-12 19:31:22.8050,0.45,-0.57,0.04
2020-08-12 19:31:22.9040,0.18,-0.06,0.0
2020-08-12 19:31:23.0030,0.57,0.33,-0.3
2020-08-12 19:31:23.1030,-0.0,-0.22,-0.15
2020-08-12 19:31:23.2020,-0.63,-0.53,0.13
2020-08-12 19:31:23.3010,-1.16,-0.08,0.24
2020-08-12 19:31:23.4000,0.84,-0.52,-0.58
2020-08-12 19:31:23.5000,-0.38,0.03,0.0
2020-08-12 19:31:23.5990,0.1,-0.09,-0.11
2020-08-12 19:31:23.6980,-0.11,0.02,0.02
2020-08-12 19:31:23.7970,-0.07,-0.01,-0.17
2020-08-12 19:31:23.8970,0.03,-0.05,-0.06
2020-08-12 19:31:23.9960,-0.05,-0.01,-0.04
2020-08-12 19:31:24.0950,0.17,-0.16,-0.02
2020-08-12 19:31:24.1940,0.4,-0.51,-0.05
2020-08-12 19:31:24.2940,0.33,-0.36,0.03
2020-08-12 19:31:24.3930,0.27,-0.09,0.18
2020-08-12 19:31:24.4920,0.6,0.28,-0.21
2020-08-12 19:31:24.5910,0.12,-0.05,-0.21
2020-08-12 19:31:24.6910,-0.49,-0.69,0.1
2020-08-12 19:31:24.7900,-1.07,-0.01,0.31
2020-08-12 19:31:24.8890,0.94,-0.41,-0.66
2020-08-12 19:31:24.9890,-0.27,0.22,-0.05
2020-08-12 19:31:25.0880,0.18,-0.17,-0.23
2020-08-12 19:31:25.1870,-0.12,0.03,0.0
2020-08-12 19:31:25.2860,-0.03,0.0,0.06
2020-08-12 19:31:25.3860,0.02,-0.07,-0.06
2020-08-12 19:31:25.4850,0.11,-0.11,-0.1
2020-08-12 19:31:25.5840,0.15,-0.25,-0.09
2020-08-12 19:31:25.6840,0.34,-0.46,-0.0
2020-08-12 19:31:25.7830,0.38,-0.54,0.1
2020-08-12 19:31:25.8820,0.3,-0.28,0.05
2020-08-12 19:31:25.9810,0.47,0.29,-0.21
2020-08-12 19:31:26.0800,0.02,-0.06,-0.09
2020-08-12 19:31:26.1800,-0.88,-0.56,0.22
2020-08-12 19:31:26.2790,-1.06,-0.04,0.21
2020-08-12 19:31:26.3780,-0.23,-0.63,-0.26
2020-08-12 19:31:26.4780,-0.22,0.06,0.06
2020-08-12 19:31:26.5780,0.02,-0.01,-0.1
2020-08-12 19:31:26.6760,-0.1,0.03,-0.01
2020-08-12 19:31:26.7760,-0.1,-0.01,-0.19
2020-08-12 19:31:26.8750,-0.02,-0.02,-0.07
2020-08-12 19:31:26.9740,0.05,-0.07,-0.07
2020-08-12 19:31:27.0730,0.14,-0.19,-0.03
2020-08-12 19:31:27.1730,0.56,-0.56,-0.17
2020-08-12 19:31:27.2720,0.32,-0.46,0.09
2020-08-12 19:31:27.3710,0.34,-0.16,0.08
2020-08-12 19:31:27.4700,0.54,0.2,-0.25
2020-08-12 19:31:27.5700,-0.0,-0.02,-0.07
2020-08-12 19:31:27.6690,-0.72,-0.69,0.08
2020-08-12 19:31:27.7680,-1.17,-0.02,0.23
2020-08-12 19:31:27.8670,0.87,-0.57,-0.79
2020-08-12 19:31:27.9670,-0.07,0.18,0.08
2020-08-12 19:31:28.0660,0.03,-0.09,-0.16
2020-08-12 19:31:28.1650,-0.1,-0.0,-0.12
2020-08-12 19:31:28.2640,-0.05,0.0,-0.06
2020-08-12 19:31:28.3640,-0.0,-0.04,-0.11
2020-08-12 19:31:28.4630,0.1,-0.09,-0.08
2020-08-12 19:31:28.5620,0.18,-0.26,-0.07
2020-08-12 19:31:28.6610,0.29,-0.45,-0.07
2020-08-12 19:31:28.7610,0.42,-0.52,-0.01
2020-08-12 19:31:28.8600,0.39,-0.09,-0.06
2020-08-12 19:31:28.9590,0.46,0.17,-0.26
2020-08-12 19:31:29.0590,0.03,-0.03,-0.16
2020-08-12 19:31:29.1580,-0.42,-0.6,0.02
2020-08-12 19:31:29.2570,-1.24,0.04,0.37
2020-08-12 19:31:29.3560,1.28,-0.25,-0.54
2020-08-12 19:31:29.4560,-0.35,0.07,0.14
2020-08-12 19:31:29.5550,0.05,-0.06,-0.28
2020-08-12 19:31:29.6540,-0.08,-0.01,0.02
2020-08-12 19:31:29.7530,-0.01,-0.02,-0.03
2020-08-12 19:31:29.8530,0.04,-0.02,-0.1
2020-08-12 19:31:29.9520,0.06,-0.07,-0.11
2020-08-12 19:31:30.0510,0.17,-0.29,-0.1
2020-08-12 19:31:30.1510,0.37,-0.4,-0.06
2020-08-12 19:31:30.2500,0.35,-0.5,0.07
2020-08-12 19:31:30.3490,0.21,-0.06,0.07
2020-08-12 19:31:30.4490,0.57,0.17,-0.16
2020-08-12 19:31:30.5480,0.03,-0.07,-0.18
2020-08-12 19:31:30.6470,-0.6,-0.61,0.03
2020-08-12 19:31:30.7460,-1.35,-0.07,0.24
2020-08-12 19:31:30.8460,0.09,-0.67,-0.41
2020-08-12 19:31:30.9440,-0.34,-0.04,-0.03
2020-08-12 19:31:31.0440,0.16,-0.06,-0.02
2020-08-12 19:31:31.1430,-0.04,0.0,-0.01
2020-08-12 19:31:31.2430,-0.01,-0.03,-0.08
2020-08-12 19:31:31.3420,-0.03,-0.05,-0.15
2020-08-12 19:31:31.4410,0.05,-0.06,-0.04
2020-08-12 19:31:31.5400,0.11,-0.13,-0.03
2020-08-12 19:31:31.6400,0.27,-0.47,0.07
2020-08-12 19:31:31.7390,0.32,-0.33,0.08
2020-08-12 19:31:31.8380,0.28,-0.03,-0.03
2020-08-12 19:31:31.9380,0.32,0.22,-0.23
2020-08-12 19:31:32.0370,0.1,0.0,-0.12
2020-08-12 19:31:32.1360,-0.34,-0.44,-0.03
2020-08-12 19:31:32.2350,-1.03,-0.17,0.3
2020-08-12 19:31:32.3350,0.45,-0.15,-0.5
2020-08-12 19:31:32.4340,-0.29,-0.09,-0.04
2020-08-12 19:31:32.5330,-0.03,-0.09,-0.09
2020-08-12 19:31:32.6320,-0.07,0.0,0.03
2020-08-12 19:31:32.7320,-0.02,-0.03,-0.07
2020-08-12 19:31:32.8310,0.04,-0.05,-0.1
2020-08-12 19:31:32.9300,-0.01,-0.05,-0.18
2020-08-12 19:31:33.0290,0.01,-0.05,-0.06
2020-08-12 19:31:33.1290,0.1,-0.14,-0.09
2020-08-12 19:31:33.2280,0.37,-0.47,-0.05
2020-08-12 19:31:33.3270,0.24,-0.34,0.02
2020-08-12 19:31:33.4260,0.16,0.1,0.17
2020-08-12 19:31:33.5260,0.59,0.25,-0.35
2020-08-12 19:31:33.6250,0.18,-0.07,-0.2
2020-08-12 19:31:33.7240,-0.25,-0.42,-0.04
2020-08-12 19:31:33.8240,-1.0,-0.2,0.22
2020-08-12 19:31:33.9230,-1.12,-0.14,-0.11
2020-08-12 19:31:34.0220,-0.83,-0.41,0.18
2020-08-12 19:31:34.1210,-0.05,-0.01,-0.22
2020-08-12 19:31:34.2210,-0.09,0.02,0.07
2020-08-12 19:31:34.3200,-0.08,0.0,-0.06
2020-08-12 19:31:34.4190,-0.01,-0.04,-0.08
2020-08-12 19:31:34.5180,-0.02,-0.04,-0.07
2020-08-12 19:31:34.6180,0.07,-0.07,-0.11
2020-08-12 19:31:34.7170,0.07,-0.14,-0.11
2020-08-12 19:31:34.8160,0.31,-0.35,-0.06
2020-08-12 19:31:34.9160,0.3,-0.37,-0.07
2020-08-12 19:31:35.0150,0.39,0.09,0.03
2020-08-12 19:31:35.1140,0.64,0.13,-0.34
2020-08-12 19:31:35.2140,0.14,-0.02,-0.23
2020-08-12 19:31:35.3130,-0.36,-0.44,-0.01
2020-08-12 19:31:35.4120,-1.07,-0.12,0.37
2020-08-12 19:31:35.5110,-0.75,-0.05,0.04
2020-08-12 19:31:35.6110,-0.3,-0.17,0.16
2020-08-12 19:31:35.7100,-0.26,-0.15,-0.01
2020-08-12 19:31:35.8090,-0.03,-0.02,-0.04
2020-08-12 19:31:35.9080,-0.03,-0.03,-0.12
2020-08-12 19:31:36.0080,-0.02,-0.03,-0.04
2020-08-12 19:31:36.1070,0.02,-0.04,-0.08
2020-08-12 19:31:36.2060,-0.01,-0.03,-0.1
2020-08-12 19:31:36.3050,0.02,-0.06,-0.09
2020-08-12 19:31:36.4050,0.15,-0.3,-0.1
2020-08-12 19:31:36.5040,0.46,-0.39,-0.11
2020-08-12 19:31:36.6030,0.56,-0.22,-0.02
2020-08-12 19:31:36.7020,0.6,0.11,-0.09
2020-08-12 19:31:36.8020,0.38,0.11,-0.24
2020-08-12 19:31:36.9010,-0.0,-0.13,-0.08
2020-08-12 19:31:37.0000,-0.98,-0.85,0.26
2020-08-12 19:31:37.1000,-1.1,-0.11,0.26
2020-08-12 19:31:37.1990,0.38,-0.4,-0.4
2020-08-12 19:31:37.2980,-0.24,0.23,0.1
2020-08-12 19:31:37.3970,0.09,-0.1,-0.12
2020-08-12 19:31:37.4970,-0.09,0.03,0.02
2020-08-12 19:31:37.5960,-0.01,-0.03,-0.16
2020-08-12 19:31:37.6950,0.02,-0.05,-0.1
2020-08-12 19:31:37.7940,0.02,-0.05,-0.12
2020-08-12 19:31:37.8940,0.02,-0.07,-0.05
2020-08-12 19:31:37.9930,0.2,-0.33,-0.13
2020-08-12 19:31:38.0920,0.5,-0.33,-0.07
2020-08-12 19:31:38.1920,0.45,-0.27,-0.02
2020-08-12 19:31:38.2910,0.59,0.11,-0.22
2020-08-12 19:31:38.3900,0.5,0.13,-0.22
2020-08-12 19:31:38.4890,-0.0,-0.12,-0.24
2020-08-12 19:31:38.5890,-0.84,-0.92,0.01
2020-08-12 19:31:38.6880,-1.25,0.05,0.36
2020-08-12 19:31:38.7870,-0.22,-0.23,-0.14
2020-08-12 19:31:38.8860,-0.18,0.19,0.12
2020-08-12 19:31:38.9860,-0.0,-0.05,-0.14
2020-08-12 19:31:39.0850,-0.07,-0.0,-0.04
2020-08-12 19:31:39.1840,0.08,-0.02,0.02
2020-08-12 19:31:39.2840,-0.02,-0.03,-0.14
2020-08-12 19:31:39.3830,-0.01,-0.05,-0.13
2020-08-12 19:31:39.4820,0.07,-0.12,-0.07
2020-08-12 19:31:39.5810,0.26,-0.3,-0.06
2020-08-12 19:31:39.6810,0.43,-0.39,-0.19
2020-08-12 19:31:39.7800,0.34,-0.05,0.06
2020-08-12 19:31:39.8790,0.62,0.22,-0.38
2020-08-12 19:31:39.9780,0.25,0.08,-0.12
2020-08-12 19:31:40.0780,-0.12,-0.25,-0.23
2020-08-12 19:31:40.1770,-1.08,-0.29,0.48
2020-08-12 19:31:40.2760,-0.87,-0.36,0.08
2020-08-12 19:31:40.3750,-0.71,-0.17,0.11
2020-08-12 19:31:40.4750,-0.06,-0.02,-0.02
2020-08-12 19:31:40.5740,-0.0,-0.06,-0.14
2020-08-12 19:31:40.6730,-0.11,0.01,-0.06
2020-08-12 19:31:40.7730,-0.09,-0.0,-0.12
2020-08-12 19:31:40.8720,-0.01,-0.04,-0.05
2020-08-12 19:31:40.9710,0.1,-0.09,-0.08
2020-08-12 19:31:41.0700,0.13,-0.19,-0.05
2020-08-12 19:31:41.1700,0.4,-0.54,-0.1
2020-08-12 19:31:41.2690,0.4,-0.42,0.13
2020-08-12 19:31:41.3680,0.39,0.1,0.03
2020-08-12 19:31:41.4680,0.51,0.17,-0.39
2020-08-12 19:31:41.5670,-0.12,-0.15,-0.26
2020-08-12 19:31:41.6660,-0.71,-0.77,0.03
2020-08-12 19:31:41.7650,-0.95,-0.02,0.25
2020-08-12 19:31:41.8640,0.87,-0.23,-0.15
2020-08-12 19:31:41.9640,-0.39,-0.35,0.08
2020-08-12 19:31:42.0630,0.19,-0.15,-0.1
2020-08-12 19:31:42.1620,-0.11,-0.0,-0.08
2020-08-12 19:31:42.2620,-0.07,0.0,-0.08
2020-08-12 19:31:42.3610,0.03,-0.06,-0.09
2020-08-12 19:31:42.4600,-0.03,-0.03,-0.06
2020-08-12 19:31:42.5600,0.09,-0.1,-0.07
2020-08-12 19:31:42.6590,0.23,-0.25,-0.09
2020-08-12 19:31:42.7580,0.42,-0.45,0.03
2020-08-12 19:31:42.8570,0.63,-0.3,0.12
2020-08-12 19:31:42.9570,0.75,0.27,-0.1
2020-08-12 19:31:43.0560,0.33,0.08,-0.22
2020-08-12 19:31:43.1550,-0.06,-0.12,-0.19
2020-08-12 19:31:43.2540,-0.6,-0.59,-0.11
2020-08-12 19:31:43.3540,-1.28,0.06,0.45
2020-08-12 19:31:43.4530,0.24,-0.48,-0.55
2020-08-12 19:31:43.5520,-0.38,-0.01,-0.04
2020-08-12 19:31:43.6510,0.13,-0.09,-0.12
2020-08-12 19:31:43.7510,-0.07,-0.02,-0.02
2020-08-12 19:31:43.8500,-0.02,-0.03,-0.1
2020-08-12 19:31:43.9490,-0.05,-0.01,-0.07
2020-08-12 19:31:44.0490,0.05,-0.07,-0.05
2020-08-12 19:31:44.1480,0.17,-0.14,0.02
2020-08-12 19:31:44.2470,0.44,-0.55,-0.03
2020-08-12 19:31:44.3460,0.19,-0.32,0.07
2020-08-12 19:31:44.4460,0.24,-0.19,0.05
2020-08-12 19:31:44.5450,0.64,0.16,-0.26
2020-08-12 19:31:44.6440,0.03,-0.09,-0.09
2020-08-12 19:31:44.7430,-0.36,-0.48,0.09
2020-08-12 19:31:44.8430,-1.18,-0.09,0.39
2020-08-12 19:31:44.9420,0.11,-0.19,-0.46
2020-08-12 19:31:45.0410,-0.41,-0.2,0.01
2020-08-12 19:31:45.1410,-0.08,-0.03,-0.06
2020-08-12 19:31:45.2400,-0.03,-0.02,0.01
2020-08-12 19:31:45.3390,-0.05,-0.05,-0.16
2020-08-12 19:31:45.4380,-0.04,-0.02,-0.07
2020-08-12 19:31:45.5370,-0.03,-0.02,-0.04
2020-08-12 19:31:45.6370,0.08,-0.09,-0.09
2020-08-12 19:31:45.7360,0.13,-0.17,-0.04
2020-08-12 19:31:45.8350,0.52,-0.58,-0.15
2020-08-12 19:31:45.9350,0.3,-0.48,0.12
2020-08-12 19:31:46.0340,0.62,0.11,0.04
2020-08-12 19:31:46.1330,0.58,0.18,-0.29
2020-08-12 19:31:46.2320,-0.06,-0.19,-0.14
2020-08-12 19:31:46.3320,-0.65,-0.86,-0.01
2020-08-12 19:31:46.4310,-1.26,-0.01,0.28
2020-08-12 19:31:46.5300,1.11,-0.52,-0.68
2020-08-12 19:31:46.6300,-0.34,0.06,-0.22
2020-08-12 19:31:46.7290,0.04,-0.1,-0.16
2020-08-12 19:31:46.8280,-0.08,-0.01,-0.01
2020-08-12 19:31:46.9270,-0.09,-0.05,-0.29
2020-08-12 19:31:47.0270,-0.06,-0.01,-0.04
2020-08-12 19:31:47.1260,0.01,-0.04,-0.13
2020-08-12 19:31:47.2250,0.09,-0.1,-0.04
2020-08-12 19:31:47.3250,0.21,-0.25,-0.0
2020-08-12 19:31:47.4240,0.57,-0.57,-0.08
2020-08-12 19:31:47.5230,0.44,-0.08,-0.0
2020-08-12 19:31:47.6220,0.7,0.31,-0.3
2020-08-12 19:31:47.7210,0.27,0.03,-0.15
2020-08-12 19:31:47.8210,-0.15,-0.37,-0.05
2020-08-12 19:31:47.9200,-0.77,-0.52,0.08
2020-08-12 19:31:48.0190,-0.87,0.01,0.09
2020-08-12 19:31:48.1190,0.85,-0.34,-0.7
2020-08-12 19:31:48.2180,-0.38,-0.04,-0.18
2020-08-12 19:31:48.3170,-0.05,-0.17,-0.19
2020-08-12 19:31:48.4160,-0.06,-0.04,0.1
2020-08-12 19:31:48.5160,0.07,-0.07,-0.13
2020-08-12 19:31:48.6150,-0.06,-0.09,-0.04
2020-08-12 19:31:48.7140,-0.03,-0.02,-0.07
2020-08-12 19:31:48.8140,0.15,-0.12,-0.08
2020-08-12 19:31:48.9130,0.19,-0.33,-0.1
2020-08-12 19:31:49.0120,0.34,-0.52,-0.05
2020-08-12 19:31:49.1110,0.4,-0.34,-0.02
2020-08-12 19:31:49.2110,0.81,0.33,-0.04
2020-08-12 19:31:49.3100,0.48,0.07,-0.32
2020-08-12 19:31:49.4090,-0.12,-0.29,-0.1
2020-08-12 19:31:49.5090,-0.62,-0.71,-0.06
2020-08-12 19:31:49.6080,-0.94,-0.06,0.25
2020-08-12 19:31:49.7070,0.76,-0.31,-0.48
2020-08-12 19:31:49.8060,-0.42,-0.11,0.14
2020-08-12 19:31:49.9060,-0.0,-0.26,-0.08
2020-08-12 19:31:50.0050,-0.11,0.01,-0.03
2020-08-12 19:31:50.1040,0.01,-0.06,-0.15
2020-08-12 19:31:50.2030,-0.04,-0.03,-0.08
2020-08-12 19:31:50.3020,-0.01,-0.06,-0.12
2020-08-12 19:31:50.4020,0.08,-0.09,-0.04
2020-08-12 19:31:50.5010,0.25,-0.32,-0.13
2020-08-12 19:31:50.6000,0.58,-0.52,-0.09
2020-08-12 19:31:50.7000,0.49,-0.16,0.08
2020-08-12 19:31:50.7990,0.6,0.3,-0.19
2020-08-12 19:31:50.8980,0.42,0.02,-0.24
2020-08-12 19:31:50.9980,-0.24,-0.57,-0.09
2020-08-12 19:31:51.0970,-1.19,-0.29,0.43
2020-08-12 19:31:51.1960,0.5,-0.16,-0.73
2020-08-12 19:31:51.2950,-0.51,-0.28,0.1
2020-08-12 19:31:51.3950,0.1,-0.07,-0.16
2020-08-12 19:31:51.4940,-0.1,-0.03,-0.08
2020-08-12 19:31:51.5930,0.04,-0.03,-0.07
2020-08-12 19:31:51.6920,-0.0,-0.04,-0.13
2020-08-12 19:31:51.7920,0.01,-0.05,-0.13
2020-08-12 19:31:51.8910,0.13,-0.14,-0.12
2020-08-12 19:31:51.9900,0.24,-0.33,-0.12
2020-08-12 19:31:52.0890,0.41,-0.41,-0.07
2020-08-12 19:31:52.1890,0.5,-0.22,0.07
2020-08-12 19:31:52.2880,0.33,0.04,-0.22
2020-08-12 19:31:52.3870,0.46,0.09,-0.33
2020-08-12 19:31:52.4860,-0.19,-0.3,0.11
2020-08-12 19:31:52.5860,-1.01,-0.48,0.29
2020-08-12 19:31:52.6850,-0.82,-0.08,-0.04
2020-08-12 19:31:52.7840,-0.42,-0.18,0.43
2020-08-12 19:31:52.8840,-0.42,0.02,0.06
2020-08-12 19:31:52.9830,0.01,-0.02,-0.09
2020-08-12 19:31:53.0820,-0.03,-0.02,-0.13
2020-08-12 19:31:53.1810,-0.04,-0.02,-0.02
2020-08-12 19:31:53.2810,-0.04,-0.02,-0.11
2020-08-12 19:31:53.3800,0.13,-0.1,-0.07
2020-08-12 19:31:53.4800,0.16,-0.31,-0.14
2020-08-12 19:31:53.5780,0.48,-0.48,-0.11
2020-08-12 19:31:53.6780,0.42,-0.52,0.06
2020-08-12 19:31:53.7770,0.47,-0.08,-0.04
2020-08-12 19:31:53.8760,0.53,0.17,-0.26
2020-08-12 19:31:53.9760,-0.13,-0.23,-0.09
2020-08-12 19:31:54.0750,-0.77,-0.79,0.03
2020-08-12 19:31:54.1740,-1.08,-0.07,0.23
2020-08-12 19:31:54.2730,0.0,-0.6,-0.49
2020-08-12 19:31:54.3730,-0.48,-0.01,0.11
2020-08-12 19:31:54.4720,0.07,-0.05,-0.23
2020-08-12 19:31:54.5710,-0.12,-0.01,0.08
2020-08-12 19:31:54.6700,-0.06,-0.05,-0.16
2020-08-12 19:31:54.7700,-0.12,-0.0,-0.11
2020-08-12 19:31:54.8690,0.02,-0.05,-0.15
2020-08-12 19:31:54.9680,0.12,-0.13,-0.11
2020-08-12 19:31:55.0670,0.16,-0.39,-0.11
2020-08-12 19:31:55.1670,0.59,-0.5,-0.05
2020-08-12 19:31:55.2660,0.51,-0.1,0.07
2020-08-12 19:31:55.3650,0.69,0.37,-0.24
2020-08-12 19:31:55.4650,0.21,-0.02,-0.21
2020-08-12 19:31:55.5640,-0.34,-0.59,-0.07
2020-08-12 19:31:55.6630,-1.28,-0.21,0.44
2020-08-12 19:31:55.7620,-0.76,-0.19,-0.09
2020-08-12 19:31:55.8620,-0.31,-0.37,-0.0
2020-08-12 19:31:55.9610,-0.24,-0.13,0.02
2020-08-12 19:31:56.0600,-0.02,-0.01,-0.04
2020-08-12 19:31:56.1600,0.03,-0.05,-0.07
2020-08-12 19:31:56.2590,-0.01,-0.04,-0.06
2020-08-12 19:31:56.3580,0.01,-0.04,-0.07
2020-08-12 19:31:56.4570,0.11,-0.11,-0.12
2020-08-12 19:31:56.5570,0.28,-0.4,-0.05
2020-08-12 19:31:56.6560,0.62,-0.59,-0.07
2020-08-12 19:31:56.7550,0.57,-0.3,0.03
2020-08-12 19:31:56.8540,0.54,0.25,-0.18
2020-08-12 19:31:56.9540,0.41,0.01,-0.3
2020-08-12 19:31:57.0530,-0.23,-0.49,-0.13
2020-08-12 19:31:57.1520,-1.22,-0.38,0.53
2020-08-12 19:31:57.2510,-0.72,-0.25,0.0
2020-08-12 19:31:57.3510,-0.44,-0.07,0.16
2020-08-12 19:31:57.4500,-0.22,-0.09,-0.11
2020-08-12 19:31:57.5490,-0.04,-0.03,-0.06
2020-08-12 19:31:57.6490,0.03,-0.05,-0.07
2020-08-12 19:31:57.7480,0.0,-0.05,-0.12
2020-08-12 19:31:57.8470,-0.03,-0.03,-0.06
2020-08-12 19:31:57.9460,0.14,-0.16,-0.06
2020-08-12 19:31:58.0460,0.28,-0.37,-0.03
2020-08-12 19:31:58.1450,0.48,-0.41,-0.08
2020-08-12 19:31:58.2440,0.46,0.07,0.12
2020-08-12 19:31:58.3440,0.51,0.14,-0.31
2020-08-12 19:31:58.4430,0.3,-0.02,-0.15
2020-08-12 19:31:58.5420,-0.16,-0.4,0.01
2020-08-12 19:31:58.6410,-1.05,-0.47,0.11
2020-08-12 19:31:58.7410,-0.87,-0.07,0.14
2020-08-12 19:31:58.8400,-0.64,-0.41,0.37
2020-08-12 19:31:58.9390,-0.5,-0.09,0.21
2020-08-12 19:31:59.0380,-0.0,-0.01,-0.03
2020-08-12 19:31:59.1380,-0.0,-0.04,-0.04
2020-08-12 19:31:59.2370,0.06,-0.06,-0.08
2020-08-12 19:31:59.3360,-0.0,-0.04,-0.11
2020-08-12 19:31:59.4350,0.03,-0.08,-0.06
2020-08-12 19:31:59.5350,0.12,-0.23,-0.18
2020-08-12 19:31:59.6340,0.45,-0.52,-0.02
2020-08-12 19:31:59.7330,0.61,-0.36,0.07
2020-08-12 19:31:59.8330,0.71,0.04,-0.09
2020-08-12 19:31:59.9320,0.63,0.13,-0.38
2020-08-12 19:32:00.0310,-0.05,-0.1,-0.11
2020-08-12 19:32:00.1300,-0.65,-0.55,0.05
2020-08-12 19:32:00.2300,-1.47,0.01,0.46
2020-08-12 19:32:00.3290,-0.37,-0.35,0.04
2020-08-12 19:32:00.4280,-0.2,0.06,0.06
2020-08-12 19:32:00.5270,-0.03,-0.01,-0.09
2020-08-12 19:32:00.6270,-0.04,-0.03,-0.06
2020-08-12 19:32:00.7260,-0.03,-0.04,-0.11
2020-08-12 19:32:00.8250,-0.03,-0.02,-0.09
2020-08-12 19:32:00.9250,0.03,-0.07,-0.11
2020-08-12 19:32:01.0240,0.03,-0.1,-0.1
2020-08-12 19:32:01.1230,0.2,-0.29,-0.06
2020-08-12 19:32:01.2220,0.41,-0.36,-0.04
2020-08-12 19:32:01.3220,0.69,-0.18,0.03
2020-08-12 19:32:01.4210,0.88,0.27,-0.45
2020-08-12 19:32:01.5200,0.19,0.04,-0.2
2020-08-12 19:32:01.6200,-0.09,-0.13,-0.18
2020-08-12 19:32:01.7190,-1.04,-0.59,0.33
2020-08-12 19:32:01.8180,-1.31,-0.23,0.18
2020-08-12 19:32:01.9170,-0.65,-0.12,-0.02
2020-08-12 19:32:02.0170,0.03,-0.08,-0.08
2020-08-12 19:32:02.1160,-0.04,-0.03,-0.08
2020-08-12 19:32:02.2150,-0.04,-0.02,-0.09
2020-08-12 19:32:02.3140,-0.04,-0.03,-0.08
2020-08-12 19:32:02.4140,0.0,-0.06,-0.07
2020-08-12 19:32:02.5130,0.11,-0.1,-0.02
2020-08-12 19:32:02.6120,0.16,-0.31,-0.03
2020-08-12 19:32:02.7110,0.45,-0.52,-0.11
2020-08-12 19:32:02.8110,0.56,-0.2,-0.03
2020-08-12 19:32:02.9100,0.61,0.17,-0.31
2020-08-12 19:32:03.0090,0.27,-0.01,-0.17
2020-08-12 19:32:03.1090,-0.17,-0.29,-0.07
2020-08-12 19:32:03.2080,-0.87,-0.42,0.08
2020-08-12 19:32:03.3070,-1.04,-0.08,0.11
2020-08-12 19:32:03.4060,0.28,-0.53,-0.49
2020-08-12 19:32:03.5060,-0.2,0.1,0.01
2020-08-12 19:32:03.6050,0.1,-0.17,-0.1
2020-08-12 19:32:03.7040,-0.12,-0.02,0.0
2020-08-12 19:32:03.8030,0.03,-0.05,-0.1
2020-08-12 19:32:03.9030,0.04,-0.02,-0.04
2020-08-12 19:32:04.0020,0.01,-0.07,-0.21
2020-08-12 19:32:04.1010,0.09,-0.1,-0.04
2020-08-12 19:32:04.2000,0.18,-0.33,-0.06
2020-08-12 19:32:04.3000,0.52,-0.59,-0.12
2020-08-12 19:32:04.3990,0.38,0.0,0.06
2020-08-12 19:32:04.4980,0.59,0.23,-0.27
2020-08-12 19:32:04.5980,0.17,0.06,-0.15
2020-08-12 19:32:04.6970,-0.32,-0.41,0.11
2020-08-12 19:32:04.7960,-1.0,-0.21,0.08
2020-08-12 19:32:04.8950,0.22,-0.12,-0.56
2020-08-12 19:32:04.9950,-0.62,-0.28,0.03
2020-08-12 19:32:05.0940,-0.1,-0.04,-0.16
2020-08-12 19:32:05.1930,-0.07,-0.02,0.0
2020-08-12 19:32:05.2920,0.03,-0.06,-0.07
2020-08-12 19:32:05.3920,-0.0,-0.04,-0.12
2020-08-12 19:32:05.4910,-0.02,-0.04,-0.1
2020-08-12 19:32:05.5900,0.05,-0.08,-0.08
2020-08-12 19:32:05.6900,0.15,-0.24,-0.11
2020-08-12 19:32:05.7890,0.41,-0.47,-0.16
2020-08-12 19:32:05.8880,0.31,-0.43,0.04
2020-08-12 19:32:05.9870,0.38,0.03,0.06
2020-08-12 19:32:06.0870,0.57,0.24,-0.25
2020-08-12 19:32:06.1860,0.0,-0.08,-0.09
2020-08-12 19:32:06.2850,-0.54,-0.74,0.1
2020-08-12 19:32:06.3840,-1.13,-0.06,0.1
2020-08-12 19:32:06.4840,1.13,-0.35,-1.08
2020-08-12 19:32:06.5830,-0.48,-0.18,0.02
2020-08-12 19:32:06.6820,0.04,-0.09,-0.14
2020-08-12 19:32:06.7810,-0.09,-0.01,-0.04
2020-08-12 19:32:06.8810,-0.02,-0.03,-0.03
2020-08-12 19:32:06.9800,-0.02,-0.05,-0.11
2020-08-12 19:32:07.0790,-0.01,-0.03,-0.09
2020-08-12 19:32:07.1790,0.15,-0.16,-0.05
2020-08-12 19:32:07.2780,0.22,-0.35,-0.07
2020-08-12 19:32:07.3770,0.47,-0.42,-0.06
2020-08-12 19:32:07.4760,0.58,-0.13,-0.07
2020-08-12 19:32:07.5750,0.49,0.19,-0.27
2020-08-12 19:32:07.6750,0.18,0.05,-0.14
2020-08-12 19:32:07.7740,-0.19,-0.38,-0.1
2020-08-12 19:32:07.8730,-1.09,-0.57,0.15
2020-08-12 19:32:07.9730,-1.0,-0.14,0.17
2020-08-12 19:32:08.0720,-0.29,-0.24,-0.01
2020-08-12 19:32:08.1710,-0.19,-0.02,0.02
2020-08-12 19:32:08.2710,-0.05,-0.01,0.01
2020-08-12 19:32:08.3700,0.0,-0.05,-0.18
2020-08-12 19:32:08.4690,0.02,-0.03,-0.11
2020-08-12 19:32:08.5680,-0.05,-0.07,-0.16
2020-08-12 19:32:08.6680,0.05,-0.1,-0.07
2020-08-12 19:32:08.7670,0.19,-0.33,-0.09
2020-08-12 19:32:08.8660,0.46,-0.46,0.01
2020-08-12 19:32:08.9650,0.38,-0.37,0.09
2020-08-12 19:32:09.0650,0.84,0.16,-0.17
2020-08-12 19:32:09.1640,0.34,0.24,-0.2
2020-08-12 19:32:09.2630,-0.03,-0.12,-0.1
2020-08-12 19:32:09.3630,-0.57,-0.63,-0.09
2020-08-12 19:32:09.4620,-1.32,-0.05,0.37
2020-08-12 19:32:09.5610,0.55,-0.53,-0.7
2020-08-12 19:32:09.6610,-0.38,-0.2,0.32
2020-08-12 19:32:09.7600,0.0,-0.05,-0.24
2020-08-12 19:32:09.8590,-0.06,-0.03,-0.09
2020-08-12 19:32:09.9580,-0.04,-0.03,-0.08
2020-08-12 19:32:10.0580,-0.08,-0.04,-0.23
2020-08-12 19:32:10.1570,-0.01,-0.04,-0.08
2020-08-12 19:32:10.2560,0.06,-0.1,-0.08
2020-08-12 19:32:10.3550,0.13,-0.21,0.01
2020-08-12 19:32:10.4550,0.38,-0.45,-0.11
2020-08-12 19:32:10.5540,0.2,-0.33,0.05
2020-08-12 19:32:10.6530,0.23,-0.03,0.03
2020-08-12 19:32:10.7520,0.45,0.14,-0.31
2020-08-12 19:32:10.8520,0.0,-0.1,-0.16
2020-08-12 19:32:10.9510,-0.43,-0.43,-0.04
2020-08-12 19:32:11.0500,-0.98,-0.11,0.25
2020-08-12 19:32:11.1490,0.07,-0.13,-0.47
2020-08-12 19:32:11.2490,-0.41,-0.12,-0.11
2020-08-12 19:32:11.3480,-0.06,-0.04,-0.1
2020-08-12 19:32:11.4470,-0.02,-0.03,-0.05
2020-08-12 19:32:11.5460,-0.04,-0.02,-0.13
2020-08-12 19:32:11.6460,-0.03,-0.04,-0.08
2020-08-12 19:32:11.7450,0.02,-0.05,-0.08
2020-08-12 19:32:11.8440,-0.01,-0.02,-0.08
2020-08-12 19:32:11.9440,0.11,-0.14,-0.12
2020-08-12 19:32:12.0430,0.24,-0.38,-0.11
2020-08-12 19:32:12.1420,0.49,-0.42,0.0
2020-08-12 19:32:12.2410,0.43,-0.04,0.14
2020-08-12 19:32:12.3410,0.65,0.33,-0.25
2020-08-12 19:32:12.4400,0.15,-0.04,-0.15
2020-08-12 19:32:12.5390,-0.32,-0.54,0.11
2020-08-12 19:32:12.6380,-1.07,-0.14,0.4
2020-08-12 19:32:12.7380,-0.15,-0.07,-0.67
2020-08-12 19:32:12.8370,-0.22,0.1,-0.21
2020-08-12 19:32:12.9360,-0.08,-0.05,-0.32
2020-08-12 19:32:13.0360,-0.11,-0.0,0.03
2020-08-12 19:32:13.1350,-0.0,-0.07,-0.03
2020-08-12 19:32:13.2340,-0.02,-0.03,-0.11
2020-08-12 19:32:13.3330,-0.03,-0.04,-0.12
2020-08-12 19:32:13.4330,0.07,-0.07,-0.06
2020-08-12 19:32:13.5320,0.14,-0.16,-0.06
2020-08-12 19:32:13.6310,0.44,-0.44,-0.08
2020-08-12 19:32:13.7310,0.26,-0.46,0.06
2020-08-12 19:32:13.8300,0.99,0.21,-0.09
2020-08-12 19:32:13.9290,0.53,0.11,-0.3
2020-08-12 19:32:14.0280,-0.07,-0.23,-0.09
2020-08-12 19:32:14.1280,-0.67,-0.71,0.04
2020-08-12 19:32:14.2270,-1.15,0.04,0.38
2020-08-12 19:32:14.3260,0.02,-0.35,-0.3
2020-08-12 19:32:14.4260,-0.27,0.12,0.02
2020-08-12 19:32:14.5250,0.16,0.03,0.0
2020-08-12 19:32:14.6240,-0.04,-0.03,-0.12
2020-08-12 19:32:14.7230,0.02,-0.02,-0.05
2020-08-12 19:32:14.8220,-0.02,-0.03,-0.06
2020-08-12 19:32:14.9220,0.03,-0.05,-0.08
2020-08-12 19:32:15.0210,0.08,-0.09,-0.07
2020-08-12 19:32:15.1200,0.18,-0.27,-0.14
2020-08-12 19:32:15.2190,0.42,-0.49,-0.05
2020-08-12 19:32:15.3190,0.47,-0.25,0.04
2020-08-12 19:32:15.4180,0.91,0.33,-0.34
2020-08-12 19:32:15.5170,0.31,0.13,-0.26
2020-08-12 19:32:15.6170,-0.22,-0.31,-0.04
2020-08-12 19:32:15.7160,-0.96,-0.44,0.21
2020-08-12 19:32:15.8150,-0.9,-0.1,0.12
2020-08-12 19:32:15.9140,-0.55,-0.59,0.17
2020-08-12 19:32:16.0140,-0.3,0.02,0.15
2020-08-12 19:32:16.1130,0.07,-0.07,-0.19
2020-08-12 19:32:16.2120,-0.13,0.0,0.0
2020-08-12 19:32:16.3110,-0.08,-0.01,-0.08
2020-08-12 19:32:16.4110,-0.04,-0.04,-0.11
2020-08-12 19:32:16.5100,0.03,-0.06,-0.08
2020-08-12 19:32:16.6090,0.05,-0.11,-0.07
2020-08-12 19:32:16.7090,0.13,-0.27,0.01
2020-08-12 19:32:16.8080,0.52,-0.5,-0.16
2020-08-12 19:32:16.9070,0.5,-0.15,0.08
2020-08-12 19:32:17.0060,0.55,0.19,-0.23
2020-08-12 19:32:17.1060,0.2,0.05,-0.17
2020-08-12 19:32:17.2050,-0.27,-0.36,-0.03
2020-08-12 19:32:17.3040,-1.06,-0.33,0.3
2020-08-12 19:32:17.4030,-0.86,-0.28,-0.05
2020-08-12 19:32:17.5030,-0.3,-0.2,0.17
2020-08-12 19:32:17.6020,-0.3,-0.17,-0.07
2020-08-12 19:32:17.7020,0.0,-0.02,0.03
2020-08-12 19:32:17.8010,-0.11,-0.01,-0.03
2020-08-12 19:32:17.9000,-0.01,-0.02,0.01
2020-08-12 19:32:17.9990,-0.05,-0.05,-0.24
2020-08-12 19:32:18.0980,0.04,-0.08,-0.09
2020-08-12 19:32:18.1980,0.07,-0.13,-0.07
2020-08-12 19:32:18.2970,0.22,-0.29,-0.02
2020-08-12 19:32:18.3960,0.45,-0.43,-0.11
2020-08-12 19:32:18.4950,0.3,0.03,0.17
2020-08-12 19:32:18.5950,0.79,0.25,-0.34
2020-08-12 19:32:18.6940,0.2,-0.07,-0.15
2020-08-12 19:32:18.7930,-0.22,-0.37,-0.04
2020-08-12 19:32:18.8930,-1.19,-0.04,0.31
2020-08-12 19:32:18.9920,0.46,-0.13,-0.26
2020-08-12 19:32:19.0910,-0.41,0.02,-0.21
2020-08-12 19:32:19.1900,-0.07,-0.05,-0.05
2020-08-12 19:32:19.2900,-0.09,-0.02,-0.04
2020-08-12 19:32:19.3890,0.0,-0.05,-0.06
2020-08-12 19:32:19.4880,0.03,-0.06,-0.09
2020-08-12 19:32:19.5870,0.06,-0.06,-0.09
2020-08-12 19:32:19.6870,0.08,-0.08,-0.09
2020-08-12 19:32:19.7860,0.15,-0.16,0.0
2020-08-12 19:32:19.8850,0.43,-0.62,-0.11
2020-08-12 19:32:19.9850,0.3,-0.48,0.14
2020-08-12 19:32:20.0840,0.31,-0.13,-0.07
2020-08-12 19:32:20.1830,0.62,0.23,-0.35
2020-08-12 19:32:20.2820,-0.09,-0.04,-0.17
2020-08-12 19:32:20.3820,-1.22,-0.54,0.48
2020-08-12 19:32:20.4810,-0.9,-0.02,0.23
2020-08-12 19:32:20.5800,-0.3,-0.26,0.05
2020-08-12 19:32:20.6800,-0.26,0.01,0.01
2020-08-12 19:32:20.7790,-0.02,-0.06,-0.13
2020-08-12 19:32:20.8780,-0.04,-0.02,-0.05
2020-08-12 19:32:20.9770,-0.05,0.0,-0.07
2020-08-12 19:32:21.0770,-0.02,-0.05,-0.09
2020-08-12 19:32:21.1760,-0.01,-0.05,-0.14
2020-08-12 19:32:21.2750,0.05,-0.06,-0.07
2020-08-12 19:32:21.3740,0.13,-0.22,-0.09
2020-08-12 19:32:21.4730,0.47,-0.63,-0.12
2020-08-12 19:32:21.5730,0.4,-0.34,0.02
2020-08-12 19:32:21.6720,0.64,-0.0,-0.11
2020-08-12 19:32:21.7710,0.34,0.24,-0.25
2020-08-12 19:32:21.8710,0.01,-0.03,-0.1
2020-08-12 19:32:21.9700,-0.79,-0.7,0.16
2020-08-12 19:32:22.0690,-0.92,-0.04,0.2
2020-08-12 19:32:22.1680,0.14,-0.56,-0.48
2020-08-12 19:32:22.2680,-0.55,-0.17,0.02
2020-08-12 19:32:22.3670,0.13,-0.14,-0.16
2020-08-12 19:32:22.4660,-0.04,-0.02,0.07
2020-08-12 19:32:22.5660,-0.09,-0.02,-0.14
2020-08-12 19:32:22.6650,-0.03,-0.03,-0.11
2020-08-12 19:32:22.7640,-0.06,-0.03,-0.08
2020-08-12 19:32:22.8630,0.08,-0.11,-0.11
2020-08-12 19:32:22.9630,0.16,-0.34,-0.11
2020-08-12 19:32:23.0620,0.39,-0.49,-0.11
2020-08-12 19:32:23.1610,0.34,-0.18,0.07
2020-08-12 19:32:23.2600,0.69,0.39,-0.24
2020-08-12 19:32:23.3600,0.43,0.16,-0.19
2020-08-12 19:32:23.4590,-0.15,-0.38,-0.08
2020-08-12 19:32:23.5580,-1.06,-0.42,0.23
2020-08-12 19:32:23.6580,-1.18,-0.17,0.05
2020-08-12 19:32:23.7570,-0.07,-0.22,-0.04
2020-08-12 19:32:23.8560,-0.38,-0.05,0.01
2020-08-12 19:32:23.9550,0.08,-0.07,-0.03
2020-08-12 19:32:24.0540,-0.05,-0.01,-0.14
2020-08-12 19:32:24.1540,-0.03,-0.04,-0.13
2020-08-12 19:32:24.2530,-0.0,-0.04,-0.07
2020-08-12 19:32:24.3520,0.04,-0.07,-0.1
2020-08-12 19:32:24.4520,0.07,-0.11,-0.1
2020-08-12 19:32:24.5510,0.33,-0.41,-0.06
2020-08-12 19:32:24.6500,0.4,-0.49,-0.09
2020-08-12 19:32:24.7490,0.41,0.04,0.02
2020-08-12 19:32:24.8490,0.57,0.31,-0.33
2020-08-12 19:32:24.9480,0.2,-0.05,-0.21
2020-08-12 19:32:25.0470,-0.38,-0.66,0.0
2020-08-12 19:32:25.1470,-1.02,-0.08,0.29
2020-08-12 19:32:25.2460,-0.2,-0.14,-0.45
2020-08-12 19:32:25.3450,-0.36,-0.15,-0.04
2020-08-12 19:32:25.4450,-0.07,-0.04,-0.06
2020-08-12 19:32:25.5440,-0.09,-0.01,0.05
2020-08-12 19:32:25.6430,-0.1,0.0,-0.17
2020-08-12 19:32:25.7420,-0.02,-0.04,-0.12
2020-08-12 19:32:25.8410,-0.02,-0.04,-0.07
2020-08-12 19:32:25.9410,0.04,-0.06,-0.11
2020-08-12 19:32:26.0400,0.21,-0.28,-0.02
2020-08-12 19:32:26.1390,0.36,-0.49,-0.07
2020-08-12 19:32:26.2380,0.39,-0.22,-0.0
2020-08-12 19:32:26.3380,0.84,0.27,-0.21
2020-08-12 19:32:26.4370,0.41,0.18,-0.24
2020-08-12 19:32:26.5360,-0.08,-0.32,-0.19
2020-08-12 19:32:26.6360,-1.0,-0.57,0.24
2020-08-12 19:32:26.7350,-1.2,-0.3,0.12
2020-08-12 19:32:26.8340,-0.37,-0.1,-0.01
2020-08-12 19:32:26.9330,-0.19,0.02,-0.06
2020-08-12 19:32:27.0330,-0.01,-0.04,-0.09
2020-08-12 19:32:27.1320,-0.01,-0.03,-0.12
2020-08-12 19:32:27.2310,-0.1,-0.04,-0.13
2020-08-12 19:32:27.3300,0.0,-0.05,0.02
2020-08-12 19:32:27.4300,0.1,-0.11,-0.06
2020-08-12 19:32:27.5290,0.1,-0.15,-0.03
2020-08-12 19:32:27.6280,0.23,-0.44,-0.01
2020-08-12 19:32:27.7280,0.41,-0.4,-0.19
2020-08-12 19:32:27.8270,0.59,0.1,-0.07
2020-08-12 19:32:27.9260,0.36,0.21,-0.11
2020-08-12 19:32:28.0250,0.05,-0.08,-0.13
2020-08-12 19:32:28.1240,-0.98,-0.6,0.05
2020-08-12 19:32:28.2240,-0.92,-0.16,-0.01
2020-08-12 19:32:28.3230,-0.2,-0.04,0.09
2020-08-12 19:32:28.4230,-0.25,-0.04,-0.02
2020-08-12 19:32:28.5220,0.03,-0.05,-0.05
2020-08-12 19:32:28.6210,-0.02,-0.03,-0.08
2020-08-12 19:32:28.7200,-0.06,-0.03,-0.12
2020-08-12 19:32:28.8200,0.01,-0.06,-0.09
2020-08-12 19:32:28.9190,0.04,-0.08,-0.07
2020-08-12 19:32:29.0180,0.11,-0.13,-0.07
2020-08-12 19:32:29.1170,0.28,-0.41,-0.07
2020-08-12 19:32:29.2170,0.36,-0.4,0.03
2020-08-12 19:32:29.3160,0.37,0.05,0.14
2020-08-12 19:32:29.4150,0.7,0.32,-0.33
2020-08-12 19:32:29.5140,0.06,-0.13,-0.15
2020-08-12 19:32:29.6140,-0.25,-0.67,-0.26
2020-08-12 19:32:29.7130,-1.39,0.0,0.56
2020-08-12 19:32:29.8120,0.51,-0.71,-0.5
2020-08-12 19:32:29.9110,-0.23,0.12,0.02
2020-08-12 19:32:30.0110,0.06,-0.07,-0.12
2020-08-12 19:32:30.1100,-0.14,-0.01,0.0
2020-08-12 19:32:30.2090,-0.06,-0.02,-0.07
2020-08-12 19:32:30.3090,0.01,-0.04,-0.11
2020-08-12 19:32:30.4080,-0.06,-0.01,-0.11
2020-08-12 19:32:30.5070,0.05,-0.1,-0.11
2020-08-12 19:32:30.6060,0.29,-0.37,-0.02
2020-08-12 19:32:30.7060,0.44,-0.33,-0.18
2020-08-12 19:32:30.8050,0.44,-0.11,-0.03
2020-08-12 19:32:30.9040,0.48,0.27,-0.2
2020-08-12 19:32:31.0030,0.28,-0.02,-0.31
2020-08-12 19:32:31.1030,-0.17,-0.41,-0.09
2020-08-12 19:32:31.2020,-1.5,-0.29,0.39
2020-08-12 19:32:31.3010,0.06,-0.19,-0.16
2020-08-12 19:32:31.4010,-0.17,0.18,-0.31
2020-08-12 19:32:31.5000,0.05,-0.06,-0.12
2020-08-12 19:32:31.5990,-0.1,-0.0,-0.03
2020-08-12 19:32:31.6980,-0.0,-0.05,-0.06
2020-08-12 19:32:31.7980,-0.03,-0.03,-0.08
2020-08-12 19:32:31.8970,0.05,-0.03,-0.11
2020-08-12 19:32:31.9960,0.1,-0.1,-0.08
2020-08-12 19:32:32.0950,0.1,-0.14,-0.05
2020-08-12 19:32:32.1950,0.47,-0.52,-0.15
2020-08-12 19:32:32.2940,0.45,-0.45,0.04
2020-08-12 19:32:32.3930,0.38,0.04,-0.07
2020-08-12 19:32:32.4930,0.45,0.2,-0.25
2020-08-12 19:32:32.5920,0.03,-0.11,-0.17
2020-08-12 19:32:32.6910,-0.62,-0.57,0.12
2020-08-12 19:32:32.7900,-1.06,0.01,0.29
2020-08-12 19:32:32.8900,-0.23,-0.83,-0.28
2020-08-12 19:32:32.9890,-0.28,0.08,0.17
2020-08-12 19:32:33.0880,0.03,-0.03,-0.16
2020-08-12 19:32:33.1870,-0.1,-0.01,0.03
2020-08-12 19:32:33.2870,-0.05,-0.03,-0.16
2020-08-12 19:32:33.3860,-0.04,-0.04,-0.1
2020-08-12 19:32:33.4850,-0.08,0.0,-0.07
2020-08-12 19:32:33.5840,0.04,-0.08,-0.04
2020-08-12 19:32:33.6840,0.16,-0.25,-0.03
2020-08-12 19:32:33.7830,0.35,-0.5,-0.12
2020-08-12 19:32:33.8820,0.34,-0.4,0.05
2020-08-12 19:32:33.9820,0.5,0.05,0.08
2020-08-12 19:32:34.0810,0.48,0.16,-0.26
2020-08-12 19:32:34.1800,-0.19,-0.2,0.01
2020-08-12 19:32:34.2790,-0.7,-0.59,0.14
2020-08-12 19:32:34.3790,-1.13,-0.03,0.13
2020-08-12 19:32:34.4780,0.1,-0.83,-0.18
2020-08-12 19:32:34.5770,-0.3,0.16,-0.02
2020-08-12 19:32:34.6760,0.05,-0.08,-0.14
2020-08-12 19:32:34.7760,-0.08,-0.03,0.05
2020-08-12 19:32:34.8750,-0.07,-0.01,-0.11
2020-08-12 19:32:34.9740,-0.0,-0.04,-0.08
2020-08-12 19:32:35.0730,0.04,-0.07,-0.1
2020-08-12 19:32:35.1730,0.04,-0.06,-0.06
2020-08-12 19:32:35.2720,0.18,-0.24,-0.1
2020-08-12 19:32:35.3710,0.48,-0.52,-0.07
2020-08-12 19:32:35.4710,0.43,-0.26,0.08
2020-08-12 19:32:35.5700,0.78,0.26,-0.16
2020-08-12 19:32:35.6690,0.42,0.22,-0.26
2020-08-12 19:32:35.7680,-0.18,-0.31,-0.17
2020-08-12 19:32:35.8680,-0.98,-0.48,0.21
2020-08-12 19:32:35.9670,-0.77,-0.01,0.22
2020-08-12 19:32:36.0660,0.57,-0.42,-0.72
2020-08-12 19:32:36.1660,-0.43,-0.2,0.19
2020-08-12 19:32:36.2650,-0.05,-0.08,-0.37
2020-08-12 19:32:36.3640,-0.16,0.03,0.04
2020-08-12 19:32:36.4630,-0.04,-0.03,-0.03
2020-08-12 19:32:36.5630,0.01,-0.04,-0.05
2020-08-12 19:32:36.6620,-0.02,-0.03,-0.05
2020-08-12 19:32:36.7610,0.06,-0.08,-0.06
2020-08-12 19:32:36.8600,0.14,-0.19,-0.14
2020-08-12 19:32:36.9600,0.34,-0.4,-0.06
2020-08-12 19:32:37.0590,0.35,-0.38,0.0
2020-08-12 19:32:37.1580,0.28,-0.12,0.05
2020-08-12 19:32:37.2570,0.54,0.19,-0.23
2020-08-12 19:32:37.3570,-0.03,-0.14,-0.2
2020-08-12 19:32:37.4560,-0.78,-0.69,0.02
2020-08-12 19:32:37.5550,-1.04,0.01,0.23
2020-08-12 19:32:37.6550,-0.16,-0.43,-0.33
2020-08-12 19:32:37.7540,-0.18,0.1,0.06
2020-08-12 19:32:37.8530,0.02,-0.06,-0.14
2020-08-12 19:32:37.9520,-0.07,-0.02,-0.07
2020-08-12 19:32:38.0510,-0.02,-0.03,-0.04
2020-08-12 19:32:38.1510,-0.03,-0.02,-0.08
2020-08-12 19:32:38.2500,-0.01,-0.04,-0.09
2020-08-12 19:32:38.3490,0.06,-0.08,-0.07
2020-08-12 19:32:38.4490,0.12,-0.2,-0.07
2020-08-12 19:32:38.5480,0.38,-0.43,-0.07
2020-08-12 19:32:38.6470,0.27,-0.4,0.07
2020-08-12 19:32:38.7470,0.42,-0.03,0.0
2020-08-12 19:32:38.8460,0.4,0.18,-0.16
2020-08-12 19:32:38.9450,-0.16,-0.11,-0.15
2020-08-12 19:32:39.0440,-0.74,-0.75,0.09
2020-08-12 19:32:39.1430,-0.85,-0.02,0.28
2020-08-12 19:32:39.2430,-0.03,-0.21,-0.68
2020-08-12 19:32:39.3420,-0.51,-0.81,0.44
2020-08-12 19:32:39.4410,-0.06,-0.01,-0.23
2020-08-12 19:32:39.5410,-0.04,-0.01,0.1
2020-08-12 19:32:39.6400,-0.02,-0.02,-0.11
2020-08-12 19:32:39.7390,0.01,-0.07,-0.14
2020-08-12 19:32:39.8390,-0.07,0.01,-0.1
2020-08-12 19:32:39.9380,-0.03,-0.02,-0.05
2020-08-12 19:32:40.0370,0.07,-0.13,-0.1
2020-08-12 19:32:40.1360,0.24,-0.37,-0.09
2020-08-12 19:32:40.2360,0.37,-0.32,-0.17
2020-08-12 19:32:40.3350,0.42,-0.04,0.11
2020-08-12 19:32:40.4340,0.54,0.29,-0.17
2020-08-12 19:32:40.5330,0.22,0.01,-0.12
2020-08-12 19:32:40.6320,-0.18,-0.28,-0.01
2020-08-12 19:32:40.7320,-1.1,-0.43,0.23
2020-08-12 19:32:40.8310,-1.08,-0.12,0.01
2020-08-12 19:32:40.9310,-0.44,-0.07,0.37
2020-08-12 19:32:41.0300,-0.26,0.03,0.01
2020-08-12 19:32:41.1290,-0.04,-0.01,-0.02
2020-08-12 19:32:41.2280,0.02,-0.07,-0.12
2020-08-12 19:32:41.3280,-0.03,-0.03,-0.12
2020-08-12 19:32:41.4270,-0.06,-0.02,-0.07
2020-08-12 19:32:41.5260,0.02,-0.05,-0.08
2020-08-12 19:32:41.6250,0.14,-0.19,-0.12
2020-08-12 19:32:41.7250,0.33,-0.34,-0.03
2020-08-12 19:32:41.8240,0.31,-0.36,-0.03
2020-08-12 19:32:41.9230,0.29,0.03,0.14
2020-08-12 19:32:42.0220,0.43,0.2,-0.23
2020-08-12 19:32:42.1220,0.17,-0.05,-0.17
2020-08-12 19:32:42.2210,-0.3,-0.37,-0.13
2020-08-12 19:32:42.3200,-1.08,-0.18,0.25
2020-08-12 19:32:42.4190,0.29,-0.16,-0.25
2020-08-12 19:32:42.5190,-0.33,-0.06,-0.17
2020-08-12 19:32:42.6180,0.02,-0.08,-0.14
2020-08-12 19:32:42.7170,-0.14,0.03,-0.01
2020-08-12 19:32:42.8170,0.02,-0.06,-0.03
2020-08-12 19:32:42.9160,0.03,-0.06,-0.13
2020-08-12 19:32:43.0150,-0.07,-0.01,-0.07
2020-08-12 19:32:43.1140,0.06,-0.09,-0.09
2020-08-12 19:32:43.2140,0.14,-0.2,-0.09
2020-08-12 19:32:43.3130,0.28,-0.37,-0.11
2020-08-12 19:32:43.4120,0.28,-0.31,0.1
2020-08-12 19:32:43.5110,0.23,0.02,0.05
2020-08-12 19:32:43.6110,0.76,0.15,-0.43
2020-08-12 19:32:43.7100,0.05,-0.17,-0.14
2020-08-12 19:32:43.8090,-0.31,-0.47,-0.12
2020-08-12 19:32:43.9090,-1.11,-0.13,0.34
2020-08-12 19:32:44.0080,0.98,-0.3,-0.52
2020-08-12 19:32:44.1070,-0.53,-0.12,0.24
2020-08-12 19:32:44.2060,-0.04,-0.06,-0.19
2020-08-12 19:32:44.3060,-0.06,-0.02,-0.03
2020-08-12 19:32:44.4050,-0.03,-0.01,-0.13
2020-08-12 19:32:44.5040,0.0,-0.04,-0.05
2020-08-12 19:32:44.6030,0.01,-0.06,-0.08
2020-08-12 19:32:44.7030,0.02,-0.06,-0.09
2020-08-12 19:32:44.8020,0.11,-0.11,-0.09
2020-08-12 19:32:44.9010,0.3,-0.41,-0.06
2020-08-12 19:32:45.0000,0.32,-0.29,-0.08
2020-08-12 19:32:45.1000,0.46,-0.07,0.13
2020-08-12 19:32:45.1990,0.52,0.2,-0.32
2020-08-12 19:32:45.2980,0.15,-0.01,-0.04
2020-08-12 19:32:45.3980,-0.18,-0.35,0.06
2020-08-12 19:32:45.4970,-0.95,-0.45,0.16
2020-08-12 19:32:45.5960,-0.79,-0.19,-0.31
2020-08-12 19:32:45.6950,-0.46,-0.4,0.29
2020-08-12 19:32:45.7950,-0.19,-0.05,-0.05
2020-08-12 19:32:45.8940,-0.02,-0.04,-0.09
2020-08-12 19:32:45.9930,-0.07,0.0,-0.12
2020-08-12 19:32:46.0930,-0.02,-0.02,-0.02
2020-08-12 19:32:46.1920,0.06,-0.06,-0.09
2020-08-12 19:32:46.2910,-0.03,-0.03,-0.09
2020-08-12 19:32:46.3900,0.1,-0.1,-0.05
2020-08-12 19:32:46.4900,0.22,-0.39,-0.08
2020-08-12 19:32:46.5890,0.37,-0.39,-0.08
2020-08-12 19:32:46.6880,0.43,-0.06,-0.01
2020-08-12 19:32:46.7870,0.42,0.16,-0.25
2020-08-12 19:32:46.8870,0.34,0.08,-0.15
2020-08-12 19:32:46.9860,-0.13,-0.43,-0.05
2020-08-12 19:32:47.0850,-0.99,-0.23,0.32
2020-08-12 19:32:47.1840,-0.89,-0.21,-0.07
2020-08-12 19:32:47.2840,-0.16,-0.21,0.09
2020-08-12 19:32:47.3830,-0.2,-0.05,0.03
2020-08-12 19:32:47.4820,-0.05,-0.03,-0.05
2020-08-12 19:32:47.5820,-0.08,-0.01,-0.16
2020-08-12 19:32:47.6810,-0.01,-0.04,-0.09
2020-08-12 19:32:47.7800,-0.03,-0.03,-0.07
2020-08-12 19:32:47.8790,0.02,-0.06,-0.1
2020-08-12 19:32:47.9790,0.13,-0.13,-0.03
2020-08-12 19:32:48.0780,0.38,-0.52,-0.09
2020-08-12 19:32:48.1770,0.31,-0.3,0.14
2020-08-12 19:32:48.2760,0.57,-0.01,0.11
2020-08-12 19:32:48.3760,0.6,0.27,-0.26
2020-08-12 19:32:48.4750,-0.01,-0.16,-0.05
2020-08-12 19:32:48.5740,-0.43,-0.65,-0.0
2020-08-12 19:32:48.6740,-1.26,-0.11,0.27
2020-08-12 19:32:48.7730,0.89,-0.36,-0.76
2020-08-12 19:32:48.8720,-0.38,-0.09,0.03
2020-08-12 19:32:48.9710,0.06,-0.13,-0.13
2020-08-12 19:32:49.0710,-0.09,-0.04,0.02
2020-08-12 19:32:49.1700,-0.09,-0.01,-0.16
2020-08-12 19:32:49.2690,-0.0,-0.04,-0.07
2020-08-12 19:32:49.3680,-0.01,-0.04,-0.08
2020-08-12 19:32:49.4680,0.06,-0.07,-0.01
2020-08-12 19:32:49.5670,0.25,-0.35,0.0
2020-08-12 19:32:49.6660,0.38,-0.46,-0.12
2020-08-12 19:32:49.7660,0.46,-0.23,-0.1
2020-08-12 19:32:49.8650,0.61,0.17,-0.13
2020-08-12 19:32:49.9640,0.59,0.25,-0.24
2020-08-12 19:32:50.0630,-0.04,-0.23,-0.12
2020-08-12 19:32:50.1630,-1.05,-0.77,0.19
2020-08-12 19:32:50.2620,-0.94,-0.07,0.17
2020-08-12 19:32:50.3610,-0.26,-0.52,0.11
2020-08-12 19:32:50.4600,-0.28,0.19,0.02
2020-08-12 19:32:50.5590,0.04,-0.04,-0.12
2020-08-12 19:32:50.6590,-0.02,-0.03,-0.06
2020-08-12 19:32:50.7580,-0.04,-0.02,-0.1
2020-08-12 19:32:50.8570,-0.04,-0.02,-0.08
2020-08-12 19:32:50.9570,-0.04,-0.03,-0.09
2020-08-12 19:32:51.0560,0.1,-0.1,-0.05
2020-08-12 19:32:51.1550,0.24,-0.3,-0.16
2020-08-12 19:32:51.2550,0.37,-0.42,-0.11
2020-08-12 19:32:51.3540,0.39,-0.08,0.11
2020-08-12 19:32:51.4530,0.8,0.19,-0.08
2020-08-12 19:32:51.5520,0.44,0.1,-0.27
2020-08-12 19:32:51.6520,-0.0,-0.32,-0.16
2020-08-12 19:32:51.7510,-0.96,-0.67,0.13
2020-08-12 19:32:51.8500,-0.92,-0.09,0.28
2020-08-12 19:32:51.9490,-0.13,-0.25,-0.09
2020-08-12 19:32:52.0490,-0.19,0.19,0.03
2020-08-12 19:32:52.1480,0.02,-0.05,-0.08
2020-08-12 19:32:52.2470,-0.03,-0.01,-0.01
2020-08-12 19:32:52.3460,0.0,-0.03,-0.04
2020-08-12 19:32:52.4460,-0.08,-0.03,-0.21
2020-08-12 19:32:52.5450,-0.02,-0.04,-0.1
2020-08-12 19:32:52.6440,0.09,-0.1,-0.08
2020-08-12 19:32:52.7440,0.22,-0.36,-0.09
2020-08-12 19:32:52.8430,0.46,-0.34,-0.2
2020-08-12 19:32:52.9420,0.35,0.01,0.07
2020-08-12 19:32:53.0410,0.6,0.37,-0.17
2020-08-12 19:32:53.1400,0.32,-0.06,-0.17
2020-08-12 19:32:53.2400,-0.21,-0.49,-0.12
2020-08-12 19:32:53.3390,-0.86,-0.24,0.16
2020-08-12 19:32:53.4380,-0.84,-0.12,0.15
2020-08-12 19:32:53.5380,-0.1,-0.24,0.09
2020-08-12 19:32:53.6370,-0.38,0.13,0.16
2020-08-12 19:32:53.7360,-0.1,0.0,-0.01
2020-08-12 19:32:53.8360,-0.04,-0.03,-0.07
2020-08-12 19:32:53.9350,-0.03,-0.03,-0.11
2020-08-12 19:32:54.0340,-0.04,-0.02,-0.07
2020-08-12 19:32:54.1330,0.03,-0.07,-0.07
2020-08-12 19:32:54.2320,0.13,-0.18,-0.07
2020-08-12 19:32:54.3320,0.41,-0.45,-0.13
2020-08-12 19:32:54.4310,0.38,-0.41,-0.04
2020-08-12 19:32:54.5300,0.28,0.09,-0.05
2020-08-12 19:32:54.6300,0.33,0.2,-0.25
2020-08-12 19:32:54.7290,-0.02,-0.13,-0.05
2020-08-12 19:32:54.8280,-0.42,-0.75,0.04
2020-08-12 19:32:54.9270,-1.23,0.01,0.28
2020-08-12 19:32:55.0270,0.66,-0.58,-0.45
2020-08-12 19:32:55.1260,-0.61,-0.22,0.2
2020-08-12 19:32:55.2250,0.03,-0.08,-0.15
2020-08-12 19:32:55.3240,-0.12,0.01,0.05
2020-08-12 19:32:55.4240,0.0,-0.04,-0.07
2020-08-12 19:32:55.5230,-0.06,-0.02,-0.09
2020-08-12 19:32:55.6220,-0.03,-0.02,-0.05
2020-08-12 19:32:55.7220,0.06,-0.09,-0.06
2020-08-12 19:32:55.8210,0.2,-0.27,-0.04
2020-08-12 19:32:55.9200,0.58,-0.55,-0.11
2020-08-12 19:32:56.0190,0.33,-0.24,0.09
2020-08-12 19:32:56.1190,0.72,0.22,-0.21
2020-08-12 19:32:56.2180,0.56,0.01,-0.31
2020-08-12 19:32:56.3170,-0.08,-0.34,-0.1
2020-08-12 19:32:56.4160,-0.89,-0.54,0.24
2020-08-12 19:32:56.5160,-0.88,-0.07,0.2
2020-08-12 19:32:56.6150,-0.47,-0.25,0.02
2020-08-12 19:32:56.7140,-0.22,0.08,0.13
2020-08-12 19:32:56.8130,0.02,-0.02,-0.16
2020-08-12 19:32:56.9130,-0.16,0.02,0.04
2020-08-12 19:32:57.0120,-0.01,-0.05,-0.04
2020-08-12 19:32:57.1110,-0.01,-0.01,-0.08
2020-08-12 19:32:57.2110,0.06,-0.06,-0.09
2020-08-12 19:32:57.3100,0.07,-0.1,-0.06
2020-08-12 19:32:57.4090,0.2,-0.32,-0.11
2020-08-12 19:32:57.5080,0.4,-0.41,-0.09
2020-08-12 19:32:57.6080,0.46,-0.16,0.11
2020-08-12 19:32:57.7070,0.49,0.22,-0.23
2020-08-12 19:32:57.8060,0.32,0.07,-0.23
2020-08-12 19:32:57.9060,-0.15,-0.39,-0.03
2020-08-12 19:32:58.0050,-1.01,-0.43,0.33
2020-08-12 19:32:58.1040,-1.02,-0.14,0.17
2020-08-12 19:32:58.2030,-0.35,-0.17,0.15
2020-08-12 19:32:58.3030,-0.34,0.0,0.14
2020-08-12 19:32:58.4020,-0.07,-0.01,-0.09
2020-08-12 19:32:58.5010,-0.08,-0.01,-0.1
2020-08-12 19:32:58.6010,-0.05,-0.02,-0.08
2020-08-12 19:32:58.7000,-0.03,-0.03,-0.07
2020-08-12 19:32:58.7990,-0.02,-0.02,-0.09
2020-08-12 19:32:58.8980,0.09,-0.12,-0.09
2020-08-12 19:32:58.9970,0.2,-0.33,-0.07
2020-08-12 19:32:59.0970,0.4,-0.28,-0.08
2020-08-12 19:32:59.1960,0.47,-0.17,0.03
2020-08-12 19:32:59.2950,0.36,0.17,-0.1
2020-08-12 19:32:59.3950,0.42,0.11,-0.32
2020-08-12 19:32:59.4940,-0.14,-0.48,-0.1
2020-08-12 19:32:59.5930,-1.24,-0.33,0.48
2020-08-12 19:32:59.6920,-0.32,-0.24,-0.46
2020-08-12 19:32:59.7920,-0.26,-0.03,-0.06
2020-08-12 19:32:59.8910,-0.08,0.02,-0.09
2020-08-12 19:32:59.9900,-0.02,-0.03,0.01
2020-08-12 19:33:00.0890,-0.02,-0.02,-0.14
2020-08-12 19:33:00.1890,-0.05,-0.01,-0.04
2020-08-12 19:33:00.2880,-0.04,-0.01,-0.04
2020-08-12 19:33:00.3870,0.11,-0.13,-0.09
2020-08-12 19:33:00.4860,0.2,-0.29,0.07
2020-08-12 19:33:00.5860,0.56,-0.6,-0.18
2020-08-12 19:33:00.6850,0.51,-0.28,0.01
2020-08-12 19:33:00.7840,0.7,0.31,-0.19
2020-08-12 19:33:00.8840,0.52,0.14,-0.3
2020-08-12 19:33:00.9830,-0.13,-0.53,-0.08
2020-08-12 19:33:01.0820,-0.88,-0.42,0.28
2020-08-12 19:33:01.1810,-0.94,-0.06,0.11
2020-08-12 19:33:01.2810,-0.34,-0.36,0.24
2020-08-12 19:33:01.3800,-0.35,0.14,0.15
2020-08-12 19:33:01.4790,0.13,-0.02,-0.08
2020-08-12 19:33:01.5790,-0.0,-0.04,-0.13
2020-08-12 19:33:01.6780,-0.03,-0.02,-0.11
2020-08-12 19:33:01.7770,-0.0,-0.05,-0.09
2020-08-12 19:33:01.8770,0.01,-0.04,-0.08
2020-08-12 19:33:01.9760,0.11,-0.12,-0.05
2020-08-12 19:33:02.0750,0.35,-0.39,-0.05
2020-08-12 19:33:02.1740,0.46,-0.37,-0.04
2020-08-12 19:33:02.2730,0.44,0.05,0.06
2020-08-12 19:33:02.3730,0.58,0.24,-0.24
2020-08-12 19:33:02.4720,0.23,-0.1,-0.27
2020-08-12 19:33:02.5710,-0.55,-0.67,-0.02
2020-08-12 19:33:02.6710,-1.6,0.13,0.49
2020-08-12 19:33:02.7700,-0.52,-0.45,0.16
2020-08-12 19:33:02.8690,-0.32,-0.01,-0.02
2020-08-12 19:33:02.9680,0.04,-0.15,-0.14
2020-08-12 19:33:03.0680,-0.03,0.0,-0.01
2020-08-12 19:33:03.1670,-0.01,-0.04,-0.04
2020-08-12 19:33:03.2660,-0.03,-0.03,-0.08
2020-08-12 19:33:03.3650,0.05,-0.07,-0.1
2020-08-12 19:33:03.4640,0.14,-0.14,-0.11
2020-08-12 19:33:03.5640,0.16,-0.28,-0.08
2020-08-12 19:33:03.6630,0.51,-0.41,-0.08
2020-08-12 19:33:03.7620,0.48,-0.02,-0.03
2020-08-12 19:33:03.8620,0.6,0.16,-0.24
2020-08-12 19:33:03.9610,0.25,0.02,-0.19
2020-08-12 19:33:04.0600,-0.38,-0.69,-0.01
2020-08-12 19:33:04.1600,-1.26,-0.08,0.31
2020-08-12 19:33:04.2590,0.38,-0.18,-0.78
2020-08-12 19:33:04.3580,-0.67,-0.3,0.03
2020-08-12 19:33:04.4570,0.13,-0.18,-0.22
2020-08-12 19:33:04.5570,-0.11,0.01,-0.07
2020-08-12 19:33:04.6560,-0.05,-0.02,-0.09
2020-08-12 19:33:04.7550,-0.04,-0.04,-0.11
2020-08-12 19:33:04.8540,-0.0,-0.05,-0.09
2020-08-12 19:33:04.9540,0.08,-0.09,-0.07
2020-08-12 19:33:05.0530,0.23,-0.35,-0.09
2020-08-12 19:33:05.1520,0.31,-0.38,-0.05
2020-08-12 19:33:05.2520,0.32,-0.34,-0.0
2020-08-12 19:33:05.3510,0.55,0.18,-0.01
2020-08-12 19:33:05.4500,0.73,0.16,-0.4
2020-08-12 19:33:05.5490,-0.06,-0.22,-0.06
2020-08-12 19:33:05.6490,-0.47,-0.52,0.16
2020-08-12 19:33:05.7480,-0.98,-0.03,0.26
2020-08-12 19:33:05.8470,0.78,-0.35,-0.69
2020-08-12 19:33:05.9460,-0.1,0.17,0.04
2020-08-12 19:33:06.0460,0.02,-0.05,-0.07
2020-08-12 19:33:06.1450,-0.06,-0.02,-0.15
2020-08-12 19:33:06.2440,0.02,-0.06,-0.11
2020-08-12 19:33:06.3430,-0.11,0.02,-0.1
2020-08-12 19:33:06.4430,0.0,-0.05,-0.06
2020-08-12 19:33:06.5420,0.09,-0.12,-0.09
2020-08-12 19:33:06.6410,0.22,-0.4,-0.13
2020-08-12 19:33:06.7410,0.44,-0.39,-0.12
2020-08-12 19:33:06.8400,0.38,-0.12,0.07
2020-08-12 19:33:06.9390,0.63,0.36,-0.28
2020-08-12 19:33:07.0380,0.21,-0.01,-0.22
2020-08-12 19:33:07.1380,-0.24,-0.52,-0.15
2020-08-12 19:33:07.2370,-0.85,-0.27,0.22
2020-08-12 19:33:07.3360,-0.8,-0.07,0.11
2020-08-12 19:33:07.4360,-0.44,-0.45,0.27
2020-08-12 19:33:07.5350,-0.25,0.1,0.02
2020-08-12 19:33:07.6340,0.04,-0.01,-0.05
2020-08-12 19:33:07.7330,-0.09,-0.02,-0.06
2020-08-12 19:33:07.8330,0.04,-0.03,-0.02
2020-08-12 19:33:07.9320,-0.01,-0.04,-0.06
2020-08-12 19:33:08.0310,-0.02,-0.03,-0.07
2020-08-12 19:33:08.1300,0.11,-0.12,-0.02
2020-08-12 19:33:08.2300,0.1,-0.25,-0.12
2020-08-12 19:33:08.3290,0.46,-0.32,-0.13
2020-08-12 19:33:08.4280,0.44,-0.29,-0.02
2020-08-12 19:33:08.5270,0.5,0.19,-0.24
2020-08-12 19:33:08.6270,0.37,0.05,-0.25
2020-08-12 19:33:08.7260,-0.2,-0.41,-0.02
2020-08-12 19:33:08.8250,-0.89,-0.42,0.21
2020-08-12 19:33:08.9240,-1.19,-0.16,-0.04
2020-08-12 19:33:09.0240,-0.28,-0.31,0.05
2020-08-12 19:33:09.1230,-0.21,0.09,0.03
2020-08-12 19:33:09.2220,-0.01,0.02,-0.1
2020-08-12 19:33:09.3220,-0.04,-0.03,-0.02
2020-08-12 19:33:09.4210,-0.03,-0.04,-0.15
2020-08-12 19:33:09.5200,0.02,-0.05,-0.11
2020-08-12 19:33:09.6190,0.01,-0.05,-0.1
2020-08-12 19:33:09.7190,0.15,-0.18,-0.13
2020-08-12 19:33:09.8180,0.3,-0.37,-0.06
2020-08-12 19:33:09.9170,0.38,-0.34,0.06
2020-08-12 19:33:10.0160,0.33,0.2,0.13
2020-08-12 19:33:10.1160,0.62,0.31,-0.29
2020-08-12 19:33:10.2150,-0.06,-0.2,-0.12
2020-08-12 19:33:10.3140,-0.49,-0.46,0.02
2020-08-12 19:33:10.4140,-0.77,-0.1,-0.01
2020-08-12 19:33:10.5130,-0.66,0.03,0.02
2020-08-12 19:33:10.6120,-0.19,-0.29,-0.05
2020-08-12 19:33:10.7110,-0.29,-0.12,0.06
2020-08-12 19:33:10.8100,-0.02,-0.1,-0.14
2020-08-12 19:33:10.9100,0.03,-0.06,0.01
2020-08-12 19:33:11.0090,-0.03,-0.06,-0.14
2020-08-12 19:33:11.1080,-0.01,-0.04,-0.09
2020-08-12 19:33:11.2080,-0.04,-0.02,-0.08
2020-08-12 19:33:11.3070,0.01,-0.04,-0.06
2020-08-12 19:33:11.4060,-0.0,-0.04,-0.07
2020-08-12 19:33:11.5060,0.04,-0.08,-0.02
2020-08-12 19:33:11.6050,0.19,-0.25,-0.08
2020-08-12 19:33:11.7040,0.22,-0.2,-0.2
2020-08-12 19:33:11.8030,0.08,-0.13,0.02
2020-08-12 19:33:11.9020,0.46,0.35,-0.21
2020-08-12 19:33:12.0020,0.15,0.15,-0.29
2020-08-12 19:33:12.1010,-0.45,-0.12,0.13
2020-08-12 19:33:12.2000,-0.47,-0.02,0.08
2020-08-12 19:33:12.3000,-0.54,-0.19,-0.23
2020-08-12 19:33:12.3990,-0.06,-0.02,-0.01
2020-08-12 19:33:12.4980,0.03,-0.09,-0.16
2020-08-12 19:33:12.5970,0.05,-0.02,-0.09
2020-08-12 19:33:12.6970,-0.06,-0.03,-0.08
2020-08-12 19:33:12.7960,-0.09,-0.01,-0.07
2020-08-12 19:33:12.8950,-0.05,-0.03,-0.05
2020-08-12 19:33:12.9940,-0.04,-0.0,-0.05
2020-08-12 19:33:13.0940,-0.0,-0.02,-0.05
2020-08-12 19:33:13.1930,-0.01,-0.01,-0.04
2020-08-12 19:33:13.2920,0.01,-0.01,-0.05
2020-08-12 19:33:13.3910,-0.06,-0.01,-0.04
2020-08-12 19:33:13.4910,-0.05,0.0,-0.03
2020-08-12 19:33:13.5900,0.01,-0.02,-0.05
2020-08-12 19:33:13.6890,0.03,0.01,-0.03
2020-08-12 19:33:13.7890,-0.04,-0.02,-0.03
2020-08-12 19:33:13.8880,-0.03,0.0,-0.03
2020-08-12 19:33:13.9870,-0.03,-0.0,-0.03
2020-08-12 19:33:14.0870,0.02,0.03,-0.01
2020-08-12 19:33:14.1860,0.01,0.01,-0.01
2020-08-12 19:33:14.2850,0.01,-0.01,-0.03
2020-08-12 19:33:14.3840,-0.08,-0.01,-0.04
2020-08-12 19:33:14.4840,0.11,-0.01,-0.03
2020-08-12 19:33:14.5830,-0.02,-0.01,0.0
2020-08-12 19:33:14.6820,-0.05,-0.01,-0.07
2020-08-12 19:33:14.7810,-0.0,0.0,-0.02
2020-08-12 19:33:14.8810,-0.04,0.02,-0.06
2020-08-12 19:33:14.9800,0.01,-0.0,-0.03
2020-08-12 19:33:15.0790,-0.03,-0.0,-0.02
2020-08-12 19:33:15.1780,0.01,-0.01,-0.0
2020-08-12 19:33:15.2780,-0.0,0.0,-0.03
2020-08-12 19:33:15.3770,-0.01,-0.02,-0.03
2020-08-12 19:33:15.4760,0.01,-0.01,-0.01
2020-08-12 19:33:15.5760,-0.01,-0.0,-0.01
2020-08-12 19:33:15.6750,0.01,-0.01,0.0
2020-08-12 19:33:15.7740,0.04,0.02,-0.04
2020-08-12 19:33:15.8730,-0.01,-0.02,-0.01
2020-08-12 19:33:15.9730,-0.02,-0.04,-0.02
