time,ax,ay,az
2020-08-12 20:24:43.3650,0.01,-0.01,0.0
2020-08-12 20:24:43.4640,0.0,-0.0,-0.02
2020-08-12 20:24:43.5640,-0.01,0.01,0.0
2020-08-12 20:24:43.6630,0.02,-0.01,-0.0
2020-08-12 20:24:43.7620,-0.01,0.0,-0.0
2020-08-12 20:24:43.8610,0.01,0.0,0.01
2020-08-12 20:24:43.9610,-0.01,0.0,-0.0
2020-08-12 20:24:44.0600,0.0,-0.01,-0.0
2020-08-12 20:24:44.1600,0.0,-0.01,0.0
2020-08-12 20:24:44.2590,-0.01,0.0,-0.0
2020-08-12 20:24:44.3580,0.01,-0.01,0.0
2020-08-12 20:24:44.4570,-0.01,-0.01,-0.0
2020-08-12 20:24:44.5560,-0.01,0.01,0.01
2020-08-12 20:24:44.6560,-0.0,-0.01,-0.0
2020-08-12 20:24:44.7550,-0.01,-0.01,-0.01
2020-08-12 20:24:44.8540,-0.02,-0.0,-0.01
2020-08-12 20:24:44.9540,-0.01,0.0,0.01
2020-08-12 20:24:45.0530,-0.03,0.02,0.01
2020-08-12 20:24:45.1520,0.01,-0.01,0.01
2020-08-12 20:24:45.2520,-0.03,0.01,0.01
2020-08-12 20:24:45.3510,0.03,-0.01,0.02
2020-08-12 20:24:45.4500,-0.0,-0.03,0.01
2020-08-12 20:24:45.5490,0.04,-0.04,0.01
2020-08-12 20:24:45.6490,0.05,-0.05,-0.0
2020-08-12 20:24:45.7480,0.03,0.02,-0.01
2020-08-12 20:24:45.8470,-0.02,-0.0,-0.02
2020-08-12 20:24:45.9460,-0.0,-0.0,-0.03
2020-08-12 20:24:46.0450,-0.0,0.02,-0.02
2020-08-12 20:24:46.1450,-0.02,-0.01,0.01
2020-08-12 20:24:46.2440,-0.13,0.03,-0.05
2020-08-12 20:24:46.3430,0.06,-0.05,-0.01
2020-08-12 20:24:46.4430,-0.02,0.01,0.08
2020-08-12 20:24:46.5420,0.0,0.01,0.02
2020-08-12 20:24:46.6410,0.03,-0.01,0.02
2020-08-12 20:24:46.7400,0.04,-0.05,-0.01
2020-08-12 20:24:46.8400,-0.01,-0.03,0.03
2020-08-12 20:24:46.9390,0.02,-0.04,0.07
2020-08-12 20:24:47.0380,0.08,-0.28,0.04
2020-08-12 20:24:47.1370,0.33,-0.36,0.13
2020-08-12 20:24:47.2370,-0.06,0.2,-0.35
2020-08-12 20:24:47.3360,0.28,0.04,-0.34
2020-08-12 20:24:47.4350,0.14,-0.01,0.2
2020-08-12 20:24:47.5350,0.05,0.03,0.52
2020-08-12 20:24:47.6340,-0.03,-0.01,0.4
2020-08-12 20:24:47.7330,-0.06,-0.04,0.35
2020-08-12 20:24:47.8320,-0.19,-0.07,0.17
2020-08-12 20:24:47.9320,-0.27,-0.08,-0.08
2020-08-12 20:24:48.0310,-0.37,-0.05,-0.29
2020-08-12 20:24:48.1300,-0.27,-0.04,-0.38
2020-08-12 20:24:48.2290,-0.07,0.03,-0.46
2020-08-12 20:24:48.3290,-0.26,0.04,-0.01
2020-08-12 20:24:48.4280,-0.12,0.01,0.11
2020-08-12 20:24:48.5280,0.02,0.01,0.02
2020-08-12 20:24:48.6260,-0.01,0.0,-0.0
2020-08-12 20:24:48.7260,0.06,0.01,0.03
2020-08-12 20:24:48.8250,0.04,-0.0,-0.03
2020-08-12 20:24:48.9240,0.03,-0.09,0.05
2020-08-12 20:24:49.0230,0.15,-0.33,-0.01
2020-08-12 20:24:49.1230,0.15,-0.21,-0.18
2020-08-12 20:24:49.2220,0.75,0.28,-0.31
2020-08-12 20:24:49.3210,-0.09,0.0,0.17
2020-08-12 20:24:49.4210,-0.01,0.02,0.26
2020-08-12 20:24:49.5200,-0.08,0.04,0.26
2020-08-12 20:24:49.6190,-0.11,0.02,0.3
2020-08-12 20:24:49.7180,-0.3,-0.01,0.23
2020-08-12 20:24:49.8180,-0.24,-0.05,0.07
2020-08-12 20:24:49.9170,-0.24,-0.05,-0.25
2020-08-12 20:24:50.0160,-0.37,-0.04,-0.3
2020-08-12 20:24:50.1160,-0.47,-0.77,-0.05
2020-08-12 20:24:50.2150,-0.26,0.04,0.24
2020-08-12 20:24:50.3140,-0.08,0.02,0.14
2020-08-12 20:24:50.4130,0.07,-0.0,0.02
2020-08-12 20:24:50.5130,-0.03,0.0,0.01
2020-08-12 20:24:50.6120,0.09,-0.03,0.01
2020-08-12 20:24:50.7110,0.05,-0.04,-0.0
2020-08-12 20:24:50.8100,0.05,-0.13,0.02
2020-08-12 20:24:50.9100,0.28,-0.48,-0.1
2020-08-12 20:24:51.0090,-0.3,0.02,-0.08
2020-08-12 20:24:51.1080,0.75,-0.0,-0.31
2020-08-12 20:24:51.2070,0.16,-0.09,0.23
2020-08-12 20:24:51.3070,0.05,0.03,0.49
2020-08-12 20:24:51.4060,-0.09,-0.06,0.41
2020-08-12 20:24:51.5050,-0.26,-0.1,0.35
2020-08-12 20:24:51.6050,-0.33,-0.08,0.05
2020-08-12 20:24:51.7040,-0.32,-0.05,-0.17
2020-08-12 20:24:51.8030,-0.47,-0.06,-0.27
2020-08-12 20:24:51.9020,0.34,-0.78,0.04
2020-08-12 20:24:52.0020,0.09,0.0,0.31
2020-08-12 20:24:52.1010,0.01,0.0,0.06
2020-08-12 20:24:52.2000,0.02,0.01,0.01
2020-08-12 20:24:52.2990,-0.08,-0.04,0.04
2020-08-12 20:24:52.3990,-0.08,-0.02,0.01
2020-08-12 20:24:52.4980,0.06,-0.02,0.03
2020-08-12 20:24:52.5970,-0.0,-0.08,0.02
2020-08-12 20:24:52.6970,0.17,-0.44,-0.09
2020-08-12 20:24:52.7960,0.26,-0.17,-0.23
2020-08-12 20:24:52.8950,0.79,0.29,-0.43
2020-08-12 20:24:52.9940,0.37,-0.16,0.03
2020-08-12 20:24:53.0940,-0.03,-0.14,0.39
2020-08-12 20:24:53.1930,-0.16,-0.1,0.35
2020-08-12 20:24:53.2920,-0.33,-0.04,0.32
2020-08-12 20:24:53.3920,-0.5,-0.02,0.21
2020-08-12 20:24:53.4900,-0.43,-0.04,-0.15
2020-08-12 20:24:53.5900,-0.21,-0.06,-0.37
2020-08-12 20:24:53.6890,-1.28,-0.93,0.02
2020-08-12 20:24:53.7880,-0.23,0.05,0.3
2020-08-12 20:24:53.8880,-0.07,-0.0,0.04
2020-08-12 20:24:53.9870,-0.03,0.03,0.0
2020-08-12 20:24:54.0860,-0.02,-0.01,0.02
2020-08-12 20:24:54.1860,0.05,-0.01,0.03
2020-08-12 20:24:54.2850,0.05,-0.01,0.02
2020-08-12 20:24:54.3840,0.08,-0.08,0.03
2020-08-12 20:24:54.4830,0.3,-0.67,-0.07
2020-08-12 20:24:54.5830,-0.2,0.06,0.06
2020-08-12 20:24:54.6820,0.92,0.08,-0.21
2020-08-12 20:24:54.7810,-0.2,-0.1,0.46
2020-08-12 20:24:54.8800,-0.1,-0.07,0.42
2020-08-12 20:24:54.9800,-0.18,-0.06,0.39
2020-08-12 20:24:55.0790,-0.33,-0.06,0.26
2020-08-12 20:24:55.1780,-0.38,-0.09,0.07
2020-08-12 20:24:55.2770,-0.42,-0.13,-0.2
2020-08-12 20:24:55.3770,-0.34,-0.02,-0.55
2020-08-12 20:24:55.4760,-0.12,0.4,-0.36
2020-08-12 20:24:55.5750,-0.07,0.02,-0.04
2020-08-12 20:24:55.6740,-0.32,-0.02,0.17
2020-08-12 20:24:55.7740,-0.06,0.01,0.07
2020-08-12 20:24:55.8730,-0.03,-0.01,0.01
2020-08-12 20:24:55.9720,0.07,0.01,0.02
2020-08-12 20:24:56.0720,0.09,-0.04,0.09
2020-08-12 20:24:56.1710,0.11,-0.2,0.03
2020-08-12 20:24:56.2700,0.55,-0.29,-0.29
2020-08-12 20:24:56.3690,0.05,0.21,-0.04
2020-08-12 20:24:56.4690,0.62,-0.11,-0.05
2020-08-12 20:24:56.5680,0.08,-0.05,0.54
2020-08-12 20:24:56.6670,-0.07,0.04,0.58
2020-08-12 20:24:56.7670,-0.33,-0.04,0.36
2020-08-12 20:24:56.8660,-0.54,-0.17,0.15
2020-08-12 20:24:56.9650,-0.32,-0.04,-0.01
2020-08-12 20:24:57.0640,-0.42,-0.09,-0.36
2020-08-12 20:24:57.1630,-0.4,-0.0,-0.38
2020-08-12 20:24:57.2630,-0.28,0.32,-0.07
2020-08-12 20:24:57.3620,-0.16,-0.04,-0.06
2020-08-12 20:24:57.4610,-0.07,-0.01,0.08
2020-08-12 20:24:57.5610,0.0,-0.0,0.0
2020-08-12 20:24:57.6600,0.0,0.0,0.01
2020-08-12 20:24:57.7590,0.01,-0.01,0.04
2020-08-12 20:24:57.8580,0.06,-0.05,0.02
2020-08-12 20:24:57.9580,0.11,-0.1,0.06
2020-08-12 20:24:58.0570,0.29,-0.39,-0.1
2020-08-12 20:24:58.1560,-0.21,0.03,-0.06
2020-08-12 20:24:58.2550,0.73,-0.18,-0.37
2020-08-12 20:24:58.3550,0.11,-0.12,0.24
2020-08-12 20:24:58.4540,0.04,-0.07,0.39
2020-08-12 20:24:58.5530,-0.12,0.01,0.43
2020-08-12 20:24:58.6530,-0.3,-0.01,0.4
2020-08-12 20:24:58.7520,-0.35,-0.09,0.17
2020-08-12 20:24:58.8510,-0.25,-0.08,0.0
2020-08-12 20:24:58.9500,-0.28,-0.04,-0.29
2020-08-12 20:24:59.0500,-0.25,-0.02,-0.35
2020-08-12 20:24:59.1490,-0.12,0.24,-0.05
2020-08-12 20:24:59.2480,-0.17,-0.01,-0.06
2020-08-12 20:24:59.3470,-0.05,-0.02,0.08
2020-08-12 20:24:59.4460,0.04,0.02,0.01
2020-08-12 20:24:59.5460,0.01,-0.01,0.0
2020-08-12 20:24:59.6450,0.03,-0.01,-0.02
2020-08-12 20:24:59.7440,0.06,-0.02,0.01
2020-08-12 20:24:59.8440,0.08,-0.08,0.02
2020-08-12 20:24:59.9430,0.07,-0.22,0.05
2020-08-12 20:25:00.0420,0.19,-0.14,-0.22
2020-08-12 20:25:00.1410,0.06,0.19,0.11
2020-08-12 20:25:00.2410,0.53,-0.04,-0.18
2020-08-12 20:25:00.3400,0.3,-0.02,0.13
2020-08-12 20:25:00.4390,-0.01,-0.0,0.35
2020-08-12 20:25:00.5390,-0.08,-0.05,0.42
2020-08-12 20:25:00.6380,-0.25,-0.09,0.25
2020-08-12 20:25:00.7370,-0.31,-0.08,0.01
2020-08-12 20:25:00.8370,-0.45,-0.04,-0.11
2020-08-12 20:25:00.9360,-0.27,-0.02,-0.32
2020-08-12 20:25:01.0350,-0.39,-1.18,-0.19
2020-08-12 20:25:01.1340,-0.4,0.13,0.33
2020-08-12 20:25:01.2330,-0.22,0.01,0.09
2020-08-12 20:25:01.3330,-0.0,0.0,0.05
2020-08-12 20:25:01.4320,-0.0,0.0,0.02
2020-08-12 20:25:01.5310,0.03,0.0,0.01
2020-08-12 20:25:01.6310,0.01,-0.01,0.0
2020-08-12 20:25:01.7300,0.05,-0.1,0.11
2020-08-12 20:25:01.8290,0.11,-0.32,-0.11
2020-08-12 20:25:01.9280,0.25,-0.03,-0.25
2020-08-12 20:25:02.0280,0.2,0.3,-0.28
2020-08-12 20:25:02.1270,0.34,-0.1,0.01
2020-08-12 20:25:02.2260,0.03,0.07,0.44
2020-08-12 20:25:02.3250,-0.11,-0.0,0.39
2020-08-12 20:25:02.4250,-0.17,-0.02,0.37
2020-08-12 20:25:02.5240,-0.2,-0.06,0.23
2020-08-12 20:25:02.6230,-0.28,-0.11,-0.01
2020-08-12 20:25:02.7230,-0.27,-0.09,-0.31
2020-08-12 20:25:02.8220,-0.27,-0.01,-0.42
2020-08-12 20:25:02.9210,-0.24,0.35,-0.03
2020-08-12 20:25:03.0200,-0.13,-0.06,-0.07
2020-08-12 20:25:03.1200,-0.05,-0.0,0.08
2020-08-12 20:25:03.2190,0.06,0.02,0.03
2020-08-12 20:25:03.3180,-0.0,-0.01,-0.01
2020-08-12 20:25:03.4170,0.05,-0.03,0.03
2020-08-12 20:25:03.5170,0.04,-0.04,0.03
2020-08-12 20:25:03.6160,0.09,-0.07,0.06
2020-08-12 20:25:03.7150,0.14,-0.39,0.01
2020-08-12 20:25:03.8140,-0.07,-0.07,-0.21
2020-08-12 20:25:03.9140,0.67,0.16,-0.28
2020-08-12 20:25:04.0130,0.11,-0.04,0.14
2020-08-12 20:25:04.1120,0.04,-0.05,0.37
2020-08-12 20:25:04.2110,-0.1,-0.07,0.26
2020-08-12 20:25:04.3110,-0.22,-0.05,0.26
2020-08-12 20:25:04.4100,-0.26,-0.04,0.18
2020-08-12 20:25:04.5090,-0.35,-0.01,0.13
2020-08-12 20:25:04.6090,-0.39,-0.04,-0.01
2020-08-12 20:25:04.7080,-0.27,-0.06,-0.41
2020-08-12 20:25:04.8070,-0.49,-1.11,-0.09
2020-08-12 20:25:04.9070,-0.2,0.1,0.18
2020-08-12 20:25:05.0060,-0.14,0.01,0.09
2020-08-12 20:25:05.1050,0.03,0.0,0.01
2020-08-12 20:25:05.2040,0.01,0.0,0.01
2020-08-12 20:25:05.3030,0.07,-0.02,0.01
2020-08-12 20:25:05.4030,0.08,-0.03,0.02
2020-08-12 20:25:05.5020,0.08,-0.02,0.07
2020-08-12 20:25:05.6010,0.1,-0.23,0.03
2020-08-12 20:25:05.7010,0.43,-0.25,-0.29
2020-08-12 20:25:05.8000,0.24,0.37,0.1
2020-08-12 20:25:05.8990,0.48,-0.11,-0.23
2020-08-12 20:25:05.9980,0.09,0.0,0.22
2020-08-12 20:25:06.0980,-0.06,-0.07,0.32
2020-08-12 20:25:06.1970,-0.21,0.02,0.46
2020-08-12 20:25:06.2960,-0.16,-0.03,0.24
2020-08-12 20:25:06.3950,-0.33,-0.06,0.15
2020-08-12 20:25:06.4950,-0.37,-0.04,-0.04
2020-08-12 20:25:06.5940,-0.31,-0.06,-0.28
2020-08-12 20:25:06.6930,0.6,-0.41,-0.57
2020-08-12 20:25:06.7930,-0.02,0.07,0.28
2020-08-12 20:25:06.8920,0.07,-0.06,-0.01
2020-08-12 20:25:06.9910,0.1,-0.01,0.05
2020-08-12 20:25:07.0900,0.0,0.02,0.02
2020-08-12 20:25:07.1900,0.08,-0.01,0.02
2020-08-12 20:25:07.2890,0.04,-0.02,0.0
2020-08-12 20:25:07.3880,0.08,-0.05,0.01
2020-08-12 20:25:07.4870,0.03,-0.18,0.02
2020-08-12 20:25:07.5870,0.16,-0.33,-0.08
2020-08-12 20:25:07.6860,-0.17,0.03,-0.05
2020-08-12 20:25:07.7850,0.79,0.1,-0.3
2020-08-12 20:25:07.8840,0.21,-0.04,0.16
2020-08-12 20:25:07.9840,0.04,0.0,0.41
2020-08-12 20:25:08.0830,-0.11,-0.11,0.31
2020-08-12 20:25:08.1820,-0.31,-0.05,0.27
2020-08-12 20:25:08.2820,-0.32,-0.03,0.17
2020-08-12 20:25:08.3810,-0.24,-0.03,0.02
2020-08-12 20:25:08.4800,-0.36,-0.09,-0.22
2020-08-12 20:25:08.5790,-0.13,-0.03,-0.37
2020-08-12 20:25:08.6790,0.01,0.17,-0.51
2020-08-12 20:25:08.7780,-0.26,-0.04,0.01
2020-08-12 20:25:08.8770,-0.06,-0.01,0.04
2020-08-12 20:25:08.9770,-0.01,0.01,0.0
2020-08-12 20:25:09.0760,0.04,-0.01,0.02
2020-08-12 20:25:09.1750,0.01,-0.01,0.02
2020-08-12 20:25:09.2740,0.05,-0.04,0.0
2020-08-12 20:25:09.3730,0.07,-0.12,0.05
2020-08-12 20:25:09.4730,0.18,-0.35,-0.06
2020-08-12 20:25:09.5720,0.24,0.01,-0.22
2020-08-12 20:25:09.6710,0.62,0.22,-0.18
2020-08-12 20:25:09.7710,0.35,-0.1,-0.03
2020-08-12 20:25:09.8700,0.09,-0.08,0.21
2020-08-12 20:25:09.9690,-0.02,-0.05,0.24
2020-08-12 20:25:10.0680,-0.25,-0.01,0.25
2020-08-12 20:25:10.1680,-0.31,-0.04,0.25
2020-08-12 20:25:10.2670,-0.32,-0.05,0.02
2020-08-12 20:25:10.3660,-0.28,-0.06,-0.11
2020-08-12 20:25:10.4650,-0.24,-0.06,-0.26
2020-08-12 20:25:10.5650,-0.52,-0.39,0.05
2020-08-12 20:25:10.6640,0.07,0.07,0.19
2020-08-12 20:25:10.7630,0.03,0.0,0.09
2020-08-12 20:25:10.8620,-0.02,-0.01,0.02
2020-08-12 20:25:10.9620,0.01,-0.01,0.0
2020-08-12 20:25:11.0610,0.04,-0.03,0.02
2020-08-12 20:25:11.1600,0.07,-0.01,0.03
2020-08-12 20:25:11.2600,0.07,-0.08,0.04
2020-08-12 20:25:11.3590,0.12,-0.39,-0.01
2020-08-12 20:25:11.4580,0.36,-0.07,-0.27
2020-08-12 20:25:11.5570,0.35,0.2,-0.29
2020-08-12 20:25:11.6570,0.53,-0.22,-0.02
2020-08-12 20:25:11.7560,0.06,-0.09,0.3
2020-08-12 20:25:11.8550,-0.18,0.03,0.4
2020-08-12 20:25:11.9540,-0.27,-0.06,0.31
2020-08-12 20:25:12.0540,-0.32,-0.05,0.25
2020-08-12 20:25:12.1530,-0.26,-0.05,0.01
2020-08-12 20:25:12.2520,-0.29,-0.05,-0.11
2020-08-12 20:25:12.3510,-0.17,-0.09,-0.43
2020-08-12 20:25:12.4510,0.45,-0.6,-0.01
2020-08-12 20:25:12.5500,0.36,0.11,0.14
2020-08-12 20:25:12.6490,0.2,-0.07,-0.19
2020-08-12 20:25:12.7490,0.09,0.02,0.05
2020-08-12 20:25:12.8480,-0.01,0.0,0.01
2020-08-12 20:25:12.9470,0.03,-0.01,0.01
2020-08-12 20:25:13.0460,0.01,-0.01,0.03
2020-08-12 20:25:13.1460,0.13,-0.08,0.05
2020-08-12 20:25:13.2450,0.1,-0.14,0.04
2020-08-12 20:25:13.3440,0.28,-0.44,0.04
2020-08-12 20:25:13.4430,-0.09,-0.04,0.04
2020-08-12 20:25:13.5430,0.85,0.22,-0.42
2020-08-12 20:25:13.6420,-0.08,-0.1,0.2
2020-08-12 20:25:13.7410,-0.08,-0.02,0.32
2020-08-12 20:25:13.8410,-0.1,-0.04,0.38
2020-08-12 20:25:13.9400,-0.15,-0.06,0.29
2020-08-12 20:25:14.0390,-0.26,-0.04,0.14
2020-08-12 20:25:14.1380,-0.38,-0.05,-0.06
2020-08-12 20:25:14.2380,-0.36,-0.05,-0.28
2020-08-12 20:25:14.3370,0.29,-0.36,-0.42
2020-08-12 20:25:14.4360,0.22,-0.01,0.2
2020-08-12 20:25:14.5350,0.16,-0.06,-0.09
2020-08-12 20:25:14.6350,0.1,-0.01,-0.01
2020-08-12 20:25:14.7340,-0.01,0.0,0.02
2020-08-12 20:25:14.8330,0.04,-0.02,0.02
2020-08-12 20:25:14.9330,0.08,-0.04,0.0
2020-08-12 20:25:15.0320,0.03,-0.06,0.09
2020-08-12 20:25:15.1310,0.09,-0.25,-0.02
2020-08-12 20:25:15.2300,0.25,-0.3,0.01
2020-08-12 20:25:15.3300,-0.09,0.09,-0.12
2020-08-12 20:25:15.4290,0.61,0.09,-0.22
2020-08-12 20:25:15.5280,0.25,-0.04,0.1
2020-08-12 20:25:15.6280,0.09,-0.15,0.29
2020-08-12 20:25:15.7260,-0.09,-0.12,0.4
2020-08-12 20:25:15.8260,-0.25,-0.12,0.23
2020-08-12 20:25:15.9250,-0.43,-0.08,0.08
2020-08-12 20:25:16.0240,-0.39,-0.01,-0.03
2020-08-12 20:25:16.1240,-0.33,-0.05,-0.17
2020-08-12 20:25:16.2230,-0.21,-0.01,-0.22
2020-08-12 20:25:16.3220,0.06,-0.39,-0.39
2020-08-12 20:25:16.4220,-0.1,0.02,0.03
2020-08-12 20:25:16.5210,-0.05,-0.04,0.11
2020-08-12 20:25:16.6200,0.01,0.01,0.0
2020-08-12 20:25:16.7190,-0.01,-0.01,0.01
2020-08-12 20:25:16.8190,0.07,-0.01,0.04
2020-08-12 20:25:16.9180,0.08,-0.02,0.01
2020-08-12 20:25:17.0170,0.06,-0.09,0.07
2020-08-12 20:25:17.1170,0.16,-0.26,-0.05
2020-08-12 20:25:17.2160,0.44,-0.19,-0.12
2020-08-12 20:25:17.3150,0.36,0.36,-0.04
2020-08-12 20:25:17.4140,0.55,-0.11,-0.15
2020-08-12 20:25:17.5130,0.01,-0.09,0.19
2020-08-12 20:25:17.6130,-0.12,-0.04,0.24
2020-08-12 20:25:17.7120,-0.18,-0.05,0.3
2020-08-12 20:25:17.8110,-0.33,-0.02,0.29
2020-08-12 20:25:17.9100,-0.22,-0.05,0.11
2020-08-12 20:25:18.0100,-0.27,-0.0,0.0
2020-08-12 20:25:18.1090,-0.28,-0.05,-0.31
2020-08-12 20:25:18.2080,-0.54,-0.33,0.24
2020-08-12 20:25:18.3080,-0.2,0.11,0.18
2020-08-12 20:25:18.4070,-0.06,-0.04,0.02
2020-08-12 20:25:18.5060,0.01,-0.01,0.01
2020-08-12 20:25:18.6050,-0.04,0.02,0.04
2020-08-12 20:25:18.7050,0.05,-0.01,0.01
2020-08-12 20:25:18.8040,0.08,-0.04,0.03
2020-08-12 20:25:18.9030,0.09,-0.1,0.07
2020-08-12 20:25:19.0020,0.14,-0.49,-0.04
2020-08-12 20:25:19.1020,0.2,-0.11,-0.09
2020-08-12 20:25:19.2010,0.59,0.24,-0.31
2020-08-12 20:25:19.3000,0.35,-0.12,0.01
2020-08-12 20:25:19.4000,0.05,-0.08,0.22
2020-08-12 20:25:19.4990,-0.16,-0.02,0.33
2020-08-12 20:25:19.5980,-0.42,-0.07,0.31
2020-08-12 20:25:19.6970,-0.39,-0.05,0.2
2020-08-12 20:25:19.7970,-0.17,-0.02,0.08
2020-08-12 20:25:19.8960,-0.23,-0.05,-0.09
2020-08-12 20:25:19.9950,-0.14,-0.08,-0.39
2020-08-12 20:25:20.0940,-0.07,-0.17,-0.18
2020-08-12 20:25:20.1940,0.25,-0.02,0.03
2020-08-12 20:25:20.2930,0.04,-0.05,-0.01
2020-08-12 20:25:20.3920,0.04,0.01,0.05
2020-08-12 20:25:20.4910,-0.04,0.0,0.03
2020-08-12 20:25:20.5910,0.08,-0.02,0.02
2020-08-12 20:25:20.6900,0.07,-0.0,0.01
2020-08-12 20:25:20.7900,0.03,-0.04,0.05
2020-08-12 20:25:20.8890,0.07,-0.21,0.08
2020-08-12 20:25:20.9880,0.14,-0.3,-0.12
2020-08-12 20:25:21.0870,-0.28,-0.0,0.03
2020-08-12 20:25:21.1870,0.65,0.08,-0.13
2020-08-12 20:25:21.2860,0.24,-0.04,0.14
2020-08-12 20:25:21.3850,0.03,-0.12,0.3
2020-08-12 20:25:21.4840,-0.09,-0.1,0.29
2020-08-12 20:25:21.5830,-0.35,-0.08,0.26
2020-08-12 20:25:21.6830,-0.38,-0.06,0.08
2020-08-12 20:25:21.7820,-0.28,-0.02,-0.01
2020-08-12 20:25:21.8810,-0.34,-0.04,-0.09
2020-08-12 20:25:21.9800,-0.12,0.01,-0.29
2020-08-12 20:25:22.0800,0.22,0.13,-0.22
2020-08-12 20:25:22.1790,-0.03,0.03,-0.07
2020-08-12 20:25:22.2780,-0.09,-0.01,0.15
2020-08-12 20:25:22.3780,0.05,0.01,0.0
2020-08-12 20:25:22.4770,0.0,-0.01,0.0
2020-08-12 20:25:22.5760,0.04,-0.02,0.02
2020-08-12 20:25:22.6750,0.05,-0.01,0.05
2020-08-12 20:25:22.7750,0.05,-0.06,0.09
2020-08-12 20:25:22.8740,0.15,-0.34,-0.06
2020-08-12 20:25:22.9730,0.44,-0.1,-0.23
2020-08-12 20:25:23.0720,0.28,0.21,-0.15
2020-08-12 20:25:23.1720,0.62,-0.16,-0.07
2020-08-12 20:25:23.2710,0.11,-0.04,0.33
2020-08-12 20:25:23.3700,-0.19,-0.03,0.32
2020-08-12 20:25:23.4700,-0.39,-0.04,0.33
2020-08-12 20:25:23.5690,-0.29,-0.04,0.21
2020-08-12 20:25:23.6680,-0.16,-0.03,0.0
2020-08-12 20:25:23.7670,-0.31,-0.05,0.0
2020-08-12 20:25:23.8670,-0.25,-0.08,-0.29
2020-08-12 20:25:23.9660,-0.14,-0.12,-0.49
2020-08-12 20:25:24.0650,0.15,0.06,0.19
2020-08-12 20:25:24.1640,0.12,-0.05,-0.06
2020-08-12 20:25:24.2640,0.01,-0.01,0.07
2020-08-12 20:25:24.3630,0.02,-0.01,0.01
2020-08-12 20:25:24.4620,0.04,-0.0,0.02
2020-08-12 20:25:24.5610,0.06,-0.0,0.02
2020-08-12 20:25:24.6610,0.07,-0.03,0.05
2020-08-12 20:25:24.7600,0.07,-0.15,0.05
2020-08-12 20:25:24.8590,0.22,-0.42,-0.09
2020-08-12 20:25:24.9590,-0.28,0.08,-0.1
2020-08-12 20:25:25.0580,0.64,-0.06,-0.25
2020-08-12 20:25:25.1570,0.03,-0.06,0.19
2020-08-12 20:25:25.2560,-0.02,-0.0,0.29
2020-08-12 20:25:25.3560,-0.08,-0.04,0.35
2020-08-12 20:25:25.4550,-0.21,-0.01,0.32
2020-08-12 20:25:25.5540,-0.29,-0.05,0.18
2020-08-12 20:25:25.6530,-0.3,-0.07,-0.05
2020-08-12 20:25:25.7530,-0.25,-0.03,-0.19
2020-08-12 20:25:25.8520,-0.23,-0.02,-0.31
2020-08-12 20:25:25.9510,-0.07,0.24,-0.17
2020-08-12 20:25:26.0510,-0.3,-0.01,0.06
2020-08-12 20:25:26.1500,-0.12,-0.01,0.15
2020-08-12 20:25:26.2490,-0.02,0.01,0.03
2020-08-12 20:25:26.3480,-0.0,-0.0,0.02
2020-08-12 20:25:26.4480,0.04,-0.03,0.02
2020-08-12 20:25:26.5470,0.04,-0.01,0.03
2020-08-12 20:25:26.6460,0.04,-0.08,0.06
2020-08-12 20:25:26.7450,0.09,-0.25,-0.03
2020-08-12 20:25:26.8450,0.22,-0.25,-0.02
2020-08-12 20:25:26.9440,-0.11,0.04,-0.1
2020-08-12 20:25:27.0430,0.69,0.13,-0.32
2020-08-12 20:25:27.1420,0.01,-0.05,0.17
2020-08-12 20:25:27.2420,-0.04,-0.02,0.23
2020-08-12 20:25:27.3410,-0.08,-0.08,0.35
2020-08-12 20:25:27.4400,-0.22,-0.05,0.31
2020-08-12 20:25:27.5400,-0.31,-0.06,0.16
2020-08-12 20:25:27.6390,-0.24,-0.05,-0.01
2020-08-12 20:25:27.7380,-0.34,-0.07,-0.1
2020-08-12 20:25:27.8370,-0.18,-0.07,-0.37
2020-08-12 20:25:27.9370,0.13,-0.08,-0.42
2020-08-12 20:25:28.0360,-0.12,0.03,0.06
2020-08-12 20:25:28.1350,-0.15,-0.0,0.16
2020-08-12 20:25:28.2340,0.04,0.0,0.02
2020-08-12 20:25:28.3340,0.01,-0.02,-0.01
2020-08-12 20:25:28.4330,0.04,-0.02,0.01
2020-08-12 20:25:28.5320,0.05,-0.02,0.03
2020-08-12 20:25:28.6310,0.02,-0.06,0.05
2020-08-12 20:25:28.7310,0.07,-0.26,-0.03
2020-08-12 20:25:28.8300,0.21,-0.24,-0.05
2020-08-12 20:25:28.9290,-0.16,0.23,0.02
2020-08-12 20:25:29.0290,0.68,-0.07,-0.18
2020-08-12 20:25:29.1280,0.12,-0.06,0.25
2020-08-12 20:25:29.2270,-0.02,-0.03,0.37
2020-08-12 20:25:29.3260,-0.07,-0.05,0.33
2020-08-12 20:25:29.4260,-0.22,-0.05,0.32
2020-08-12 20:25:29.5250,-0.33,-0.08,0.08
2020-08-12 20:25:29.6240,-0.29,-0.05,0.0
2020-08-12 20:25:29.7230,-0.21,-0.07,-0.31
2020-08-12 20:25:29.8230,-0.22,-0.02,-0.48
2020-08-12 20:25:29.9220,-0.12,0.2,-0.0
2020-08-12 20:25:30.0210,-0.11,-0.0,0.03
2020-08-12 20:25:30.1200,-0.05,-0.02,0.08
2020-08-12 20:25:30.2200,-0.02,-0.0,0.06
2020-08-12 20:25:30.3190,0.04,0.0,0.01
2020-08-12 20:25:30.4180,0.06,-0.01,0.02
2020-08-12 20:25:30.5180,0.07,-0.02,0.01
2020-08-12 20:25:30.6170,0.07,-0.06,0.03
2020-08-12 20:25:30.7160,0.04,-0.21,-0.01
2020-08-12 20:25:30.8150,0.33,-0.28,-0.13
2020-08-12 20:25:30.9150,-0.12,0.06,-0.04
2020-08-12 20:25:31.0140,0.54,0.03,-0.14
2020-08-12 20:25:31.1130,0.06,-0.02,0.17
2020-08-12 20:25:31.2130,0.03,-0.1,0.21
2020-08-12 20:25:31.3120,-0.04,-0.04,0.37
2020-08-12 20:25:31.4110,-0.2,-0.02,0.34
2020-08-12 20:25:31.5100,-0.39,-0.04,0.21
2020-08-12 20:25:31.6090,-0.27,-0.04,-0.0
2020-08-12 20:25:31.7090,-0.3,-0.05,-0.09
2020-08-12 20:25:31.8080,-0.24,0.01,-0.4
2020-08-12 20:25:31.9070,-0.2,-0.56,-0.72
2020-08-12 20:25:32.0060,-0.49,0.05,0.24
2020-08-12 20:25:32.1060,-0.16,-0.0,0.14
2020-08-12 20:25:32.2050,-0.05,0.02,0.05
2020-08-12 20:25:32.3040,-0.04,-0.01,0.01
2020-08-12 20:25:32.4040,0.04,-0.02,0.02
2020-08-12 20:25:32.5030,0.07,-0.0,0.02
2020-08-12 20:25:32.6020,0.09,-0.07,0.07
2020-08-12 20:25:32.7010,0.04,-0.29,-0.08
2020-08-12 20:25:32.8010,0.29,-0.19,-0.06
2020-08-12 20:25:32.9000,0.01,0.23,0.2
2020-08-12 20:25:32.9990,0.79,-0.13,-0.15
2020-08-12 20:25:33.0980,0.04,-0.04,0.34
2020-08-12 20:25:33.1980,-0.0,-0.06,0.3
2020-08-12 20:25:33.2970,-0.23,-0.03,0.33
2020-08-12 20:25:33.3960,-0.31,-0.05,0.22
2020-08-12 20:25:33.4960,-0.31,-0.05,0.04
2020-08-12 20:25:33.5950,-0.33,-0.08,-0.05
2020-08-12 20:25:33.6940,-0.23,-0.09,-0.29
2020-08-12 20:25:33.7930,0.17,-0.07,-0.47
2020-08-12 20:25:33.8930,-0.15,0.12,0.11
2020-08-12 20:25:33.9920,0.02,-0.06,-0.01
2020-08-12 20:25:34.0910,0.04,-0.01,0.07
2020-08-12 20:25:34.1900,-0.02,0.02,0.03
2020-08-12 20:25:34.2900,-0.0,-0.01,0.02
2020-08-12 20:25:34.3890,0.02,-0.02,0.02
2020-08-12 20:25:34.4880,0.02,-0.01,0.04
2020-08-12 20:25:34.5870,0.06,-0.09,0.07
2020-08-12 20:25:34.6870,0.2,-0.35,-0.04
2020-08-12 20:25:34.7860,0.27,-0.17,-0.1
2020-08-12 20:25:34.8850,0.37,0.18,-0.26
2020-08-12 20:25:34.9850,0.39,0.0,-0.13
2020-08-12 20:25:35.0840,0.05,-0.09,0.2
2020-08-12 20:25:35.1830,-0.07,-0.1,0.28
2020-08-12 20:25:35.2820,-0.19,-0.08,0.28
2020-08-12 20:25:35.3820,-0.3,-0.03,0.22
2020-08-12 20:25:35.4810,-0.28,-0.06,0.05
2020-08-12 20:25:35.5800,-0.4,-0.03,-0.07
2020-08-12 20:25:35.6800,-0.32,-0.03,-0.26
2020-08-12 20:25:35.7790,-0.26,-0.89,0.33
2020-08-12 20:25:35.8780,-0.17,0.14,0.34
2020-08-12 20:25:35.9770,0.01,-0.03,0.03
2020-08-12 20:25:36.0770,0.09,-0.02,0.0
2020-08-12 20:25:36.1760,-0.01,0.03,0.05
2020-08-12 20:25:36.2750,0.06,-0.0,0.03
2020-08-12 20:25:36.3740,0.05,-0.0,0.0
2020-08-12 20:25:36.4740,0.03,-0.05,0.03
2020-08-12 20:25:36.5730,0.07,-0.22,0.06
2020-08-12 20:25:36.6720,0.27,-0.42,-0.05
2020-08-12 20:25:36.7710,-0.14,0.16,0.09
2020-08-12 20:25:36.8710,0.69,0.11,-0.15
2020-08-12 20:25:36.9700,0.09,-0.1,0.17
2020-08-12 20:25:37.0690,-0.07,-0.07,0.17
2020-08-12 20:25:37.1680,-0.1,-0.13,0.17
2020-08-12 20:25:37.2680,-0.14,0.01,0.26
2020-08-12 20:25:37.3670,-0.21,-0.03,0.17
2020-08-12 20:25:37.4660,-0.29,-0.02,0.16
2020-08-12 20:25:37.5650,-0.31,-0.03,-0.04
2020-08-12 20:25:37.6650,-0.21,-0.04,-0.27
2020-08-12 20:25:37.7640,-0.01,-0.21,-0.54
2020-08-12 20:25:37.8630,0.24,0.09,0.09
2020-08-12 20:25:37.9630,0.09,-0.07,-0.03
2020-08-12 20:25:38.0620,0.04,-0.01,0.08
2020-08-12 20:25:38.1610,-0.02,0.01,0.02
2020-08-12 20:25:38.2600,0.07,0.01,0.05
2020-08-12 20:25:38.3600,0.04,-0.01,0.03
2020-08-12 20:25:38.4590,-0.02,-0.06,-0.0
2020-08-12 20:25:38.5580,-0.01,-0.08,0.05
2020-08-12 20:25:38.6580,0.14,-0.37,-0.01
2020-08-12 20:25:38.7570,0.33,-0.14,-0.15
2020-08-12 20:25:38.8560,0.17,0.21,0.04
2020-08-12 20:25:38.9550,0.67,-0.0,-0.18
2020-08-12 20:25:39.0550,0.19,-0.12,0.24
2020-08-12 20:25:39.1540,-0.02,-0.09,0.37
2020-08-12 20:25:39.2530,-0.26,-0.12,0.32
2020-08-12 20:25:39.3520,-0.43,-0.08,0.31
2020-08-12 20:25:39.4510,-0.31,-0.04,0.09
2020-08-12 20:25:39.5510,-0.26,-0.04,-0.12
2020-08-12 20:25:39.6500,-0.35,-0.06,-0.35
2020-08-12 20:25:39.7490,-0.29,-0.77,0.28
2020-08-12 20:25:39.8490,0.19,0.11,0.21
2020-08-12 20:25:39.9480,0.08,-0.03,-0.03
2020-08-12 20:25:40.0470,0.06,0.01,0.02
2020-08-12 20:25:40.1470,0.02,0.01,0.01
2020-08-12 20:25:40.2460,-0.05,-0.04,0.01
2020-08-12 20:25:40.3450,-0.03,-0.03,0.02
2020-08-12 20:25:40.4440,0.04,-0.01,0.04
2020-08-12 20:25:40.5440,0.03,-0.03,0.04
2020-08-12 20:25:40.6430,0.11,-0.3,-0.0
2020-08-12 20:25:40.7420,0.33,-0.24,-0.13
2020-08-12 20:25:40.8410,0.07,0.2,0.01
2020-08-12 20:25:40.9410,0.63,0.06,-0.12
2020-08-12 20:25:41.0400,0.24,-0.1,0.19
2020-08-12 20:25:41.1390,-0.11,-0.09,0.31
2020-08-12 20:25:41.2380,-0.15,-0.11,0.26
2020-08-12 20:25:41.3380,-0.28,-0.08,0.23
2020-08-12 20:25:41.4370,-0.33,-0.04,0.12
2020-08-12 20:25:41.5360,-0.3,-0.01,-0.04
2020-08-12 20:25:41.6350,-0.29,-0.06,-0.21
2020-08-12 20:25:41.7350,0.01,-0.41,-0.98
2020-08-12 20:25:41.8340,-0.19,0.1,0.49
2020-08-12 20:25:41.9330,0.07,-0.05,0.04
2020-08-12 20:25:42.0330,0.04,0.01,0.04
2020-08-12 20:25:42.1320,-0.04,0.0,0.02
2020-08-12 20:25:42.2310,0.01,-0.02,0.05
2020-08-12 20:25:42.3300,0.01,-0.02,0.03
2020-08-12 20:25:42.4300,0.07,-0.04,0.07
2020-08-12 20:25:42.5290,0.07,-0.12,0.01
2020-08-12 20:25:42.6280,0.16,-0.45,-0.04
2020-08-12 20:25:42.7280,0.11,-0.01,-0.18
2020-08-12 20:25:42.8270,0.42,0.11,-0.12
2020-08-12 20:25:42.9260,0.42,0.01,-0.06
2020-08-12 20:25:43.0250,0.13,-0.13,0.21
2020-08-12 20:25:43.1240,-0.15,-0.03,0.36
2020-08-12 20:25:43.2240,-0.22,-0.1,0.3
2020-08-12 20:25:43.3230,-0.31,-0.04,0.22
2020-08-12 20:25:43.4220,-0.24,-0.03,0.08
2020-08-12 20:25:43.5210,-0.3,-0.07,-0.13
2020-08-12 20:25:43.6210,-0.3,-0.05,-0.25
2020-08-12 20:25:43.7200,-0.07,-0.29,-0.41
2020-08-12 20:25:43.8200,0.15,0.03,0.22
2020-08-12 20:25:43.9190,0.06,-0.08,-0.04
2020-08-12 20:25:44.0180,0.06,-0.02,0.02
2020-08-12 20:25:44.1170,-0.04,0.02,0.03
2020-08-12 20:25:44.2170,0.05,-0.01,0.02
2020-08-12 20:25:44.3160,0.02,-0.0,0.02
2020-08-12 20:25:44.4150,0.05,-0.02,0.03
2020-08-12 20:25:44.5140,0.05,-0.1,0.01
2020-08-12 20:25:44.6140,0.16,-0.33,-0.02
2020-08-12 20:25:44.7130,0.37,-0.15,-0.07
2020-08-12 20:25:44.8120,0.06,0.24,0.15
2020-08-12 20:25:44.9110,0.58,-0.01,-0.1
2020-08-12 20:25:45.0110,0.1,-0.03,0.07
2020-08-12 20:25:45.1100,0.02,-0.05,0.25
2020-08-12 20:25:45.2090,-0.09,0.02,0.38
2020-08-12 20:25:45.3080,-0.19,-0.07,0.28
2020-08-12 20:25:45.4080,-0.42,-0.09,0.19
2020-08-12 20:25:45.5070,-0.44,-0.07,0.01
2020-08-12 20:25:45.6060,-0.35,-0.05,-0.21
2020-08-12 20:25:45.7060,-0.02,-0.37,-0.76
2020-08-12 20:25:45.8050,-0.08,0.22,0.36
2020-08-12 20:25:45.9040,-0.07,-0.05,0.03
2020-08-12 20:25:46.0030,-0.03,0.03,0.11
2020-08-12 20:25:46.1030,0.03,0.01,0.04
2020-08-12 20:25:46.2020,0.04,-0.01,0.02
2020-08-12 20:25:46.3010,0.05,-0.02,0.01
2020-08-12 20:25:46.4000,0.05,-0.02,0.05
2020-08-12 20:25:46.5000,0.06,-0.14,0.04
2020-08-12 20:25:46.5990,0.21,-0.53,-0.02
2020-08-12 20:25:46.6980,0.24,-0.05,-0.2
2020-08-12 20:25:46.7970,0.71,0.28,-0.16
2020-08-12 20:25:46.8970,0.37,-0.12,0.05
2020-08-12 20:25:46.9960,0.02,-0.09,0.35
2020-08-12 20:25:47.0950,-0.23,-0.1,0.3
2020-08-12 20:25:47.1950,-0.33,-0.06,0.23
2020-08-12 20:25:47.2940,-0.38,-0.07,0.15
2020-08-12 20:25:47.3930,-0.26,-0.04,-0.15
2020-08-12 20:25:47.4920,-0.19,0.02,-0.21
2020-08-12 20:25:47.5920,-0.36,-0.2,-0.43
2020-08-12 20:25:47.6910,0.04,0.12,0.09
2020-08-12 20:25:47.7900,0.09,-0.05,-0.11
2020-08-12 20:25:47.8890,0.1,-0.03,0.09
2020-08-12 20:25:47.9890,-0.02,0.04,0.03
2020-08-12 20:25:48.0880,0.01,-0.02,0.04
2020-08-12 20:25:48.1870,0.04,-0.04,-0.0
2020-08-12 20:25:48.2860,0.06,-0.0,0.02
2020-08-12 20:25:48.3860,0.03,-0.06,0.04
2020-08-12 20:25:48.4850,0.12,-0.3,-0.02
2020-08-12 20:25:48.5840,0.37,-0.24,-0.03
2020-08-12 20:25:48.6840,-0.13,0.15,-0.05
2020-08-12 20:25:48.7830,0.69,0.06,-0.14
2020-08-12 20:25:48.8820,0.18,-0.02,0.18
2020-08-12 20:25:48.9810,0.02,-0.09,0.3
2020-08-12 20:25:49.0810,-0.06,-0.12,0.25
2020-08-12 20:25:49.1800,-0.29,-0.12,0.21
2020-08-12 20:25:49.2790,-0.4,-0.05,0.13
2020-08-12 20:25:49.3780,-0.43,-0.03,-0.08
2020-08-12 20:25:49.4780,-0.3,-0.04,-0.32
2020-08-12 20:25:49.5770,-0.62,-0.96,0.17
2020-08-12 20:25:49.6760,-0.26,0.18,0.36
2020-08-12 20:25:49.7750,-0.02,-0.02,0.1
2020-08-12 20:25:49.8750,-0.01,0.01,0.04
2020-08-12 20:25:49.9740,-0.03,0.0,0.02
2020-08-12 20:25:50.0730,0.04,-0.02,0.04
2020-08-12 20:25:50.1720,0.03,-0.01,0.04
2020-08-12 20:25:50.2720,0.01,-0.05,0.02
2020-08-12 20:25:50.3710,0.06,-0.25,0.08
2020-08-12 20:25:50.4700,0.29,-0.4,-0.02
2020-08-12 20:25:50.5700,0.06,-0.04,-0.2
2020-08-12 20:25:50.6690,0.52,0.09,-0.23
2020-08-12 20:25:50.7680,0.37,-0.03,0.02
2020-08-12 20:25:50.8670,0.09,-0.06,0.35
2020-08-12 20:25:50.9670,-0.23,-0.11,0.34
2020-08-12 20:25:51.0660,-0.43,-0.1,0.3
2020-08-12 20:25:51.1650,-0.3,-0.04,0.12
2020-08-12 20:25:51.2640,-0.22,-0.04,0.0
2020-08-12 20:25:51.3640,-0.28,-0.06,-0.14
2020-08-12 20:25:51.4630,-0.2,-0.03,-0.3
2020-08-12 20:25:51.5620,-0.18,-0.65,0.06
2020-08-12 20:25:51.6620,-0.24,0.06,0.2
2020-08-12 20:25:51.7610,-0.1,0.0,0.1
2020-08-12 20:25:51.8600,0.0,0.01,0.01
2020-08-12 20:25:51.9590,-0.01,-0.0,0.0
2020-08-12 20:25:52.0590,0.02,-0.01,0.02
2020-08-12 20:25:52.1580,0.05,0.0,0.03
2020-08-12 20:25:52.2570,0.04,-0.06,0.04
2020-08-12 20:25:52.3560,0.08,-0.2,0.04
2020-08-12 20:25:52.4560,0.23,-0.43,0.04
2020-08-12 20:25:52.5550,0.12,-0.0,-0.36
2020-08-12 20:25:52.6540,0.45,0.17,-0.02
2020-08-12 20:25:52.7540,0.46,-0.02,0.16
2020-08-12 20:25:52.8530,0.2,-0.09,0.29
2020-08-12 20:25:52.9520,-0.17,-0.13,0.32
2020-08-12 20:25:53.0510,-0.36,-0.12,0.27
2020-08-12 20:25:53.1510,-0.37,-0.09,0.18
2020-08-12 20:25:53.2500,-0.28,-0.07,0.13
2020-08-12 20:25:53.3490,-0.22,0.01,-0.16
2020-08-12 20:25:53.4480,-0.27,-0.04,-0.37
2020-08-12 20:25:53.5480,-0.18,-0.84,-0.1
2020-08-12 20:25:53.6470,0.0,0.13,0.2
2020-08-12 20:25:53.7460,-0.02,-0.01,0.07
2020-08-12 20:25:53.8450,0.0,0.01,0.04
2020-08-12 20:25:53.9450,-0.0,-0.03,-0.01
2020-08-12 20:25:54.0440,0.01,0.01,0.05
2020-08-12 20:25:54.1430,0.1,0.0,0.03
2020-08-12 20:25:54.2430,0.13,-0.05,0.04
2020-08-12 20:25:54.3420,0.08,-0.18,0.03
2020-08-12 20:25:54.4410,0.28,-0.54,-0.06
2020-08-12 20:25:54.5400,-0.17,0.14,0.08
2020-08-12 20:25:54.6400,0.79,0.11,-0.21
2020-08-12 20:25:54.7390,-0.02,-0.11,0.14
2020-08-12 20:25:54.8380,-0.06,-0.13,0.18
2020-08-12 20:25:54.9370,-0.3,-0.05,0.3
2020-08-12 20:25:55.0360,-0.38,-0.07,0.27
2020-08-12 20:25:55.1360,-0.3,-0.02,0.2
2020-08-12 20:25:55.2350,-0.18,-0.02,0.06
2020-08-12 20:25:55.3340,-0.22,-0.06,-0.11
2020-08-12 20:25:55.4340,-0.28,-0.04,-0.32
2020-08-12 20:25:55.5330,-0.3,-0.56,0.35
2020-08-12 20:25:55.6320,-0.09,0.06,0.13
2020-08-12 20:25:55.7310,-0.02,-0.01,0.08
2020-08-12 20:25:55.8310,0.05,0.0,0.02
2020-08-12 20:25:55.9300,0.01,-0.01,0.0
2020-08-12 20:25:56.0290,0.04,-0.02,0.03
2020-08-12 20:25:56.1290,0.05,-0.0,0.01
2020-08-12 20:25:56.2280,0.06,-0.06,0.06
2020-08-12 20:25:56.3270,0.01,-0.2,0.05
2020-08-12 20:25:56.4260,0.14,-0.31,-0.01
2020-08-12 20:25:56.5250,-0.09,0.09,-0.1
2020-08-12 20:25:56.6250,0.43,0.03,-0.25
2020-08-12 20:25:56.7240,0.21,-0.03,0.02
2020-08-12 20:25:56.8230,0.07,0.0,0.33
2020-08-12 20:25:56.9230,-0.04,0.01,0.41
2020-08-12 20:25:57.0220,-0.25,-0.06,0.31
2020-08-12 20:25:57.1210,-0.25,-0.08,0.08
2020-08-12 20:25:57.2200,-0.14,-0.05,-0.08
2020-08-12 20:25:57.3200,-0.33,-0.07,0.04
2020-08-12 20:25:57.4190,-0.23,-0.04,-0.34
2020-08-12 20:25:57.5180,-0.2,-0.31,0.12
2020-08-12 20:25:57.6180,0.33,-0.03,-0.01
2020-08-12 20:25:57.7170,0.01,-0.07,-0.03
2020-08-12 20:25:57.8160,0.08,0.02,0.03
2020-08-12 20:25:57.9150,-0.02,0.04,0.03
2020-08-12 20:25:58.0150,0.04,-0.01,0.02
2020-08-12 20:25:58.1140,0.03,-0.01,0.02
2020-08-12 20:25:58.2130,0.03,-0.08,0.01
2020-08-12 20:25:58.3120,0.06,-0.23,0.07
2020-08-12 20:25:58.4120,0.22,-0.31,-0.07
2020-08-12 20:25:58.5110,-0.21,0.02,-0.06
2020-08-12 20:25:58.6100,0.69,0.13,-0.28
2020-08-12 20:25:58.7100,0.14,-0.08,0.1
2020-08-12 20:25:58.8090,-0.01,-0.05,0.28
2020-08-12 20:25:58.9080,-0.14,-0.08,0.3
2020-08-12 20:25:59.0070,-0.31,-0.03,0.27
2020-08-12 20:25:59.1070,-0.3,-0.07,0.13
2020-08-12 20:25:59.2060,-0.18,-0.05,0.0
2020-08-12 20:25:59.3050,-0.39,-0.03,-0.17
2020-08-12 20:25:59.4040,-0.19,-0.12,-0.72
2020-08-12 20:25:59.5040,-0.2,0.15,0.24
2020-08-12 20:25:59.6030,0.03,-0.01,-0.11
2020-08-12 20:25:59.7020,-0.02,-0.01,0.14
2020-08-12 20:25:59.8010,-0.03,0.0,0.05
2020-08-12 20:25:59.9010,-0.05,-0.0,0.03
2020-08-12 20:26:00.0000,-0.0,-0.01,0.04
2020-08-12 20:26:00.0990,0.05,-0.01,0.02
2020-08-12 20:26:00.1990,-0.04,-0.05,0.09
2020-08-12 20:26:00.2980,0.1,-0.35,0.02
2020-08-12 20:26:00.3970,0.33,-0.24,-0.04
2020-08-12 20:26:00.4960,0.15,0.26,-0.0
2020-08-12 20:26:00.5960,0.59,0.05,-0.16
2020-08-12 20:26:00.6950,0.15,-0.07,0.15
2020-08-12 20:26:00.7940,-0.07,-0.09,0.36
2020-08-12 20:26:00.8930,-0.35,-0.08,0.37
2020-08-12 20:26:00.9930,-0.42,-0.07,0.16
2020-08-12 20:26:01.0920,-0.17,-0.05,0.05
2020-08-12 20:26:01.1910,-0.11,0.01,-0.01
2020-08-12 20:26:01.2900,-0.29,-0.04,-0.15
2020-08-12 20:26:01.3900,-0.22,-0.05,-0.26
2020-08-12 20:26:01.4890,-0.01,-0.39,-0.18
2020-08-12 20:26:01.5880,-0.03,0.1,-0.01
2020-08-12 20:26:01.6880,-0.1,-0.04,0.07
2020-08-12 20:26:01.7870,0.04,-0.02,0.01
2020-08-12 20:26:01.8860,-0.0,0.01,0.01
2020-08-12 20:26:01.9850,0.07,-0.02,0.02
2020-08-12 20:26:02.0850,0.06,-0.02,0.02
2020-08-12 20:26:02.1840,0.11,-0.09,0.06
2020-08-12 20:26:02.2830,0.13,-0.38,-0.01
2020-08-12 20:26:02.3820,0.37,-0.14,-0.21
2020-08-12 20:26:02.4820,0.36,0.25,-0.19
2020-08-12 20:26:02.5810,0.52,-0.1,-0.19
2020-08-12 20:26:02.6800,0.08,-0.03,0.3
2020-08-12 20:26:02.7800,-0.12,-0.07,0.39
2020-08-12 20:26:02.8790,-0.27,-0.05,0.32
2020-08-12 20:26:02.9780,-0.34,-0.06,0.19
2020-08-12 20:26:03.0770,-0.27,-0.03,0.05
2020-08-12 20:26:03.1760,-0.22,-0.02,-0.07
2020-08-12 20:26:03.2760,-0.27,-0.03,-0.2
2020-08-12 20:26:03.3750,-0.33,-0.14,-0.68
2020-08-12 20:26:03.4740,-0.1,0.09,0.37
2020-08-12 20:26:03.5740,0.06,-0.08,-0.05
2020-08-12 20:26:03.6730,0.03,0.01,0.08
2020-08-12 20:26:03.7720,-0.01,0.03,0.06
2020-08-12 20:26:03.8710,0.03,-0.03,0.03
2020-08-12 20:26:03.9710,0.11,-0.03,0.03
2020-08-12 20:26:04.0700,0.04,-0.09,0.06
2020-08-12 20:26:04.1690,0.13,-0.36,0.02
2020-08-12 20:26:04.2690,0.26,-0.23,-0.03
2020-08-12 20:26:04.3680,-0.0,0.19,-0.04
2020-08-12 20:26:04.4670,0.71,0.05,-0.3
2020-08-12 20:26:04.5660,0.2,-0.12,-0.01
2020-08-12 20:26:04.6660,-0.05,-0.08,0.33
2020-08-12 20:26:04.7650,-0.15,-0.1,0.45
2020-08-12 20:26:04.8640,-0.37,-0.1,0.3
2020-08-12 20:26:04.9630,-0.44,-0.11,0.04
2020-08-12 20:26:05.0630,-0.19,-0.03,-0.21
2020-08-12 20:26:05.1620,-0.42,-0.03,-0.25
2020-08-12 20:26:05.2610,-0.47,-1.11,0.11
2020-08-12 20:26:05.3600,0.06,0.11,0.23
2020-08-12 20:26:05.4600,0.01,-0.03,0.01
2020-08-12 20:26:05.5590,0.04,-0.02,0.0
2020-08-12 20:26:05.6580,-0.0,-0.01,0.01
2020-08-12 20:26:05.7570,0.03,0.0,0.02
2020-08-12 20:26:05.8570,0.07,-0.01,0.02
2020-08-12 20:26:05.9560,0.1,-0.1,0.07
2020-08-12 20:26:06.0550,0.09,-0.33,-0.02
2020-08-12 20:26:06.1550,0.3,-0.34,-0.07
2020-08-12 20:26:06.2540,-0.13,0.12,-0.05
2020-08-12 20:26:06.3530,0.79,0.06,-0.13
2020-08-12 20:26:06.4520,0.06,-0.08,0.18
2020-08-12 20:26:06.5520,-0.16,-0.12,0.22
2020-08-12 20:26:06.6510,-0.25,-0.09,0.16
2020-08-12 20:26:06.7500,-0.34,-0.05,0.17
2020-08-12 20:26:06.8490,-0.33,-0.05,0.12
2020-08-12 20:26:06.9490,-0.22,-0.01,0.0
2020-08-12 20:26:07.0480,-0.23,0.05,-0.04
2020-08-12 20:26:07.1470,-0.22,-0.09,-0.34
2020-08-12 20:26:07.2460,0.16,0.12,-0.26
2020-08-12 20:26:07.3460,-0.1,-0.03,-0.06
2020-08-12 20:26:07.4450,-0.06,-0.01,0.13
2020-08-12 20:26:07.5440,0.01,0.02,0.02
2020-08-12 20:26:07.6440,0.04,-0.01,0.0
2020-08-12 20:26:07.7430,0.04,-0.02,0.02
2020-08-12 20:26:07.8420,0.05,-0.06,0.02
2020-08-12 20:26:07.9410,0.03,-0.16,0.08
2020-08-12 20:26:08.0410,0.19,-0.52,-0.01
2020-08-12 20:26:08.1400,-0.16,-0.07,-0.12
2020-08-12 20:26:08.2390,0.58,0.18,-0.23
2020-08-12 20:26:08.3380,0.41,-0.0,0.0
2020-08-12 20:26:08.4380,0.05,-0.09,0.19
2020-08-12 20:26:08.5370,-0.19,-0.06,0.26
2020-08-12 20:26:08.6360,-0.23,-0.06,0.26
2020-08-12 20:26:08.7350,-0.29,-0.07,0.2
2020-08-12 20:26:08.8350,-0.29,-0.02,0.09
2020-08-12 20:26:08.9340,-0.25,-0.06,-0.21
2020-08-12 20:26:09.0330,-0.39,-0.0,-0.27
2020-08-12 20:26:09.1330,-0.24,-0.88,0.21
2020-08-12 20:26:09.2320,0.12,0.1,0.24
2020-08-12 20:26:09.3310,-0.07,-0.02,0.02
2020-08-12 20:26:09.4300,0.07,0.0,0.01
2020-08-12 20:26:09.5300,-0.01,0.0,-0.01
2020-08-12 20:26:09.6290,0.02,-0.02,0.04
2020-08-12 20:26:09.7280,0.11,-0.03,0.01
2020-08-12 20:26:09.8270,0.06,-0.07,0.06
2020-08-12 20:26:09.9270,0.09,-0.25,0.04
2020-08-12 20:26:10.0260,0.45,-0.3,-0.02
2020-08-12 20:26:10.1250,0.15,0.24,0.1
2020-08-12 20:26:10.2250,0.68,-0.06,-0.3
2020-08-12 20:26:10.3240,0.08,-0.02,0.28
2020-08-12 20:26:10.4230,-0.11,-0.05,0.29
2020-08-12 20:26:10.5220,-0.3,-0.08,0.37
2020-08-12 20:26:10.6220,-0.29,-0.05,0.25
2020-08-12 20:26:10.7210,-0.23,-0.02,0.14
2020-08-12 20:26:10.8200,-0.22,-0.05,-0.01
2020-08-12 20:26:10.9190,-0.3,-0.08,-0.17
2020-08-12 20:26:11.0190,-0.15,-0.08,-0.41
2020-08-12 20:26:11.1180,-0.01,0.1,-0.05
2020-08-12 20:26:11.2170,-0.02,0.07,0.0
2020-08-12 20:26:11.3160,-0.05,-0.07,0.02
2020-08-12 20:26:11.4160,0.08,0.01,0.08
2020-08-12 20:26:11.5150,-0.06,-0.01,0.03
2020-08-12 20:26:11.6140,0.03,-0.02,0.02
2020-08-12 20:26:11.7130,0.05,-0.01,0.02
2020-08-12 20:26:11.8130,0.03,-0.07,0.04
2020-08-12 20:26:11.9120,0.08,-0.18,0.1
2020-08-12 20:26:12.0110,0.2,-0.54,-0.07
2020-08-12 20:26:12.1110,-0.11,0.04,-0.19
2020-08-12 20:26:12.2100,0.68,0.21,-0.26
2020-08-12 20:26:12.3090,0.23,-0.11,0.19
2020-08-12 20:26:12.4080,-0.14,-0.17,0.2
2020-08-12 20:26:12.5080,-0.27,-0.03,0.3
2020-08-12 20:26:12.6070,-0.21,-0.04,0.21
2020-08-12 20:26:12.7060,-0.28,0.0,0.21
2020-08-12 20:26:12.8050,-0.25,-0.06,-0.03
2020-08-12 20:26:12.9050,-0.4,-0.04,-0.28
2020-08-12 20:26:13.0040,-0.16,-0.1,-0.73
2020-08-12 20:26:13.1030,-0.18,0.04,0.43
2020-08-12 20:26:13.2030,0.18,-0.02,-0.06
2020-08-12 20:26:13.3020,-0.07,-0.04,0.02
2020-08-12 20:26:13.4010,0.0,-0.02,0.04
2020-08-12 20:26:13.5000,0.01,0.0,0.03
2020-08-12 20:26:13.6000,0.02,-0.0,-0.0
2020-08-12 20:26:13.6990,0.05,0.01,0.02
2020-08-12 20:26:13.7980,0.07,-0.05,0.01
2020-08-12 20:26:13.8980,0.04,-0.11,0.09
2020-08-12 20:26:13.9970,0.19,-0.54,-0.03
2020-08-12 20:26:14.0960,-0.02,-0.01,-0.04
2020-08-12 20:26:14.1950,0.6,0.17,-0.18
2020-08-12 20:26:14.2950,0.31,-0.0,-0.07
2020-08-12 20:26:14.3940,0.04,-0.15,0.16
2020-08-12 20:26:14.4930,-0.05,-0.08,0.14
2020-08-12 20:26:14.5920,-0.19,-0.06,0.3
2020-08-12 20:26:14.6920,-0.19,-0.03,0.22
2020-08-12 20:26:14.7910,-0.22,0.01,0.18
2020-08-12 20:26:14.8900,-0.36,-0.05,-0.0
2020-08-12 20:26:14.9890,-0.38,-0.04,-0.15
2020-08-12 20:26:15.0890,-0.32,-0.03,-0.33
2020-08-12 20:26:15.1880,-0.23,0.31,-0.04
2020-08-12 20:26:15.2870,-0.36,0.06,0.13
2020-08-12 20:26:15.3860,-0.14,-0.02,0.14
2020-08-12 20:26:15.4860,-0.02,0.02,0.04
2020-08-12 20:26:15.5850,-0.0,0.02,0.02
2020-08-12 20:26:15.6840,0.03,-0.02,0.02
2020-08-12 20:26:15.7840,0.02,0.0,-0.02
2020-08-12 20:26:15.8830,0.04,-0.04,0.06
2020-08-12 20:26:15.9820,0.08,-0.25,0.02
2020-08-12 20:26:16.0810,0.27,-0.43,-0.0
2020-08-12 20:26:16.1810,0.04,0.26,0.12
2020-08-12 20:26:16.2800,0.82,-0.0,-0.17
2020-08-12 20:26:16.3790,-0.09,-0.11,0.34
2020-08-12 20:26:16.4780,-0.08,-0.02,0.28
2020-08-12 20:26:16.5780,-0.18,-0.08,0.28
2020-08-12 20:26:16.6770,-0.3,-0.03,0.28
2020-08-12 20:26:16.7760,-0.27,-0.02,0.07
2020-08-12 20:26:16.8750,-0.23,-0.02,-0.07
2020-08-12 20:26:16.9750,-0.33,-0.04,-0.09
2020-08-12 20:26:17.0740,-0.1,-0.19,-0.54
2020-08-12 20:26:17.1730,0.2,0.14,0.02
2020-08-12 20:26:17.2730,-0.03,0.01,-0.07
2020-08-12 20:26:17.3720,-0.04,-0.05,0.12
2020-08-12 20:26:17.4710,-0.01,0.01,0.03
2020-08-12 20:26:17.5700,-0.02,0.01,0.0
2020-08-12 20:26:17.6700,0.03,0.01,0.03
2020-08-12 20:26:17.7690,0.1,0.0,0.02
2020-08-12 20:26:17.8680,0.11,-0.06,0.02
2020-08-12 20:26:17.9670,0.09,-0.24,0.03
2020-08-12 20:26:18.0670,0.22,-0.27,-0.06
2020-08-12 20:26:18.1660,-0.16,0.01,-0.04
2020-08-12 20:26:18.2650,0.83,0.02,-0.25
2020-08-12 20:26:18.3640,0.11,-0.01,0.14
2020-08-12 20:26:18.4640,0.06,-0.06,0.23
2020-08-12 20:26:18.5630,-0.14,-0.11,0.23
2020-08-12 20:26:18.6620,-0.33,-0.08,0.33
2020-08-12 20:26:18.7620,-0.31,-0.06,0.23
2020-08-12 20:26:18.8610,-0.33,-0.01,0.07
2020-08-12 20:26:18.9600,-0.3,-0.03,-0.23
2020-08-12 20:26:19.0590,-0.23,-0.05,-0.39
2020-08-12 20:26:19.1590,-0.43,-0.05,-0.3
2020-08-12 20:26:19.2580,-0.29,0.11,0.26
2020-08-12 20:26:19.3570,-0.04,-0.02,0.04
2020-08-12 20:26:19.4560,-0.02,-0.01,0.04
2020-08-12 20:26:19.5560,-0.01,-0.0,0.0
2020-08-12 20:26:19.6550,0.05,-0.0,0.03
2020-08-12 20:26:19.7540,0.11,-0.01,0.01
2020-08-12 20:26:19.8530,0.1,-0.05,0.07
2020-08-12 20:26:19.9530,0.03,-0.18,-0.03
2020-08-12 20:26:20.0520,0.22,-0.42,-0.02
2020-08-12 20:26:20.1510,-0.06,-0.13,-0.01
2020-08-12 20:26:20.2510,0.69,0.3,-0.34
2020-08-12 20:26:20.3500,0.38,-0.1,0.04
2020-08-12 20:26:20.4490,-0.12,-0.17,0.29
2020-08-12 20:26:20.5480,-0.22,-0.09,0.3
2020-08-12 20:26:20.6480,-0.26,-0.07,0.23
2020-08-12 20:26:20.7470,-0.35,-0.03,0.15
2020-08-12 20:26:20.8460,-0.29,-0.01,0.08
2020-08-12 20:26:20.9450,-0.27,-0.03,-0.19
2020-08-12 20:26:21.0450,-0.15,-0.11,-0.4
2020-08-12 20:26:21.1440,0.07,0.12,-0.26
2020-08-12 20:26:21.2430,-0.21,0.02,0.07
2020-08-12 20:26:21.3430,-0.2,0.02,0.16
2020-08-12 20:26:21.4420,0.01,0.01,0.06
2020-08-12 20:26:21.5410,-0.03,0.0,0.0
2020-08-12 20:26:21.6400,0.07,-0.01,0.03
2020-08-12 20:26:21.7400,0.11,-0.01,0.02
2020-08-12 20:26:21.8390,0.12,-0.07,0.04
2020-08-12 20:26:21.9380,0.17,-0.33,0.02
2020-08-12 20:26:22.0370,0.44,-0.25,-0.03
2020-08-12 20:26:22.1370,0.33,0.29,0.0
2020-08-12 20:26:22.2360,0.69,-0.01,-0.13
2020-08-12 20:26:22.3350,0.11,-0.16,0.21
2020-08-12 20:26:22.4340,-0.19,-0.17,0.25
2020-08-12 20:26:22.5340,-0.31,-0.09,0.28
2020-08-12 20:26:22.6330,-0.36,-0.03,0.22
2020-08-12 20:26:22.7320,-0.28,-0.02,0.11
2020-08-12 20:26:22.8320,-0.39,-0.05,-0.08
2020-08-12 20:26:22.9310,-0.32,-0.02,-0.28
2020-08-12 20:26:23.0300,-0.51,-0.86,0.2
2020-08-12 20:26:23.1290,0.08,0.17,0.27
2020-08-12 20:26:23.2290,0.08,-0.03,-0.04
2020-08-12 20:26:23.3280,0.01,-0.02,0.04
2020-08-12 20:26:23.4270,-0.03,0.0,0.05
2020-08-12 20:26:23.5260,0.02,-0.0,0.02
2020-08-12 20:26:23.6260,0.06,-0.01,-0.0
2020-08-12 20:26:23.7250,0.01,-0.03,0.03
2020-08-12 20:26:23.8240,0.08,-0.13,0.04
2020-08-12 20:26:23.9230,0.22,-0.43,-0.08
2020-08-12 20:26:24.0230,0.21,-0.06,-0.21
2020-08-12 20:26:24.1220,0.28,0.25,-0.22
2020-08-12 20:26:24.2210,0.51,-0.05,0.02
2020-08-12 20:26:24.3200,0.15,-0.16,0.35
2020-08-12 20:26:24.4200,-0.09,-0.12,0.35
2020-08-12 20:26:24.5190,-0.24,-0.11,0.2
2020-08-12 20:26:24.6180,-0.42,-0.09,0.17
2020-08-12 20:26:24.7180,-0.53,0.0,0.17
2020-08-12 20:26:24.8170,-0.24,0.01,-0.1
2020-08-12 20:26:24.9160,-0.25,-0.02,-0.34
2020-08-12 20:26:25.0150,-0.36,-0.52,-0.51
2020-08-12 20:26:25.1150,-0.26,0.1,0.27
2020-08-12 20:26:25.2140,-0.11,-0.03,0.1
2020-08-12 20:26:25.3130,0.0,-0.01,0.03
2020-08-12 20:26:25.4130,0.03,0.03,0.03
2020-08-12 20:26:25.5120,-0.06,-0.04,0.03
2020-08-12 20:26:25.6110,0.01,-0.03,0.01
2020-08-12 20:26:25.7100,0.03,-0.04,0.05
2020-08-12 20:26:25.8090,0.05,-0.18,0.05
2020-08-12 20:26:25.9090,0.21,-0.38,-0.01
2020-08-12 20:26:26.0080,0.02,-0.11,-0.09
2020-08-12 20:26:26.1070,0.49,0.15,-0.18
2020-08-12 20:26:26.2070,0.5,-0.06,-0.1
2020-08-12 20:26:26.3060,0.13,-0.07,0.38
2020-08-12 20:26:26.4050,-0.01,-0.07,0.3
2020-08-12 20:26:26.5040,-0.2,-0.1,0.28
2020-08-12 20:26:26.6040,-0.34,-0.05,0.19
2020-08-12 20:26:26.7030,-0.34,-0.07,0.02
2020-08-12 20:26:26.8020,-0.3,0.01,-0.08
2020-08-12 20:26:26.9020,-0.32,-0.01,-0.19
2020-08-12 20:26:27.0010,-0.17,-0.55,0.21
2020-08-12 20:26:27.1000,0.15,0.21,0.18
2020-08-12 20:26:27.1990,0.05,-0.02,0.04
2020-08-12 20:26:27.2990,0.03,-0.01,0.04
2020-08-12 20:26:27.3980,-0.01,0.0,0.02
2020-08-12 20:26:27.4970,0.05,-0.01,0.02
2020-08-12 20:26:27.5960,0.06,-0.02,0.0
2020-08-12 20:26:27.6960,0.05,-0.04,0.04
2020-08-12 20:26:27.7950,0.06,-0.12,0.02
2020-08-12 20:26:27.8940,0.24,-0.48,0.05
2020-08-12 20:26:27.9930,-0.18,-0.08,-0.05
2020-08-12 20:26:28.0930,0.78,0.24,-0.3
2020-08-12 20:26:28.1920,0.24,-0.09,0.01
2020-08-12 20:26:28.2910,-0.06,-0.12,0.14
2020-08-12 20:26:28.3900,-0.18,-0.06,0.28
2020-08-12 20:26:28.4900,-0.16,-0.08,0.25
2020-08-12 20:26:28.5890,-0.27,-0.02,0.19
2020-08-12 20:26:28.6880,-0.28,0.0,0.03
2020-08-12 20:26:28.7870,-0.35,-0.05,-0.14
2020-08-12 20:26:28.8870,-0.25,-0.12,-0.29
2020-08-12 20:26:28.9860,-0.02,0.24,-0.16
2020-08-12 20:26:29.0850,-0.2,0.06,0.09
2020-08-12 20:26:29.1850,-0.15,-0.0,0.11
2020-08-12 20:26:29.2840,-0.01,-0.01,0.03
2020-08-12 20:26:29.3830,-0.02,-0.0,0.02
2020-08-12 20:26:29.4820,0.03,-0.02,0.04
2020-08-12 20:26:29.5820,0.06,-0.01,0.01
2020-08-12 20:26:29.6810,-0.01,-0.03,0.03
2020-08-12 20:26:29.7800,0.03,-0.15,0.01
2020-08-12 20:26:29.8800,0.18,-0.49,-0.04
2020-08-12 20:26:29.9790,0.05,-0.02,-0.0
2020-08-12 20:26:30.0780,0.66,0.13,-0.25
2020-08-12 20:26:30.1770,0.39,-0.0,-0.18
2020-08-12 20:26:30.2760,0.09,-0.2,0.17
2020-08-12 20:26:30.3760,-0.06,-0.1,0.36
2020-08-12 20:26:30.4750,-0.26,-0.11,0.3
2020-08-12 20:26:30.5740,-0.36,-0.06,0.22
2020-08-12 20:26:30.6730,-0.42,-0.02,0.1
2020-08-12 20:26:30.7730,-0.28,0.04,-0.05
2020-08-12 20:26:30.8720,-0.34,-0.06,-0.34
2020-08-12 20:26:30.9710,-1.1,-1.18,-0.26
2020-08-12 20:26:31.0710,-0.06,0.19,0.46
2020-08-12 20:26:31.1700,0.12,-0.0,0.03
2020-08-12 20:26:31.2690,-0.07,-0.04,-0.0
2020-08-12 20:26:31.3690,-0.05,-0.0,0.02
2020-08-12 20:26:31.4680,0.01,0.01,0.04
2020-08-12 20:26:31.5670,0.05,-0.02,0.02
2020-08-12 20:26:31.6660,0.04,-0.04,0.02
2020-08-12 20:26:31.7660,0.03,-0.09,0.08
2020-08-12 20:26:31.8650,0.19,-0.28,-0.05
2020-08-12 20:26:31.9640,0.4,-0.18,-0.1
2020-08-12 20:26:32.0630,0.03,0.27,0.22
2020-08-12 20:26:32.1630,0.82,0.01,-0.07
2020-08-12 20:26:32.2620,0.22,-0.1,0.29
2020-08-12 20:26:32.3610,-0.13,-0.13,0.37
2020-08-12 20:26:32.4600,-0.3,-0.12,0.32
2020-08-12 20:26:32.5600,-0.36,-0.1,0.15
2020-08-12 20:26:32.6590,-0.4,-0.06,0.08
2020-08-12 20:26:32.7580,-0.53,-0.03,-0.02
2020-08-12 20:26:32.8570,-0.37,-0.07,-0.29
2020-08-12 20:26:32.9570,0.42,-0.43,-0.28
2020-08-12 20:26:33.0560,0.33,0.05,0.08
2020-08-12 20:26:33.1550,0.15,-0.03,-0.1
2020-08-12 20:26:33.2540,0.04,0.02,-0.01
2020-08-12 20:26:33.3540,0.02,0.02,0.0
2020-08-12 20:26:33.4530,0.03,-0.01,0.02
2020-08-12 20:26:33.5520,0.06,-0.01,0.01
2020-08-12 20:26:33.6520,0.02,-0.03,0.02
2020-08-12 20:26:33.7510,0.02,-0.08,0.09
2020-08-12 20:26:33.8500,0.12,-0.27,-0.03
2020-08-12 20:26:33.9500,0.42,-0.2,-0.1
2020-08-12 20:26:34.0490,0.08,0.28,-0.07
2020-08-12 20:26:34.1480,0.57,-0.03,-0.1
2020-08-12 20:26:34.2470,0.19,-0.01,0.32
2020-08-12 20:26:34.3460,-0.07,-0.05,0.36
2020-08-12 20:26:34.4460,-0.18,-0.08,0.29
2020-08-12 20:26:34.5450,-0.32,-0.04,0.2
2020-08-12 20:26:34.6440,-0.26,-0.03,0.03
2020-08-12 20:26:34.7440,-0.44,-0.06,-0.12
2020-08-12 20:26:34.8430,-0.33,-0.03,-0.29
2020-08-12 20:26:34.9420,-0.1,-0.64,0.09
2020-08-12 20:26:35.0410,0.11,0.12,0.16
2020-08-12 20:26:35.1410,0.14,-0.07,-0.16
2020-08-12 20:26:35.2400,0.04,0.02,0.04
2020-08-12 20:26:35.3390,0.0,-0.01,0.03
2020-08-12 20:26:35.4390,0.01,-0.02,0.03
2020-08-12 20:26:35.5380,0.04,0.0,0.01
2020-08-12 20:26:35.6370,0.06,-0.01,0.05
2020-08-12 20:26:35.7360,0.05,-0.09,0.05
2020-08-12 20:26:35.8360,0.14,-0.35,-0.07
2020-08-12 20:26:35.9350,0.32,-0.17,-0.05
2020-08-12 20:26:36.0340,0.24,0.25,0.12
2020-08-12 20:26:36.1330,0.69,0.05,-0.09
2020-08-12 20:26:36.2320,0.25,-0.12,0.21
2020-08-12 20:26:36.3320,-0.11,-0.11,0.38
2020-08-12 20:26:36.4310,-0.19,-0.14,0.27
2020-08-12 20:26:36.5300,-0.3,-0.1,0.14
2020-08-12 20:26:36.6290,-0.43,-0.03,0.14
2020-08-12 20:26:36.7290,-0.44,-0.02,-0.16
2020-08-12 20:26:36.8280,-0.35,-0.05,-0.3
2020-08-12 20:26:36.9270,-0.84,-0.44,-0.38
2020-08-12 20:26:37.0270,-0.37,0.14,0.24
2020-08-12 20:26:37.1260,-0.1,-0.03,0.08
2020-08-12 20:26:37.2250,0.02,-0.0,0.02
2020-08-12 20:26:37.3240,-0.01,0.01,0.01
2020-08-12 20:26:37.4240,0.02,0.01,0.04
2020-08-12 20:26:37.5230,0.06,-0.01,0.01
2020-08-12 20:26:37.6220,0.04,-0.05,0.0
2020-08-12 20:26:37.7220,0.06,-0.11,0.06
2020-08-12 20:26:37.8210,0.19,-0.38,-0.05
2020-08-12 20:26:37.9200,0.21,-0.06,-0.12
2020-08-12 20:26:38.0190,0.53,0.19,-0.23
2020-08-12 20:26:38.1190,0.56,-0.07,-0.01
2020-08-12 20:26:38.2180,0.02,-0.11,0.33
2020-08-12 20:26:38.3170,-0.22,-0.14,0.29
2020-08-12 20:26:38.4160,-0.26,-0.11,0.24
2020-08-12 20:26:38.5160,-0.38,-0.06,0.13
2020-08-12 20:26:38.6150,-0.38,-0.0,-0.02
2020-08-12 20:26:38.7140,-0.43,-0.04,-0.2
2020-08-12 20:26:38.8130,-0.09,-0.09,-0.26
2020-08-12 20:26:38.9130,-0.13,0.17,-0.02
2020-08-12 20:26:39.0120,-0.07,-0.0,-0.03
2020-08-12 20:26:39.1110,-0.16,-0.03,0.13
2020-08-12 20:26:39.2110,-0.02,0.02,0.04
2020-08-12 20:26:39.3100,0.01,0.01,0.0
2020-08-12 20:26:39.4090,0.04,-0.01,0.01
2020-08-12 20:26:39.5090,0.05,-0.01,0.02
2020-08-12 20:26:39.6080,0.03,-0.02,0.03
2020-08-12 20:26:39.7070,0.03,-0.1,0.04
2020-08-12 20:26:39.8060,0.17,-0.42,-0.04
2020-08-12 20:26:39.9050,0.31,-0.11,-0.09
2020-08-12 20:26:40.0050,0.39,0.32,-0.1
2020-08-12 20:26:40.1040,0.57,-0.08,0.02
2020-08-12 20:26:40.2030,0.1,-0.09,0.27
2020-08-12 20:26:40.3030,-0.12,-0.12,0.26
2020-08-12 20:26:40.4020,-0.26,-0.13,0.2
2020-08-12 20:26:40.5010,-0.4,-0.08,0.12
2020-08-12 20:26:40.6000,-0.45,-0.02,0.04
2020-08-12 20:26:40.7000,-0.42,-0.01,-0.09
2020-08-12 20:26:40.7990,-0.31,-0.04,-0.2
2020-08-12 20:26:40.8980,-0.17,-0.73,-0.04
2020-08-12 20:26:40.9970,0.04,0.09,0.01
2020-08-12 20:26:41.0970,-0.03,-0.07,0.04
2020-08-12 20:26:41.1960,-0.02,0.01,0.02
2020-08-12 20:26:41.2950,-0.03,0.04,0.01
2020-08-12 20:26:41.3940,0.04,0.0,0.03
2020-08-12 20:26:41.4940,0.04,-0.01,0.0
2020-08-12 20:26:41.5930,0.01,-0.02,0.01
2020-08-12 20:26:41.6920,0.07,-0.11,0.03
2020-08-12 20:26:41.7920,0.2,-0.38,-0.01
2020-08-12 20:26:41.8910,0.2,-0.13,-0.06
2020-08-12 20:26:41.9900,-0.05,0.2,0.03
2020-08-12 20:26:42.0890,0.7,0.06,-0.17
2020-08-12 20:26:42.1890,0.23,-0.12,0.23
2020-08-12 20:26:42.2880,-0.09,-0.1,0.29
2020-08-12 20:26:42.3870,-0.22,-0.13,0.23
2020-08-12 20:26:42.4860,-0.35,-0.09,0.1
2020-08-12 20:26:42.5860,-0.42,-0.04,0.1
2020-08-12 20:26:42.6850,-0.33,-0.01,-0.12
2020-08-12 20:26:42.7840,-0.24,-0.04,-0.4
2020-08-12 20:26:42.8830,-0.1,-0.75,-0.71
2020-08-12 20:26:42.9830,-0.3,0.06,0.18
2020-08-12 20:26:43.0820,-0.16,0.01,0.08
2020-08-12 20:26:43.1810,-0.03,-0.01,0.04
2020-08-12 20:26:43.2800,-0.01,-0.01,0.02
2020-08-12 20:26:43.3800,-0.0,-0.01,0.04
2020-08-12 20:26:43.4790,0.02,-0.02,0.01
2020-08-12 20:26:43.5780,0.08,-0.01,0.03
2020-08-12 20:26:43.6770,0.04,-0.09,0.05
2020-08-12 20:26:43.7770,0.19,-0.5,-0.08
2020-08-12 20:26:43.8760,0.21,-0.01,-0.22
2020-08-12 20:26:43.9750,0.31,0.17,0.06
2020-08-12 20:26:44.0750,0.52,0.07,0.1
2020-08-12 20:26:44.1740,0.13,-0.08,0.22
2020-08-12 20:26:44.2730,-0.2,-0.12,0.31
2020-08-12 20:26:44.3720,-0.27,-0.1,0.2
2020-08-12 20:26:44.4720,-0.28,-0.06,0.13
2020-08-12 20:26:44.5710,-0.32,-0.02,0.05
2020-08-12 20:26:44.6700,-0.29,0.03,-0.02
2020-08-12 20:26:44.7700,-0.3,-0.02,-0.11
2020-08-12 20:26:44.8690,-0.35,-0.16,-0.65
2020-08-12 20:26:44.9680,-0.05,0.06,0.48
2020-08-12 20:26:45.0670,0.17,-0.05,-0.15
2020-08-12 20:26:45.1670,0.01,-0.06,0.06
2020-08-12 20:26:45.2660,0.02,0.01,0.02
2020-08-12 20:26:45.3650,0.03,0.01,0.03
2020-08-12 20:26:45.4640,0.03,-0.01,0.01
2020-08-12 20:26:45.5640,0.07,0.01,0.02
2020-08-12 20:26:45.6630,0.06,-0.08,0.07
2020-08-12 20:26:45.7620,0.16,-0.25,0.02
2020-08-12 20:26:45.8610,0.25,-0.24,-0.1
2020-08-12 20:26:45.9610,-0.11,0.09,-0.04
2020-08-12 20:26:46.0600,0.67,0.17,-0.27
2020-08-12 20:26:46.1590,0.3,-0.07,0.12
2020-08-12 20:26:46.2580,-0.0,-0.06,0.43
2020-08-12 20:26:46.3580,-0.1,-0.14,0.24
2020-08-12 20:26:46.4570,-0.27,-0.1,0.21
2020-08-12 20:26:46.5560,-0.29,-0.13,0.02
2020-08-12 20:26:46.6560,-0.43,-0.02,0.03
2020-08-12 20:26:46.7550,-0.36,-0.01,-0.2
2020-08-12 20:26:46.8540,-0.04,-0.05,-0.21
2020-08-12 20:26:46.9530,-0.09,0.06,-0.24
2020-08-12 20:26:47.0530,-0.18,0.1,0.09
2020-08-12 20:26:47.1520,-0.07,-0.04,0.1
2020-08-12 20:26:47.2510,0.04,-0.0,0.01
2020-08-12 20:26:47.3500,-0.0,0.01,0.01
2020-08-12 20:26:47.4500,0.03,0.01,0.04
2020-08-12 20:26:47.5490,0.07,-0.01,0.02
2020-08-12 20:26:47.6480,0.02,-0.03,0.04
2020-08-12 20:26:47.7470,0.08,-0.22,0.06
2020-08-12 20:26:47.8470,0.21,-0.38,-0.05
2020-08-12 20:26:47.9460,0.09,-0.05,-0.18
2020-08-12 20:26:48.0450,0.33,0.07,-0.1
2020-08-12 20:26:48.1450,0.55,0.01,0.02
2020-08-12 20:26:48.2440,0.22,-0.03,0.31
2020-08-12 20:26:48.3430,-0.1,-0.13,0.36
2020-08-12 20:26:48.4420,-0.28,-0.15,0.2
2020-08-12 20:26:48.5420,-0.38,-0.1,0.15
2020-08-12 20:26:48.6410,-0.44,-0.05,-0.03
2020-08-12 20:26:48.7400,-0.32,-0.04,-0.22
2020-08-12 20:26:48.8390,-0.32,-0.02,-0.18
2020-08-12 20:26:48.9390,0.13,-0.75,0.16
2020-08-12 20:26:49.0380,0.14,0.11,0.19
2020-08-12 20:26:49.1370,0.11,-0.04,-0.02
2020-08-12 20:26:49.2370,0.08,-0.01,0.03
2020-08-12 20:26:49.3360,-0.05,0.01,0.03
2020-08-12 20:26:49.4350,-0.06,-0.06,-0.02
2020-08-12 20:26:49.5340,0.03,-0.03,0.03
2020-08-12 20:26:49.6330,0.09,-0.04,0.03
2020-08-12 20:26:49.7330,0.06,-0.13,0.01
2020-08-12 20:26:49.8320,0.23,-0.5,0.01
2020-08-12 20:26:49.9310,0.07,0.03,-0.08
2020-08-12 20:26:50.0310,0.3,0.22,-0.16
2020-08-12 20:26:50.1300,0.41,0.02,-0.2
2020-08-12 20:26:50.2290,0.18,-0.1,0.13
2020-08-12 20:26:50.3280,-0.04,-0.0,0.41
2020-08-12 20:26:50.4280,-0.13,-0.07,0.35
2020-08-12 20:26:50.5270,-0.4,-0.13,0.27
2020-08-12 20:26:50.6260,-0.35,-0.09,-0.15
2020-08-12 20:26:50.7260,-0.32,-0.03,-0.35
2020-08-12 20:26:50.8250,-0.65,-0.1,-0.47
2020-08-12 20:26:50.9240,-0.08,0.12,0.4
2020-08-12 20:26:51.0230,0.1,0.01,-0.05
2020-08-12 20:26:51.1230,0.03,-0.04,0.05
2020-08-12 20:26:51.2220,0.02,0.02,0.02
2020-08-12 20:26:51.3210,0.03,-0.01,0.01
2020-08-12 20:26:51.4200,0.07,-0.04,0.01
2020-08-12 20:26:51.5200,0.06,-0.04,0.04
2020-08-12 20:26:51.6190,0.05,-0.09,0.03
2020-08-12 20:26:51.7180,0.12,-0.32,-0.1
2020-08-12 20:26:51.8170,0.3,-0.34,0.02
2020-08-12 20:26:51.9170,-0.08,0.14,-0.1
2020-08-12 20:26:52.0160,0.66,0.02,-0.16
2020-08-12 20:26:52.1150,0.23,-0.16,0.08
2020-08-12 20:26:52.2140,-0.11,-0.1,0.37
2020-08-12 20:26:52.3140,-0.19,-0.16,0.28
2020-08-12 20:26:52.4130,-0.34,-0.08,0.23
2020-08-12 20:26:52.5120,-0.47,-0.05,0.1
2020-08-12 20:26:52.6120,-0.34,-0.02,0.01
2020-08-12 20:26:52.7110,-0.24,0.01,-0.16
2020-08-12 20:26:52.8100,-0.33,-0.42,-1.03
2020-08-12 20:26:52.9090,0.01,0.14,0.3
2020-08-12 20:26:53.0090,0.02,-0.09,-0.22
2020-08-12 20:26:53.1080,-0.01,-0.03,0.1
2020-08-12 20:26:53.2070,0.03,0.01,0.02
2020-08-12 20:26:53.3060,-0.0,-0.0,-0.0
2020-08-12 20:26:53.4060,0.03,-0.0,0.03
2020-08-12 20:26:53.5050,0.09,-0.01,0.02
2020-08-12 20:26:53.6040,0.05,-0.09,0.04
2020-08-12 20:26:53.7030,0.06,-0.22,0.02
2020-08-12 20:26:53.8030,0.25,-0.43,0.07
2020-08-12 20:26:53.9020,-0.12,0.14,0.02
2020-08-12 20:26:54.0010,0.7,0.1,-0.26
2020-08-12 20:26:54.1000,0.26,0.04,0.03
2020-08-12 20:26:54.2000,0.03,-0.07,0.25
2020-08-12 20:26:54.2990,-0.08,-0.09,0.33
2020-08-12 20:26:54.3980,-0.28,-0.12,0.25
2020-08-12 20:26:54.4980,-0.35,-0.05,0.25
2020-08-12 20:26:54.5970,-0.29,0.03,0.09
2020-08-12 20:26:54.6960,-0.3,-0.01,-0.1
2020-08-12 20:26:54.7950,-0.26,-0.02,-0.45
2020-08-12 20:26:54.8950,-0.89,-0.37,-0.64
2020-08-12 20:26:54.9940,-0.53,0.06,0.2
2020-08-12 20:26:55.0930,-0.2,-0.0,0.13
2020-08-12 20:26:55.1930,0.02,0.0,0.06
2020-08-12 20:26:55.2920,0.02,0.01,0.0
2020-08-12 20:26:55.3910,0.04,-0.01,0.04
2020-08-12 20:26:55.4900,0.05,-0.01,0.02
2020-08-12 20:26:55.5900,0.03,-0.06,0.01
2020-08-12 20:26:55.6890,0.05,-0.14,0.07
2020-08-12 20:26:55.7880,0.22,-0.4,-0.03
2020-08-12 20:26:55.8870,0.22,-0.14,-0.09
2020-08-12 20:26:55.9870,0.35,0.28,0.03
2020-08-12 20:26:56.0860,0.41,0.12,-0.06
2020-08-12 20:26:56.1850,0.11,-0.1,0.2
2020-08-12 20:26:56.2840,-0.1,-0.13,0.28
2020-08-12 20:26:56.3840,-0.27,-0.11,0.23
2020-08-12 20:26:56.4830,-0.31,-0.08,0.12
2020-08-12 20:26:56.5820,-0.26,-0.0,0.02
2020-08-12 20:26:56.6810,-0.32,-0.03,-0.16
2020-08-12 20:26:56.7810,-0.45,-0.01,-0.25
2020-08-12 20:26:56.8800,-0.33,0.23,-0.07
2020-08-12 20:26:56.9790,-0.16,0.07,0.06
2020-08-12 20:26:57.0790,-0.05,-0.02,0.03
2020-08-12 20:26:57.1780,0.07,-0.0,0.05
2020-08-12 20:26:57.2770,-0.02,-0.01,0.01
2020-08-12 20:26:57.3760,-0.01,-0.02,0.03
2020-08-12 20:26:57.4760,0.01,-0.02,0.03
2020-08-12 20:26:57.5750,0.1,-0.05,0.06
2020-08-12 20:26:57.6740,0.01,-0.09,0.03
2020-08-12 20:26:57.7730,0.19,-0.52,-0.01
2020-08-12 20:26:57.8730,0.05,-0.04,-0.12
2020-08-12 20:26:57.9720,0.68,0.22,-0.14
2020-08-12 20:26:58.0710,0.43,0.01,0.02
2020-08-12 20:26:58.1700,0.14,-0.12,0.26
2020-08-12 20:26:58.2700,-0.38,-0.13,0.25
2020-08-12 20:26:58.3690,-0.29,-0.06,0.24
2020-08-12 20:26:58.4680,-0.15,0.02,0.01
2020-08-12 20:26:58.5670,-0.34,-0.05,0.04
2020-08-12 20:26:58.6670,-0.4,-0.0,0.01
2020-08-12 20:26:58.7660,-0.11,0.04,-0.45
2020-08-12 20:26:58.8650,-0.46,0.27,0.04
2020-08-12 20:26:58.9650,-0.25,-0.03,0.0
2020-08-12 20:26:59.0640,-0.17,-0.02,0.14
2020-08-12 20:26:59.1630,-0.02,0.01,0.05
2020-08-12 20:26:59.2620,0.0,0.02,-0.01
2020-08-12 20:26:59.3620,0.03,-0.0,0.04
2020-08-12 20:26:59.4610,0.1,0.03,0.03
2020-08-12 20:26:59.5600,0.11,-0.07,0.03
2020-08-12 20:26:59.6600,0.05,-0.25,0.06
2020-08-12 20:26:59.7590,0.23,-0.4,-0.05
2020-08-12 20:26:59.8580,-0.12,-0.05,-0.0
2020-08-12 20:26:59.9570,0.77,0.16,-0.18
2020-08-12 20:27:00.0570,0.23,-0.04,0.09
2020-08-12 20:27:00.1560,-0.09,-0.1,0.25
2020-08-12 20:27:00.2550,-0.16,-0.1,0.21
2020-08-12 20:27:00.3540,-0.27,-0.08,0.21
2020-08-12 20:27:00.4540,-0.27,-0.05,0.09
2020-08-12 20:27:00.5530,-0.34,-0.0,0.01
2020-08-12 20:27:00.6520,-0.42,-0.04,-0.09
2020-08-12 20:27:00.7510,-0.21,-0.06,-0.23
2020-08-12 20:27:00.8510,-0.17,-0.64,0.1
2020-08-12 20:27:00.9500,0.27,0.03,0.16
2020-08-12 20:27:01.0490,-0.01,-0.04,0.04
2020-08-12 20:27:01.1480,0.0,0.0,0.05
2020-08-12 20:27:01.2480,0.03,-0.0,0.01
2020-08-12 20:27:01.3470,0.03,-0.0,-0.01
2020-08-12 20:27:01.4460,0.05,-0.0,-0.01
2020-08-12 20:27:01.5460,0.06,-0.1,0.04
2020-08-12 20:27:01.6450,0.1,-0.3,-0.03
2020-08-12 20:27:01.7440,0.2,-0.22,-0.01
2020-08-12 20:27:01.8430,-0.09,0.19,0.0
2020-08-12 20:27:01.9430,0.62,0.1,-0.3
2020-08-12 20:27:02.0420,0.23,-0.04,0.09
2020-08-12 20:27:02.1410,-0.01,-0.08,0.35
2020-08-12 20:27:02.2400,-0.13,-0.11,0.25
2020-08-12 20:27:02.3400,-0.21,-0.07,0.28
2020-08-12 20:27:02.4390,-0.25,-0.05,0.09
2020-08-12 20:27:02.5380,-0.35,-0.04,-0.06
2020-08-12 20:27:02.6370,-0.45,-0.05,-0.23
2020-08-12 20:27:02.7370,-0.14,-0.14,-0.22
2020-08-12 20:27:02.8360,0.06,0.08,-0.08
2020-08-12 20:27:02.9350,0.08,-0.02,-0.16
2020-08-12 20:27:03.0340,-0.03,-0.01,0.1
2020-08-12 20:27:03.1340,0.0,0.01,0.02
2020-08-12 20:27:03.2330,0.03,-0.01,0.02
2020-08-12 20:27:03.3330,0.01,-0.02,0.03
2020-08-12 20:27:03.4320,0.03,-0.03,0.0
2020-08-12 20:27:03.5310,0.01,-0.07,0.1
2020-08-12 20:27:03.6300,0.13,-0.38,-0.08
2020-08-12 20:27:03.7290,0.35,-0.13,-0.04
2020-08-12 20:27:03.8290,0.32,0.22,0.02
2020-08-12 20:27:03.9280,0.58,-0.0,-0.08
2020-08-12 20:27:04.0270,0.11,-0.1,0.24
2020-08-12 20:27:04.1260,0.0,-0.04,0.33
2020-08-12 20:27:04.2260,-0.09,-0.08,0.32
2020-08-12 20:27:04.3250,-0.31,-0.12,0.21
2020-08-12 20:27:04.4240,-0.43,-0.15,0.02
2020-08-12 20:27:04.5240,-0.22,-0.04,-0.22
2020-08-12 20:27:04.6230,-0.3,-0.02,-0.23
2020-08-12 20:27:04.7220,-0.1,-0.35,0.01
2020-08-12 20:27:04.8210,0.16,0.05,0.08
2020-08-12 20:27:04.9200,0.01,-0.06,-0.02
2020-08-12 20:27:05.0200,0.03,-0.02,0.08
2020-08-12 20:27:05.1190,-0.06,0.02,0.05
2020-08-12 20:27:05.2180,0.02,-0.0,0.02
2020-08-12 20:27:05.3180,0.05,-0.01,0.0
2020-08-12 20:27:05.4170,0.06,-0.04,0.05
2020-08-12 20:27:05.5160,0.11,-0.11,0.09
2020-08-12 20:27:05.6150,0.3,-0.53,-0.03
2020-08-12 20:27:05.7150,0.14,0.1,-0.27
2020-08-12 20:27:05.8140,0.27,0.15,-0.09
2020-08-12 20:27:05.9130,0.46,0.05,-0.12
2020-08-12 20:27:06.0130,0.2,-0.03,0.25
2020-08-12 20:27:06.1120,0.08,-0.06,0.38
2020-08-12 20:27:06.2110,-0.14,-0.06,0.46
2020-08-12 20:27:06.3100,-0.48,-0.1,0.23
2020-08-12 20:27:06.4100,-0.27,-0.12,-0.15
2020-08-12 20:27:06.5090,-0.1,0.09,-0.01
2020-08-12 20:27:06.6080,-0.45,-0.03,-0.24
2020-08-12 20:27:06.7070,0.57,-0.74,0.4
2020-08-12 20:27:06.8070,0.45,0.11,0.21
2020-08-12 20:27:06.9060,0.2,-0.04,-0.03
2020-08-12 20:27:07.0050,0.09,0.0,-0.0
2020-08-12 20:27:07.1040,0.0,0.03,0.03
2020-08-12 20:27:07.2040,-0.06,-0.02,0.02
2020-08-12 20:27:07.3030,0.03,0.0,0.03
2020-08-12 20:27:07.4020,0.07,-0.02,0.01
2020-08-12 20:27:07.5020,0.04,-0.06,0.04
2020-08-12 20:27:07.6010,0.08,-0.21,0.03
2020-08-12 20:27:07.7000,0.22,-0.38,-0.04
2020-08-12 20:27:07.7990,-0.16,0.16,-0.02
2020-08-12 20:27:07.8980,0.73,0.1,-0.24
2020-08-12 20:27:07.9980,0.18,-0.11,0.18
2020-08-12 20:27:08.0970,-0.01,-0.07,0.33
2020-08-12 20:27:08.1960,-0.16,-0.09,0.35
2020-08-12 20:27:08.2960,-0.22,-0.06,0.23
2020-08-12 20:27:08.3950,-0.37,-0.05,0.19
2020-08-12 20:27:08.4940,-0.2,0.01,0.01
2020-08-12 20:27:08.5930,-0.24,-0.07,-0.17
2020-08-12 20:27:08.6930,-0.2,-0.01,-0.35
2020-08-12 20:27:08.7920,-0.04,0.02,-0.69
2020-08-12 20:27:08.8910,-0.31,0.07,0.14
2020-08-12 20:27:08.9900,-0.05,-0.01,0.08
2020-08-12 20:27:09.0900,0.01,0.02,0.02
2020-08-12 20:27:09.1890,0.06,0.02,0.02
2020-08-12 20:27:09.2880,0.03,0.0,0.04
2020-08-12 20:27:09.3880,0.06,-0.02,0.01
2020-08-12 20:27:09.4870,0.0,-0.07,0.03
2020-08-12 20:27:09.5860,0.09,-0.26,0.02
2020-08-12 20:27:09.6850,0.21,-0.36,0.01
2020-08-12 20:27:09.7850,-0.08,0.06,-0.09
2020-08-12 20:27:09.8840,0.73,0.12,-0.32
2020-08-12 20:27:09.9830,0.35,-0.05,-0.03
2020-08-12 20:27:10.0820,-0.17,-0.1,0.29
2020-08-12 20:27:10.1820,-0.19,-0.1,0.3
2020-08-12 20:27:10.2810,-0.24,-0.07,0.26
2020-08-12 20:27:10.3800,-0.24,-0.0,0.14
2020-08-12 20:27:10.4800,-0.36,-0.03,-0.03
2020-08-12 20:27:10.5790,-0.39,-0.04,-0.22
2020-08-12 20:27:10.6780,0.28,-1.0,0.04
2020-08-12 20:27:10.7770,-0.24,0.11,0.21
2020-08-12 20:27:10.8770,-0.03,0.01,0.16
2020-08-12 20:27:10.9760,-0.0,-0.02,0.03
2020-08-12 20:27:11.0750,0.01,0.03,0.03
2020-08-12 20:27:11.1740,0.01,-0.01,0.02
2020-08-12 20:27:11.2730,0.05,-0.01,0.03
2020-08-12 20:27:11.3730,0.05,-0.03,0.04
2020-08-12 20:27:11.4720,0.01,-0.18,0.03
2020-08-12 20:27:11.5710,0.2,-0.53,0.03
2020-08-12 20:27:11.6710,-0.14,-0.07,-0.18
2020-08-12 20:27:11.7700,0.65,0.13,-0.27
2020-08-12 20:27:11.8690,0.27,-0.12,-0.03
2020-08-12 20:27:11.9680,0.07,-0.05,0.34
2020-08-12 20:27:12.0680,-0.12,-0.06,0.45
2020-08-12 20:27:12.1670,-0.22,-0.03,0.36
2020-08-12 20:27:12.2660,-0.36,-0.03,0.24
2020-08-12 20:27:12.3650,-0.33,0.0,-0.04
2020-08-12 20:27:12.4650,-0.39,-0.07,-0.21
2020-08-12 20:27:12.5640,-0.36,-0.3,-0.72
2020-08-12 20:27:12.6630,0.0,0.15,0.26
2020-08-12 20:27:12.7620,0.03,-0.04,-0.13
2020-08-12 20:27:12.8620,-0.06,-0.02,0.13
2020-08-12 20:27:12.9610,0.02,0.01,0.0
2020-08-12 20:27:13.0600,-0.02,0.0,0.02
2020-08-12 20:27:13.1600,0.01,-0.03,0.01
2020-08-12 20:27:13.2590,0.02,-0.07,-0.02
2020-08-12 20:27:13.3580,0.03,-0.25,0.07
2020-08-12 20:27:13.4580,0.24,-0.36,-0.06
2020-08-12 20:27:13.5570,0.23,0.03,-0.12
2020-08-12 20:27:13.6560,0.59,0.25,-0.16
2020-08-12 20:27:13.7550,0.34,-0.06,-0.11
2020-08-12 20:27:13.8550,-0.09,-0.17,0.29
2020-08-12 20:27:13.9540,-0.23,-0.04,0.48
2020-08-12 20:27:14.0530,-0.19,-0.08,0.3
2020-08-12 20:27:14.1520,-0.29,-0.04,0.17
2020-08-12 20:27:14.2520,-0.31,-0.03,-0.09
2020-08-12 20:27:14.3510,-0.28,-0.11,-0.37
2020-08-12 20:27:14.4500,-0.51,-0.2,-0.26
2020-08-12 20:27:14.5490,0.23,0.02,0.25
2020-08-12 20:27:14.6490,0.12,-0.08,-0.13
2020-08-12 20:27:14.7480,0.06,-0.02,0.05
2020-08-12 20:27:14.8470,-0.01,0.01,0.04
2020-08-12 20:27:14.9460,0.01,0.02,0.03
2020-08-12 20:27:15.0460,0.07,-0.04,-0.0
2020-08-12 20:27:15.1450,0.06,-0.05,0.03
2020-08-12 20:27:15.2440,0.06,-0.16,0.02
2020-08-12 20:27:15.3440,0.24,-0.52,0.04
2020-08-12 20:27:15.4430,0.08,-0.05,-0.17
2020-08-12 20:27:15.5420,0.59,0.19,-0.32
2020-08-12 20:27:15.6420,0.26,-0.04,-0.06
2020-08-12 20:27:15.7410,-0.01,0.01,0.3
2020-08-12 20:27:15.8400,0.01,0.02,0.37
2020-08-12 20:27:15.9390,-0.11,-0.08,0.36
2020-08-12 20:27:16.0380,-0.24,-0.03,0.26
2020-08-12 20:27:16.1380,-0.31,-0.06,0.04
2020-08-12 20:27:16.2370,-0.36,-0.09,-0.19
2020-08-12 20:27:16.3360,-0.28,-0.1,-0.49
2020-08-12 20:27:16.4350,0.21,0.13,-0.13
2020-08-12 20:27:16.5350,0.06,-0.05,-0.17
2020-08-12 20:27:16.6340,0.03,-0.03,0.1
2020-08-12 20:27:16.7330,-0.03,0.01,0.04
2020-08-12 20:27:16.8320,-0.0,-0.01,0.0
2020-08-12 20:27:16.9320,0.02,-0.01,0.01
2020-08-12 20:27:17.0310,0.08,-0.03,0.02
2020-08-12 20:27:17.1300,0.02,-0.1,-0.0
2020-08-12 20:27:17.2300,0.19,-0.43,-0.05
2020-08-12 20:27:17.3290,0.16,-0.12,-0.2
2020-08-12 20:27:17.4280,0.01,0.39,0.22
2020-08-12 20:27:17.5270,0.63,0.03,-0.09
2020-08-12 20:27:17.6270,0.09,-0.14,0.2
2020-08-12 20:27:17.7260,-0.21,-0.12,0.26
2020-08-12 20:27:17.8250,-0.24,-0.05,0.26
2020-08-12 20:27:17.9240,-0.23,-0.05,0.26
2020-08-12 20:27:18.0240,-0.25,-0.08,0.09
2020-08-12 20:27:18.1230,-0.12,0.02,-0.07
2020-08-12 20:27:18.2220,-0.19,-0.05,-0.26
2020-08-12 20:27:18.3220,-0.4,-0.23,-0.31
2020-08-12 20:27:18.4210,0.03,0.11,-0.05
2020-08-12 20:27:18.5200,-0.18,0.02,0.01
2020-08-12 20:27:18.6190,-0.12,-0.02,0.14
2020-08-12 20:27:18.7190,-0.0,-0.01,0.01
2020-08-12 20:27:18.8180,0.0,-0.0,0.01
2020-08-12 20:27:18.9170,0.03,-0.02,0.01
2020-08-12 20:27:19.0160,0.06,-0.01,0.04
2020-08-12 20:27:19.1160,0.01,-0.07,0.02
2020-08-12 20:27:19.2150,0.11,-0.32,-0.0
2020-08-12 20:27:19.3140,0.23,-0.25,-0.21
2020-08-12 20:27:19.4130,-0.08,0.05,-0.12
2020-08-12 20:27:19.5130,0.76,0.11,-0.05
2020-08-12 20:27:19.6120,0.24,-0.07,0.12
2020-08-12 20:27:19.7110,-0.0,-0.14,0.32
2020-08-12 20:27:19.8110,-0.21,-0.16,0.19
2020-08-12 20:27:19.9100,-0.31,-0.11,0.23
2020-08-12 20:27:20.0090,-0.36,-0.08,0.17
2020-08-12 20:27:20.1080,-0.35,-0.04,-0.1
2020-08-12 20:27:20.2080,-0.31,-0.07,-0.46
2020-08-12 20:27:20.3070,0.26,-1.29,-0.22
2020-08-12 20:27:20.4060,-0.09,0.08,0.17
2020-08-12 20:27:20.5050,-0.06,-0.02,0.08
2020-08-12 20:27:20.6050,-0.02,-0.0,0.02
2020-08-12 20:27:20.7040,-0.03,0.01,-0.01
2020-08-12 20:27:20.8030,-0.08,-0.05,0.0
2020-08-12 20:27:20.9020,0.01,-0.03,0.02
2020-08-12 20:27:21.0020,-0.03,-0.04,0.01
2020-08-12 20:27:21.1010,0.03,-0.1,0.05
2020-08-12 20:27:21.2000,0.18,-0.39,-0.02
2020-08-12 20:27:21.3000,0.21,-0.03,-0.16
2020-08-12 20:27:21.3990,-0.01,0.3,0.21
2020-08-12 20:27:21.4980,0.61,0.05,-0.02
2020-08-12 20:27:21.5970,0.05,-0.13,0.24
2020-08-12 20:27:21.6970,-0.04,-0.02,0.32
2020-08-12 20:27:21.7960,-0.13,-0.08,0.19
2020-08-12 20:27:21.8950,-0.22,-0.13,0.09
2020-08-12 20:27:21.9940,-0.36,-0.07,0.05
2020-08-12 20:27:22.0940,-0.43,-0.01,-0.01
2020-08-12 20:27:22.1930,-0.32,-0.12,-0.27
2020-08-12 20:27:22.2920,0.22,-0.09,-0.45
2020-08-12 20:27:22.3910,0.03,0.03,-0.08
2020-08-12 20:27:22.4910,-0.11,-0.02,0.06
2020-08-12 20:27:22.5900,0.03,-0.02,0.08
2020-08-12 20:27:22.6890,-0.05,0.01,0.01
2020-08-12 20:27:22.7890,0.03,-0.02,0.0
2020-08-12 20:27:22.8880,0.03,-0.01,0.01
2020-08-12 20:27:22.9870,0.04,-0.03,0.02
2020-08-12 20:27:23.0860,0.07,-0.11,0.05
2020-08-12 20:27:23.1860,0.09,-0.31,-0.06
2020-08-12 20:27:23.2850,0.23,-0.31,0.09
2020-08-12 20:27:23.3840,0.06,0.02,-0.07
2020-08-12 20:27:23.4830,0.75,0.27,-0.22
2020-08-12 20:27:23.5830,0.32,-0.08,-0.14
2020-08-12 20:27:23.6820,-0.07,-0.09,0.18
2020-08-12 20:27:23.7810,-0.08,-0.07,0.33
2020-08-12 20:27:23.8800,-0.19,-0.06,0.3
2020-08-12 20:27:23.9800,-0.32,-0.05,0.21
2020-08-12 20:27:24.0790,-0.29,-0.05,0.02
2020-08-12 20:27:24.1780,-0.3,-0.01,-0.19
2020-08-12 20:27:24.2780,-0.35,-0.03,-0.3
2020-08-12 20:27:24.3770,-0.53,-0.11,-0.34
2020-08-12 20:27:24.4760,-0.38,0.03,0.31
2020-08-12 20:27:24.5750,-0.14,-0.0,0.11
2020-08-12 20:27:24.6750,-0.04,0.01,0.0
2020-08-12 20:27:24.7740,-0.02,-0.0,0.03
2020-08-12 20:27:24.8730,0.01,-0.01,0.04
2020-08-12 20:27:24.9720,0.05,0.0,0.02
2020-08-12 20:27:25.0720,0.08,-0.02,0.02
2020-08-12 20:27:25.1710,0.01,-0.11,0.09
2020-08-12 20:27:25.2700,0.1,-0.42,-0.06
2020-08-12 20:27:25.3690,0.24,-0.05,0.03
2020-08-12 20:27:25.4690,0.28,0.24,0.11
2020-08-12 20:27:25.5680,0.47,0.05,-0.14
2020-08-12 20:27:25.6670,0.17,-0.07,0.15
2020-08-12 20:27:25.7660,-0.04,-0.1,0.32
2020-08-12 20:27:25.8660,-0.23,-0.06,0.3
2020-08-12 20:27:25.9650,-0.27,-0.06,0.18
2020-08-12 20:27:26.0640,-0.37,-0.04,0.07
2020-08-12 20:27:26.1640,-0.29,-0.09,-0.09
2020-08-12 20:27:26.2630,-0.33,0.05,-0.11
2020-08-12 20:27:26.3620,-0.52,-0.24,-0.72
2020-08-12 20:27:26.4610,-0.2,0.16,0.19
2020-08-12 20:27:26.5610,-0.08,-0.06,-0.02
2020-08-12 20:27:26.6600,-0.0,-0.01,0.11
2020-08-12 20:27:26.7590,-0.0,0.02,0.02
2020-08-12 20:27:26.8580,0.0,-0.02,-0.0
2020-08-12 20:27:26.9580,0.01,-0.02,-0.0
2020-08-12 20:27:27.0570,0.03,-0.02,0.01
2020-08-12 20:27:27.1560,0.05,-0.09,0.05
2020-08-12 20:27:27.2550,0.2,-0.34,-0.07
2020-08-12 20:27:27.3550,0.26,-0.11,-0.02
2020-08-12 20:27:27.4540,-0.05,0.18,-0.01
2020-08-12 20:27:27.5530,0.61,0.12,-0.26
2020-08-12 20:27:27.6530,0.17,-0.14,0.06
2020-08-12 20:27:27.7520,-0.08,-0.13,0.2
2020-08-12 20:27:27.8510,-0.07,-0.05,0.31
2020-08-12 20:27:27.9500,-0.14,-0.06,0.21
2020-08-12 20:27:28.0500,-0.33,-0.04,0.14
2020-08-12 20:27:28.1500,-0.33,-0.04,-0.02
2020-08-12 20:27:28.2480,-0.4,-0.04,-0.19
2020-08-12 20:27:28.3470,0.06,-0.25,-0.76
2020-08-12 20:27:28.4470,-0.15,0.1,0.34
2020-08-12 20:27:28.5460,-0.01,-0.04,-0.03
2020-08-12 20:27:28.6450,0.05,-0.02,0.08
2020-08-12 20:27:28.7440,-0.07,-0.02,0.06
2020-08-12 20:27:28.8440,-0.0,-0.01,0.02
2020-08-12 20:27:28.9430,0.04,-0.01,-0.0
2020-08-12 20:27:29.0420,0.05,-0.01,0.01
2020-08-12 20:27:29.1420,0.01,-0.07,0.04
2020-08-12 20:27:29.2410,0.05,-0.2,0.02
2020-08-12 20:27:29.3400,0.2,-0.28,0.04
2020-08-12 20:27:29.4390,0.24,-0.12,-0.01
2020-08-12 20:27:29.5390,0.54,0.26,0.01
2020-08-12 20:27:29.6380,0.51,-0.02,-0.14
2020-08-12 20:27:29.7370,0.03,-0.11,0.29
2020-08-12 20:27:29.8370,-0.09,-0.11,0.27
2020-08-12 20:27:29.9360,-0.19,-0.08,0.24
2020-08-12 20:27:30.0350,-0.3,-0.08,0.11
2020-08-12 20:27:30.1340,-0.29,-0.02,-0.03
2020-08-12 20:27:30.2330,-0.43,-0.01,-0.04
2020-08-12 20:27:30.3330,-0.31,-0.03,-0.22
2020-08-12 20:27:30.4320,0.01,-0.5,0.02
2020-08-12 20:27:30.5310,0.16,0.04,-0.13
2020-08-12 20:27:30.6310,-0.02,-0.04,-0.07
2020-08-12 20:27:30.7300,0.06,-0.06,0.04
2020-08-12 20:27:30.8290,-0.0,0.02,0.04
2020-08-12 20:27:30.9290,0.03,-0.01,-0.0
2020-08-12 20:27:31.0280,0.03,-0.01,0.0
2020-08-12 20:27:31.1270,0.06,-0.04,0.01
2020-08-12 20:27:31.2260,0.07,-0.17,0.07
2020-08-12 20:27:31.3250,0.16,-0.38,-0.01
2020-08-12 20:27:31.4250,0.06,-0.05,-0.02
2020-08-12 20:27:31.5240,-0.06,0.27,0.24
2020-08-12 20:27:31.6230,0.64,0.06,-0.31
2020-08-12 20:27:31.7220,0.21,-0.01,0.22
2020-08-12 20:27:31.8220,0.08,-0.06,0.34
2020-08-12 20:27:31.9210,-0.05,-0.05,0.28
2020-08-12 20:27:32.0200,-0.25,-0.08,0.13
2020-08-12 20:27:32.1200,-0.29,-0.07,0.06
2020-08-12 20:27:32.2190,-0.28,-0.06,0.07
2020-08-12 20:27:32.3180,-0.38,-0.01,-0.01
2020-08-12 20:27:32.4170,-0.19,-0.01,-0.31
2020-08-12 20:27:32.5170,0.17,-0.56,-0.05
2020-08-12 20:27:32.6160,0.13,0.1,-0.02
2020-08-12 20:27:32.7150,-0.0,-0.05,0.01
2020-08-12 20:27:32.8140,0.04,-0.02,0.04
2020-08-12 20:27:32.9140,0.0,0.01,0.0
2020-08-12 20:27:33.0130,0.03,-0.0,0.03
2020-08-12 20:27:33.1120,0.02,-0.01,0.01
2020-08-12 20:27:33.2110,0.06,-0.06,0.03
2020-08-12 20:27:33.3110,0.07,-0.18,0.05
2020-08-12 20:27:33.4100,0.29,-0.45,0.05
2020-08-12 20:27:33.5090,0.17,-0.08,0.02
2020-08-12 20:27:33.6090,0.56,0.29,-0.13
2020-08-12 20:27:33.7080,0.48,0.06,-0.26
2020-08-12 20:27:33.8070,-0.03,-0.27,0.16
2020-08-12 20:27:33.9060,-0.08,-0.02,0.52
2020-08-12 20:27:34.0060,-0.09,-0.04,0.33
2020-08-12 20:27:34.1050,-0.23,-0.06,0.23
2020-08-12 20:27:34.2040,-0.36,-0.08,0.12
2020-08-12 20:27:34.3030,-0.38,-0.04,-0.08
2020-08-12 20:27:34.4030,-0.31,-0.05,-0.28
2020-08-12 20:27:34.5020,0.0,-0.07,-0.04
2020-08-12 20:27:34.6010,0.0,0.03,0.18
2020-08-12 20:27:34.7000,0.11,-0.02,-0.12
2020-08-12 20:27:34.8000,-0.02,-0.04,0.05
2020-08-12 20:27:34.8990,-0.03,0.02,0.04
2020-08-12 20:27:34.9980,0.01,-0.01,0.0
2020-08-12 20:27:35.0980,0.04,-0.0,0.02
2020-08-12 20:27:35.1970,0.07,-0.04,0.03
2020-08-12 20:27:35.2960,0.03,-0.11,0.02
2020-08-12 20:27:35.3950,0.19,-0.39,0.02
2020-08-12 20:27:35.4950,0.22,-0.19,0.03
2020-08-12 20:27:35.5940,0.24,0.35,0.14
2020-08-12 20:27:35.6930,0.61,0.21,-0.37
2020-08-12 20:27:35.7920,-0.04,-0.34,-0.11
2020-08-12 20:27:35.8920,-0.19,-0.03,0.37
2020-08-12 20:27:35.9910,-0.09,-0.09,0.33
2020-08-12 20:27:36.0900,-0.3,-0.02,0.33
2020-08-12 20:27:36.1890,-0.43,-0.04,0.21
2020-08-12 20:27:36.2890,-0.39,-0.04,-0.02
2020-08-12 20:27:36.3880,-0.29,-0.09,-0.17
2020-08-12 20:27:36.4870,-0.06,0.08,-0.23
2020-08-12 20:27:36.5870,0.11,-0.2,-0.01
2020-08-12 20:27:36.6860,0.1,0.04,-0.01
2020-08-12 20:27:36.7850,0.04,-0.04,-0.02
2020-08-12 20:27:36.8840,0.06,-0.05,0.12
2020-08-12 20:27:36.9840,-0.02,0.03,0.01
2020-08-12 20:27:37.0830,0.02,0.0,0.03
2020-08-12 20:27:37.1820,0.07,-0.03,0.01
2020-08-12 20:27:37.2810,0.04,-0.07,-0.0
2020-08-12 20:27:37.3810,0.11,-0.3,0.04
2020-08-12 20:27:37.4800,0.26,-0.35,0.04
2020-08-12 20:27:37.5790,-0.01,0.02,-0.01
2020-08-12 20:27:37.6790,0.65,0.25,-0.19
2020-08-12 20:27:37.7780,0.51,0.01,-0.1
2020-08-12 20:27:37.8770,-0.08,-0.19,0.17
2020-08-12 20:27:37.9760,-0.21,-0.1,0.31
2020-08-12 20:27:38.0750,-0.36,-0.12,0.17
2020-08-12 20:27:38.1750,-0.31,-0.07,0.07
2020-08-12 20:27:38.2740,-0.31,-0.04,0.04
2020-08-12 20:27:38.3730,-0.33,0.02,-0.1
2020-08-12 20:27:38.4730,-0.37,-0.07,-0.31
2020-08-12 20:27:38.5720,-0.12,-0.27,-0.26
2020-08-12 20:27:38.6710,-0.07,0.07,0.16
2020-08-12 20:27:38.7700,-0.09,-0.01,0.07
2020-08-12 20:27:38.8700,-0.03,-0.01,0.01
2020-08-12 20:27:38.9690,-0.03,0.01,0.02
2020-08-12 20:27:39.0680,-0.0,-0.02,0.01
2020-08-12 20:27:39.1670,0.02,-0.0,0.01
2020-08-12 20:27:39.2670,-0.02,-0.07,0.03
2020-08-12 20:27:39.3660,0.01,-0.16,0.07
2020-08-12 20:27:39.4650,0.22,-0.38,0.01
2020-08-12 20:27:39.5650,0.1,-0.03,-0.17
2020-08-12 20:27:39.6640,0.47,0.12,-0.09
2020-08-12 20:27:39.7630,0.47,0.0,-0.07
2020-08-12 20:27:39.8620,0.14,-0.09,0.31
2020-08-12 20:27:39.9610,-0.15,-0.14,0.26
2020-08-12 20:27:40.0610,-0.22,-0.13,0.24
2020-08-12 20:27:40.1600,-0.32,-0.06,0.12
2020-08-12 20:27:40.2590,-0.37,-0.08,-0.04
2020-08-12 20:27:40.3590,-0.28,0.02,-0.13
2020-08-12 20:27:40.4580,-0.38,-0.03,-0.17
2020-08-12 20:27:40.5570,0.14,-0.32,-0.21
2020-08-12 20:27:40.6560,0.23,0.06,0.08
2020-08-12 20:27:40.7560,0.11,-0.06,-0.05
2020-08-12 20:27:40.8550,0.05,-0.01,0.08
2020-08-12 20:27:40.9540,-0.02,0.01,0.03
2020-08-12 20:27:41.0530,0.01,-0.02,0.01
2020-08-12 20:27:41.1530,0.04,-0.02,-0.01
2020-08-12 20:27:41.2520,0.06,-0.05,0.02
2020-08-12 20:27:41.3510,0.04,-0.08,0.02
2020-08-12 20:27:41.4510,0.09,-0.26,-0.04
2020-08-12 20:27:41.5500,0.25,-0.34,0.08
2020-08-12 20:27:41.6490,-0.07,0.15,0.06
2020-08-12 20:27:41.7480,0.66,0.2,-0.36
2020-08-12 20:27:41.8480,0.12,-0.14,0.05
2020-08-12 20:27:41.9470,-0.02,-0.14,0.22
2020-08-12 20:27:42.0460,-0.16,-0.09,0.35
2020-08-12 20:27:42.1460,-0.3,-0.08,0.22
2020-08-12 20:27:42.2450,-0.47,-0.06,0.21
2020-08-12 20:27:42.3440,-0.32,-0.03,0.06
2020-08-12 20:27:42.4430,-0.14,0.01,-0.19
2020-08-12 20:27:42.5420,-0.32,-0.03,-0.38
2020-08-12 20:27:42.6420,0.01,-0.86,-0.19
2020-08-12 20:27:42.7410,0.02,0.07,0.16
2020-08-12 20:27:42.8400,-0.12,-0.04,-0.01
2020-08-12 20:27:42.9400,-0.05,-0.02,0.05
2020-08-12 20:27:43.0390,-0.06,0.02,0.04
2020-08-12 20:27:43.1380,0.04,-0.01,0.03
2020-08-12 20:27:43.2370,0.05,-0.0,0.01
2020-08-12 20:27:43.3370,0.06,-0.06,0.01
2020-08-12 20:27:43.4360,0.08,-0.21,0.05
2020-08-12 20:27:43.5350,0.2,-0.35,-0.05
2020-08-12 20:27:43.6350,0.34,-0.07,-0.12
2020-08-12 20:27:43.7340,0.36,0.16,0.13
2020-08-12 20:27:43.8330,0.46,0.03,0.02
2020-08-12 20:27:43.9320,0.04,-0.11,0.33
2020-08-12 20:27:44.0320,-0.21,-0.11,0.21
2020-08-12 20:27:44.1310,-0.26,-0.1,0.16
2020-08-12 20:27:44.2300,-0.32,-0.06,0.06
2020-08-12 20:27:44.3290,-0.38,-0.05,0.04
2020-08-12 20:27:44.4280,-0.3,-0.02,-0.08
2020-08-12 20:27:44.5280,-0.15,-0.04,-0.22
2020-08-12 20:27:44.6270,0.07,-0.45,0.03
2020-08-12 20:27:44.7260,0.19,0.05,-0.01
2020-08-12 20:27:44.8260,-0.09,-0.01,0.04
2020-08-12 20:27:44.9250,-0.01,-0.04,0.09
2020-08-12 20:27:45.0240,-0.0,0.01,0.01
2020-08-12 20:27:45.1240,0.04,0.05,-0.01
2020-08-12 20:27:45.2230,0.03,-0.02,0.02
2020-08-12 20:27:45.3220,0.06,-0.02,0.04
2020-08-12 20:27:45.4210,0.03,-0.1,-0.0
2020-08-12 20:27:45.5200,0.09,-0.3,0.0
2020-08-12 20:27:45.6200,0.22,-0.43,-0.08
2020-08-12 20:27:45.7190,-0.15,0.04,-0.11
2020-08-12 20:27:45.8180,0.77,0.21,-0.1
2020-08-12 20:27:45.9170,0.23,-0.05,0.24
2020-08-12 20:27:46.0170,0.01,-0.15,0.36
2020-08-12 20:27:46.1160,-0.17,-0.15,0.33
2020-08-12 20:27:46.2150,-0.37,-0.18,0.13
2020-08-12 20:27:46.3140,-0.55,-0.1,-0.05
2020-08-12 20:27:46.4140,-0.48,-0.02,-0.07
2020-08-12 20:27:46.5130,-0.3,-0.03,-0.17
2020-08-12 20:27:46.6120,-0.26,-0.55,0.06
2020-08-12 20:27:46.7120,0.19,-0.01,0.16
2020-08-12 20:27:46.8110,0.07,-0.08,0.04
2020-08-12 20:27:46.9100,0.03,-0.0,0.03
2020-08-12 20:27:47.0100,0.03,0.03,0.04
2020-08-12 20:27:47.1090,0.01,0.0,0.03
2020-08-12 20:27:47.2080,0.01,-0.01,0.04
2020-08-12 20:27:47.3070,0.01,-0.03,0.01
2020-08-12 20:27:47.4060,0.06,-0.09,0.0
2020-08-12 20:27:47.5060,0.14,-0.24,0.03
2020-08-12 20:27:47.6050,0.22,-0.39,0.08
2020-08-12 20:27:47.7040,-0.07,0.08,-0.2
2020-08-12 20:27:47.8040,0.63,0.18,-0.24
2020-08-12 20:27:47.9030,0.33,-0.06,0.18
2020-08-12 20:27:48.0020,-0.08,-0.08,0.42
2020-08-12 20:27:48.1010,-0.11,-0.1,0.31
2020-08-12 20:27:48.2010,-0.28,-0.11,0.2
2020-08-12 20:27:48.3000,-0.42,-0.11,0.07
2020-08-12 20:27:48.3990,-0.49,-0.09,0.01
2020-08-12 20:27:48.4980,-0.4,-0.1,-0.2
2020-08-12 20:27:48.5980,0.5,-0.11,-0.71
2020-08-12 20:27:48.6970,-0.3,0.08,0.52
2020-08-12 20:27:48.7960,0.04,-0.07,-0.07
2020-08-12 20:27:48.8960,-0.02,-0.01,0.04
2020-08-12 20:27:48.9950,-0.0,0.02,0.05
2020-08-12 20:27:49.0940,0.05,0.0,0.03
2020-08-12 20:27:49.1930,0.01,-0.01,0.02
2020-08-12 20:27:49.2930,-0.0,-0.0,0.02
2020-08-12 20:27:49.3920,-0.01,-0.04,0.03
2020-08-12 20:27:49.4910,0.06,-0.12,0.04
2020-08-12 20:27:49.5910,0.23,-0.45,0.02
2020-08-12 20:27:49.6900,-0.06,-0.02,-0.13
2020-08-12 20:27:49.7890,0.71,0.15,-0.36
2020-08-12 20:27:49.8880,0.33,-0.08,-0.14
2020-08-12 20:27:49.9880,0.17,-0.1,0.3
2020-08-12 20:27:50.0870,-0.08,-0.06,0.47
2020-08-12 20:27:50.1860,-0.16,-0.07,0.27
2020-08-12 20:27:50.2850,-0.32,-0.08,0.31
2020-08-12 20:27:50.3840,-0.4,-0.06,0.15
2020-08-12 20:27:50.4840,-0.31,-0.04,-0.16
2020-08-12 20:27:50.5830,-0.31,-0.04,-0.3
2020-08-12 20:27:50.6820,0.41,-0.27,0.06
2020-08-12 20:27:50.7820,0.51,-0.01,0.11
2020-08-12 20:27:50.8810,0.15,-0.04,-0.08
2020-08-12 20:27:50.9800,0.07,0.01,0.03
2020-08-12 20:27:51.0790,-0.01,0.01,0.03
2020-08-12 20:27:51.1790,0.03,-0.01,0.04
2020-08-12 20:27:51.2780,0.03,-0.02,0.01
2020-08-12 20:27:51.3770,0.03,-0.06,0.03
2020-08-12 20:27:51.4760,0.04,-0.15,0.0
2020-08-12 20:27:51.5760,0.26,-0.44,0.05
2020-08-12 20:27:51.6750,-0.22,-0.07,0.03
2020-08-12 20:27:51.7740,0.85,0.18,-0.45
2020-08-12 20:27:51.8740,0.23,-0.15,-0.03
2020-08-12 20:27:51.9730,0.05,-0.11,0.38
2020-08-12 20:27:52.0720,-0.1,-0.07,0.37
2020-08-12 20:27:52.1710,-0.24,-0.1,0.28
2020-08-12 20:27:52.2710,-0.4,-0.11,0.13
2020-08-12 20:27:52.3700,-0.5,-0.01,0.12
2020-08-12 20:27:52.4690,-0.4,-0.04,-0.11
2020-08-12 20:27:52.5680,-0.07,-0.1,-1.15
2020-08-12 20:27:52.6680,-0.54,0.19,0.58
2020-08-12 20:27:52.7670,-0.13,-0.04,0.09
2020-08-12 20:27:52.8660,0.01,-0.02,0.12
2020-08-12 20:27:52.9650,-0.04,0.03,0.06
2020-08-12 20:27:53.0650,-0.0,-0.0,0.03
2020-08-12 20:27:53.1640,0.01,-0.04,0.03
2020-08-12 20:27:53.2630,0.03,-0.03,-0.0
2020-08-12 20:27:53.3630,0.06,-0.08,0.08
2020-08-12 20:27:53.4620,0.19,-0.39,-0.06
2020-08-12 20:27:53.5610,0.31,-0.08,-0.12
2020-08-12 20:27:53.6600,0.29,0.17,-0.28
2020-08-12 20:27:53.7600,0.46,0.01,-0.05
2020-08-12 20:27:53.8590,0.19,-0.06,0.24
2020-08-12 20:27:53.9580,-0.07,-0.07,0.4
2020-08-12 20:27:54.0570,-0.19,-0.09,0.28
2020-08-12 20:27:54.1570,-0.32,-0.09,0.21
2020-08-12 20:27:54.2560,-0.38,-0.1,0.14
2020-08-12 20:27:54.3550,-0.43,-0.05,-0.03
2020-08-12 20:27:54.4540,-0.22,-0.02,-0.37
2020-08-12 20:27:54.5540,-0.0,-0.07,-0.24
2020-08-12 20:27:54.6530,0.1,0.07,-0.13
2020-08-12 20:27:54.7520,-0.08,0.01,-0.01
2020-08-12 20:27:54.8510,0.03,-0.04,0.04
2020-08-12 20:27:54.9510,0.0,-0.0,0.03
2020-08-12 20:27:55.0500,0.04,0.01,0.02
2020-08-12 20:27:55.1490,-0.06,-0.01,0.01
2020-08-12 20:27:55.2490,0.02,0.0,0.03
2020-08-12 20:27:55.3480,0.08,-0.03,0.0
2020-08-12 20:27:55.4470,0.06,-0.1,0.04
2020-08-12 20:27:55.5460,0.33,-0.45,-0.04
2020-08-12 20:27:55.6460,-0.03,-0.1,-0.09
2020-08-12 20:27:55.7450,0.59,0.13,-0.23
2020-08-12 20:27:55.8440,0.29,-0.01,0.01
2020-08-12 20:27:55.9430,0.14,-0.07,0.16
2020-08-12 20:27:56.0430,-0.12,-0.05,0.3
2020-08-12 20:27:56.1420,-0.25,-0.07,0.3
2020-08-12 20:27:56.2410,-0.31,-0.06,0.22
2020-08-12 20:27:56.3400,-0.33,-0.04,0.07
2020-08-12 20:27:56.4400,-0.33,0.0,-0.16
2020-08-12 20:27:56.5390,-0.32,0.01,-0.22
2020-08-12 20:27:56.6380,0.03,-0.62,-0.4
2020-08-12 20:27:56.7370,-0.1,0.07,0.03
2020-08-12 20:27:56.8370,-0.12,0.01,0.11
2020-08-12 20:27:56.9360,0.03,-0.0,0.02
2020-08-12 20:27:57.0350,-0.03,0.01,0.02
2020-08-12 20:27:57.1350,0.01,-0.01,0.0
2020-08-12 20:27:57.2340,0.04,-0.0,0.02
2020-08-12 20:27:57.3330,0.03,-0.02,-0.01
2020-08-12 20:27:57.4320,0.02,-0.04,0.05
2020-08-12 20:27:57.5320,0.07,-0.3,-0.01
2020-08-12 20:27:57.6310,0.36,-0.12,-0.16
2020-08-12 20:27:57.7300,0.14,0.31,0.15
2020-08-12 20:27:57.8300,0.45,0.09,0.07
2020-08-12 20:27:57.9290,0.1,-0.04,0.16
2020-08-12 20:27:58.0280,-0.29,-0.08,0.29
2020-08-12 20:27:58.1270,-0.28,-0.04,0.06
2020-08-12 20:27:58.2270,-0.26,-0.04,0.04
2020-08-12 20:27:58.3260,-0.26,0.02,-0.04
2020-08-12 20:27:58.4250,-0.11,0.06,-0.1
2020-08-12 20:27:58.5240,-0.42,0.17,-0.22
2020-08-12 20:27:58.6240,-0.16,0.06,-0.06
2020-08-12 20:27:58.7230,0.05,-0.09,-0.09
2020-08-12 20:27:58.8220,0.07,-0.01,0.06
2020-08-12 20:27:58.9210,-0.06,0.03,0.04
2020-08-12 20:27:59.0210,0.02,0.02,0.05
2020-08-12 20:27:59.1200,-0.03,0.01,0.02
2020-08-12 20:27:59.2190,0.04,-0.04,-0.02
2020-08-12 20:27:59.3180,-0.06,0.03,0.01
2020-08-12 20:27:59.4180,-0.04,-0.01,0.01
2020-08-12 20:27:59.5170,0.02,-0.02,0.01
2020-08-12 20:27:59.6160,0.0,-0.0,0.0
2020-08-12 20:27:59.7160,-0.0,0.01,0.01
2020-08-12 20:27:59.8150,0.03,-0.02,-0.01
2020-08-12 20:27:59.9140,-0.0,0.01,0.03
2020-08-12 20:28:00.0130,0.01,-0.01,0.0
2020-08-12 20:28:00.1130,-0.02,-0.01,0.01
2020-08-12 20:28:00.2120,0.04,-0.03,-0.01
2020-08-12 20:28:00.3110,-0.01,0.04,0.01
2020-08-12 20:28:00.4100,-0.0,0.01,-0.01
2020-08-12 20:28:00.5100,0.02,-0.01,0.01
2020-08-12 20:28:00.6090,-0.01,0.0,0.01
2020-08-12 20:28:00.7080,-0.02,0.01,0.01
2020-08-12 20:28:00.8070,0.01,-0.01,0.0
2020-08-12 20:28:00.9070,0.0,-0.01,0.01
2020-08-12 20:28:01.0060,-0.03,0.0,-0.01
2020-08-12 20:28:01.1050,-0.0,-0.02,0.03
2020-08-12 20:28:01.2050,0.1,0.03,-0.04
2020-08-12 20:28:01.3040,-0.13,-0.09,0.04
2020-08-12 20:28:01.4030,0.01,-0.0,-0.06
2020-08-12 20:28:01.5020,0.07,0.08,0.02
