time,ax,ay,az
2020-08-12 20:1:25.8730,0.05,-0.01,-0.02
2020-08-12 20:1:25.9720,-0.0,0.0,-0.0
2020-08-12 20:1:26.0720,-0.0,0.0,0.0
2020-08-12 20:1:26.1710,-0.01,0.0,0.0
2020-08-12 20:1:26.2700,-0.01,0.01,-0.0
2020-08-12 20:1:26.3690,-0.01,0.0,0.01
2020-08-12 20:1:26.4690,-0.01,-0.0,-0.0
2020-08-12 20:1:26.5680,0.01,-0.01,-0.0
2020-08-12 20:1:26.6670,0.0,0.0,0.0
2020-08-12 20:1:26.7660,-0.0,0.0,0.0
2020-08-12 20:1:26.8650,0.0,-0.01,-0.0
2020-08-12 20:1:26.9650,-0.01,0.0,-0.0
2020-08-12 20:1:27.0640,-0.0,-0.01,-0.0
2020-08-12 20:1:27.1630,-0.01,0.0,0.01
2020-08-12 20:1:27.2630,0.01,-0.0,-0.02
2020-08-12 20:1:27.3620,0.0,0.0,0.01
2020-08-12 20:1:27.4610,0.01,-0.01,0.02
2020-08-12 20:1:27.5610,-0.04,0.01,0.0
2020-08-12 20:1:27.6600,-0.01,0.0,0.02
2020-08-12 20:1:27.7590,0.02,-0.03,-0.0
2020-08-12 20:1:27.8580,0.04,-0.01,0.02
2020-08-12 20:1:27.9580,0.06,-0.0,-0.0
2020-08-12 20:1:28.0570,-0.04,-0.01,0.01
2020-08-12 20:1:28.1560,-0.01,-0.0,0.0
2020-08-12 20:1:28.2560,0.08,-0.06,0.02
2020-08-12 20:1:28.3540,0.17,-0.12,0.03
2020-08-12 20:1:28.4540,0.15,-0.21,0.29
2020-08-12 20:1:28.5530,0.62,0.05,0.15
2020-08-12 20:1:28.6530,0.73,0.09,-0.07
2020-08-12 20:1:28.7510,-0.06,-0.34,-0.11
2020-08-12 20:1:28.8510,-0.44,-0.26,-0.12
2020-08-12 20:1:28.9500,-0.27,-0.01,-0.12
2020-08-12 20:1:29.0500,-0.36,0.05,0.03
2020-08-12 20:1:29.1490,0.44,-0.1,0.02
2020-08-12 20:1:29.2480,-0.72,-0.35,-0.07
2020-08-12 20:1:29.3470,-0.13,0.06,-0.04
2020-08-12 20:1:29.4470,-0.04,-0.01,0.02
2020-08-12 20:1:29.5460,0.03,0.05,0.1
2020-08-12 20:1:29.6450,-0.01,0.03,-0.01
2020-08-12 20:1:29.7450,0.02,0.02,-0.01
2020-08-12 20:1:29.8440,-0.03,0.0,0.0
2020-08-12 20:1:29.9430,-0.0,-0.02,0.04
2020-08-12 20:1:30.0420,0.02,-0.01,0.03
2020-08-12 20:1:30.1420,0.04,0.01,-0.01
2020-08-12 20:1:30.2410,0.12,-0.22,0.04
2020-08-12 20:1:30.3400,0.2,-0.24,-0.08
2020-08-12 20:1:30.4390,0.0,0.01,0.22
2020-08-12 20:1:30.5390,0.87,0.31,-0.05
2020-08-12 20:1:30.6380,0.42,-0.18,-0.11
2020-08-12 20:1:30.7370,0.02,-0.34,-0.04
2020-08-12 20:1:30.8370,-0.22,-0.21,0.01
2020-08-12 20:1:30.9360,-0.61,-0.04,-0.05
2020-08-12 20:1:31.0350,-0.69,0.02,0.03
2020-08-12 20:1:31.1340,-0.35,-0.74,-0.64
2020-08-12 20:1:31.2330,-0.15,0.08,0.22
2020-08-12 20:1:31.3330,-0.0,0.01,-0.0
2020-08-12 20:1:31.4320,-0.01,-0.01,-0.01
2020-08-12 20:1:31.5310,-0.01,0.01,0.02
2020-08-12 20:1:31.6300,-0.0,0.02,-0.02
2020-08-12 20:1:31.7300,0.04,0.0,-0.01
2020-08-12 20:1:31.8290,0.06,-0.02,0.02
2020-08-12 20:1:31.9280,0.07,-0.03,0.01
2020-08-12 20:1:32.0270,0.07,-0.17,0.06
2020-08-12 20:1:32.1270,0.3,-0.34,-0.13
2020-08-12 20:1:32.2260,0.01,-0.24,0.28
2020-08-12 20:1:32.3250,1.08,0.37,-0.06
2020-08-12 20:1:32.4250,0.4,-0.14,-0.02
2020-08-12 20:1:32.5240,-0.02,-0.27,0.11
2020-08-12 20:1:32.6230,-0.05,-0.22,-0.1
2020-08-12 20:1:32.7220,-0.51,-0.14,0.08
2020-08-12 20:1:32.8220,-0.57,-0.0,-0.07
2020-08-12 20:1:32.9210,-0.58,-0.01,-0.02
2020-08-12 20:1:33.0210,0.26,-1.61,-0.81
2020-08-12 20:1:33.1200,-0.36,-0.01,0.41
2020-08-12 20:1:33.2190,0.06,0.0,-0.02
2020-08-12 20:1:33.3180,-0.02,-0.01,-0.02
2020-08-12 20:1:33.4170,-0.01,0.04,-0.0
2020-08-12 20:1:33.5170,0.02,0.01,0.02
2020-08-12 20:1:33.6160,0.02,0.01,0.03
2020-08-12 20:1:33.7150,-0.04,-0.03,0.02
2020-08-12 20:1:33.8150,0.02,-0.06,-0.0
2020-08-12 20:1:33.9140,0.09,-0.09,0.06
2020-08-12 20:1:34.0130,0.29,-0.43,-0.01
2020-08-12 20:1:34.1120,0.61,-0.33,0.13
2020-08-12 20:1:34.2120,1.18,0.3,-0.01
2020-08-12 20:1:34.3100,0.73,0.13,0.01
2020-08-12 20:1:34.4100,0.15,-0.37,-0.08
2020-08-12 20:1:34.5090,-0.35,-0.37,0.06
2020-08-12 20:1:34.6080,-0.75,-0.11,0.2
2020-08-12 20:1:34.7070,-0.87,-0.05,-0.02
2020-08-12 20:1:34.8080,-0.2,-1.83,-1.27
2020-08-12 20:1:34.9060,-0.11,0.07,0.24
2020-08-12 20:1:35.0050,0.06,-0.01,0.01
2020-08-12 20:1:35.1050,0.04,-0.01,-0.0
2020-08-12 20:1:35.2040,-0.02,0.02,0.02
2020-08-12 20:1:35.3040,-0.0,-0.0,0.01
2020-08-12 20:1:35.4020,-0.01,0.01,0.04
2020-08-12 20:1:35.5020,-0.05,-0.03,-0.02
2020-08-12 20:1:35.6010,-0.18,-0.07,0.03
2020-08-12 20:1:35.7010,0.05,-0.07,0.06
2020-08-12 20:1:35.8000,0.23,-0.37,0.03
2020-08-12 20:1:35.8990,0.36,-0.47,0.19
2020-08-12 20:1:35.9980,0.34,0.12,0.2
2020-08-12 20:1:36.0980,0.72,0.25,-0.01
2020-08-12 20:1:36.1970,0.48,-0.09,-0.16
2020-08-12 20:1:36.2960,0.14,-0.4,-0.0
2020-08-12 20:1:36.3950,-0.33,-0.37,0.21
2020-08-12 20:1:36.4950,-0.83,-0.12,0.14
2020-08-12 20:1:36.5940,-0.78,-0.02,-0.06
2020-08-12 20:1:36.6930,2.86,-0.22,-0.11
2020-08-12 20:1:36.7920,-0.44,0.06,0.45
2020-08-12 20:1:36.8920,0.04,-0.03,-0.05
2020-08-12 20:1:36.9910,-0.01,-0.03,-0.02
2020-08-12 20:1:37.0910,-0.01,0.01,0.03
2020-08-12 20:1:37.1900,0.02,0.02,0.03
2020-08-12 20:1:37.2890,0.09,0.03,-0.04
2020-08-12 20:1:37.3890,0.05,-0.02,-0.0
2020-08-12 20:1:37.4870,-0.03,-0.02,-0.04
2020-08-12 20:1:37.5860,0.02,-0.06,0.03
2020-08-12 20:1:37.6850,0.12,-0.19,0.0
2020-08-12 20:1:37.7850,0.43,-0.53,0.09
2020-08-12 20:1:37.8850,0.14,-0.15,0.17
2020-08-12 20:1:37.9830,0.86,0.35,-0.05
2020-08-12 20:1:38.0830,0.51,-0.1,-0.09
2020-08-12 20:1:38.1820,0.1,-0.37,0.11
2020-08-12 20:1:38.2810,-0.23,-0.33,0.14
2020-08-12 20:1:38.3810,-0.44,-0.11,0.1
2020-08-12 20:1:38.4800,-0.67,-0.06,-0.23
2020-08-12 20:1:38.5790,0.86,-0.04,0.27
2020-08-12 20:1:38.6790,-0.21,-0.06,0.08
2020-08-12 20:1:38.7780,-0.01,0.01,-0.11
2020-08-12 20:1:38.8770,0.04,0.03,0.08
2020-08-12 20:1:38.9760,-0.11,-0.06,-0.03
2020-08-12 20:1:39.0750,0.03,0.02,0.02
2020-08-12 20:1:39.1750,-0.02,0.0,0.04
2020-08-12 20:1:39.2740,0.03,-0.0,-0.01
2020-08-12 20:1:39.3740,0.02,-0.02,0.01
2020-08-12 20:1:39.4730,0.03,-0.07,0.0
2020-08-12 20:1:39.5710,0.18,-0.25,-0.03
2020-08-12 20:1:39.6710,0.69,-0.6,0.22
2020-08-12 20:1:39.7700,0.5,0.12,0.47
2020-08-12 20:1:39.8690,0.91,0.35,-0.08
2020-08-12 20:1:39.9690,0.24,-0.29,-0.03
2020-08-12 20:1:40.0680,-0.07,-0.3,0.11
2020-08-12 20:1:40.1670,-0.53,-0.31,0.04
2020-08-12 20:1:40.2660,-1.02,-0.14,0.09
2020-08-12 20:1:40.3660,-0.37,-0.23,-0.29
2020-08-12 20:1:40.4650,-0.54,-0.14,-0.19
2020-08-12 20:1:40.5640,0.03,-0.0,-0.07
2020-08-12 20:1:40.6630,0.19,0.05,-0.0
2020-08-12 20:1:40.7630,-0.03,0.01,0.06
2020-08-12 20:1:40.8620,0.03,-0.0,-0.0
2020-08-12 20:1:40.9620,0.02,-0.02,0.02
2020-08-12 20:1:41.0610,0.03,0.0,0.05
2020-08-12 20:1:41.1600,0.09,-0.01,0.03
2020-08-12 20:1:41.2590,0.04,-0.09,0.01
2020-08-12 20:1:41.3580,0.17,-0.32,0.03
2020-08-12 20:1:41.4580,0.45,-0.34,0.11
2020-08-12 20:1:41.5580,0.15,-0.19,0.18
2020-08-12 20:1:41.6560,0.92,0.32,-0.01
2020-08-12 20:1:41.7550,0.6,0.0,-0.1
2020-08-12 20:1:41.8550,0.03,-0.47,0.08
2020-08-12 20:1:41.9540,-0.51,-0.43,0.01
2020-08-12 20:1:42.0530,-0.96,-0.16,-0.08
2020-08-12 20:1:42.1530,-0.7,-0.08,0.19
2020-08-12 20:1:42.2520,-0.45,-0.24,-0.24
2020-08-12 20:1:42.3510,-0.04,0.02,-0.08
2020-08-12 20:1:42.4500,0.05,0.0,-0.0
2020-08-12 20:1:42.5490,-0.06,-0.02,0.0
2020-08-12 20:1:42.6490,-0.0,0.02,0.04
2020-08-12 20:1:42.7480,-0.01,0.03,0.05
2020-08-12 20:1:42.8480,0.04,0.0,0.0
2020-08-12 20:1:42.9470,0.01,-0.03,0.03
2020-08-12 20:1:43.0460,0.0,-0.05,-0.02
2020-08-12 20:1:43.1450,0.08,-0.13,0.02
2020-08-12 20:1:43.2450,0.54,-0.51,0.11
2020-08-12 20:1:43.3440,0.17,-0.18,0.12
2020-08-12 20:1:43.4430,0.92,0.25,-0.02
2020-08-12 20:1:43.5420,0.66,0.04,-0.04
2020-08-12 20:1:43.6420,0.2,-0.26,-0.04
2020-08-12 20:1:43.7410,-0.12,-0.39,0.08
2020-08-12 20:1:43.8400,-0.8,-0.22,0.23
2020-08-12 20:1:43.9390,-1.13,-0.03,0.07
2020-08-12 20:1:44.0380,-0.85,-0.24,0.85
2020-08-12 20:1:44.1380,0.26,0.0,-0.22
2020-08-12 20:1:44.2370,0.01,0.02,-0.0
2020-08-12 20:1:44.3360,-0.05,0.03,0.05
2020-08-12 20:1:44.4360,0.0,0.01,0.04
2020-08-12 20:1:44.5350,-0.01,-0.0,0.03
2020-08-12 20:1:44.6340,0.02,0.01,0.02
2020-08-12 20:1:44.7330,0.11,0.0,0.02
2020-08-12 20:1:44.8330,0.04,-0.0,0.02
2020-08-12 20:1:44.9320,0.08,-0.07,-0.03
2020-08-12 20:1:45.0310,0.18,-0.28,0.01
2020-08-12 20:1:45.1310,0.52,-0.43,0.12
2020-08-12 20:1:45.2300,0.22,-0.11,0.18
2020-08-12 20:1:45.3290,0.82,0.29,0.04
2020-08-12 20:1:45.4280,0.36,-0.19,-0.11
2020-08-12 20:1:45.5280,-0.1,-0.33,-0.0
2020-08-12 20:1:45.6270,-0.42,-0.34,0.07
2020-08-12 20:1:45.7260,-0.86,-0.12,0.09
2020-08-12 20:1:45.8250,-1.33,-0.32,-0.43
2020-08-12 20:1:45.9250,-0.34,-0.17,0.13
2020-08-12 20:1:46.0240,-0.0,0.02,-0.1
2020-08-12 20:1:46.1230,0.03,-0.01,-0.08
2020-08-12 20:1:46.2230,-0.03,0.02,0.0
2020-08-12 20:1:46.3220,0.06,0.0,0.01
2020-08-12 20:1:46.4210,-0.02,0.01,0.03
2020-08-12 20:1:46.5200,-0.03,0.02,0.06
2020-08-12 20:1:46.6200,-0.01,-0.0,0.03
2020-08-12 20:1:46.7190,0.06,-0.04,0.02
2020-08-12 20:1:46.8180,0.01,-0.04,0.02
2020-08-12 20:1:46.9170,0.15,-0.27,0.01
2020-08-12 20:1:47.0170,0.48,-0.38,0.09
2020-08-12 20:1:47.1160,0.15,-0.1,0.18
2020-08-12 20:1:47.2150,0.88,0.22,0.01
2020-08-12 20:1:47.3150,0.53,-0.02,-0.06
2020-08-12 20:1:47.4140,-0.04,-0.41,0.08
2020-08-12 20:1:47.5130,-0.4,-0.29,0.05
2020-08-12 20:1:47.6120,-0.61,-0.08,-0.07
2020-08-12 20:1:47.7120,-0.91,-0.08,-0.11
2020-08-12 20:1:47.8120,-0.23,-1.34,-0.88
2020-08-12 20:1:47.9100,-0.14,0.18,0.31
2020-08-12 20:1:48.0090,-0.17,-0.07,0.02
2020-08-12 20:1:48.1090,0.02,-0.01,0.02
2020-08-12 20:1:48.2080,0.02,0.01,-0.01
2020-08-12 20:1:48.3070,-0.03,-0.0,0.02
2020-08-12 20:1:48.4060,-0.02,-0.01,-0.02
2020-08-12 20:1:48.5060,-0.01,-0.02,-0.0
2020-08-12 20:1:48.6050,0.05,-0.03,0.03
2020-08-12 20:1:48.7040,0.01,-0.03,0.01
2020-08-12 20:1:48.8030,0.12,-0.14,0.0
2020-08-12 20:1:48.9030,0.33,-0.38,0.06
2020-08-12 20:1:49.0020,0.17,-0.17,0.08
2020-08-12 20:1:49.1010,0.75,0.25,0.02
2020-08-12 20:1:49.2010,0.55,0.04,-0.04
2020-08-12 20:1:49.3000,0.17,-0.28,-0.01
2020-08-12 20:1:49.3990,-0.19,-0.28,0.14
2020-08-12 20:1:49.4980,-0.65,-0.17,0.15
2020-08-12 20:1:49.5980,-1.04,-0.09,0.01
2020-08-12 20:1:49.6970,-0.9,-0.15,0.78
2020-08-12 20:1:49.7960,0.02,-0.07,-0.01
2020-08-12 20:1:49.8950,-0.01,-0.05,0.04
2020-08-12 20:1:49.9950,-0.06,0.04,0.08
2020-08-12 20:1:50.0940,0.0,-0.02,-0.05
2020-08-12 20:1:50.1930,-0.05,-0.03,0.03
2020-08-12 20:1:50.2930,-0.02,0.0,0.02
2020-08-12 20:1:50.3920,-0.03,0.01,0.01
2020-08-12 20:1:50.4910,0.02,-0.02,0.0
2020-08-12 20:1:50.5900,0.02,-0.04,0.03
2020-08-12 20:1:50.6900,0.07,-0.09,-0.03
2020-08-12 20:1:50.7890,0.24,-0.32,0.1
2020-08-12 20:1:50.8880,0.2,-0.29,0.03
2020-08-12 20:1:50.9870,0.54,0.2,0.23
2020-08-12 20:1:51.0870,0.59,0.3,-0.04
2020-08-12 20:1:51.1860,0.37,-0.22,-0.06
2020-08-12 20:1:51.2850,-0.18,-0.35,0.12
2020-08-12 20:1:51.3850,-0.35,-0.2,0.02
2020-08-12 20:1:51.4840,-0.56,-0.09,-0.05
2020-08-12 20:1:51.5830,-0.48,0.02,-0.02
2020-08-12 20:1:51.6820,0.61,-0.21,-0.18
2020-08-12 20:1:51.7810,-0.25,0.05,0.32
2020-08-12 20:1:51.8810,0.05,-0.04,-0.2
2020-08-12 20:1:51.9800,-0.03,-0.03,-0.02
2020-08-12 20:1:52.0790,0.03,-0.01,-0.02
2020-08-12 20:1:52.1790,-0.02,0.02,0.04
2020-08-12 20:1:52.2780,0.0,0.01,0.02
2020-08-12 20:1:52.3770,-0.01,0.0,-0.04
2020-08-12 20:1:52.4760,0.01,0.01,0.02
2020-08-12 20:1:52.5760,-0.03,-0.01,-0.02
2020-08-12 20:1:52.6750,-0.02,-0.07,-0.0
2020-08-12 20:1:52.7740,0.07,-0.11,0.01
2020-08-12 20:1:52.8730,0.36,-0.34,0.06
2020-08-12 20:1:52.9730,0.3,-0.21,0.17
2020-08-12 20:1:53.0720,0.62,0.18,0.39
2020-08-12 20:1:53.1710,0.75,0.25,-0.05
2020-08-12 20:1:53.2700,0.39,-0.18,-0.1
2020-08-12 20:1:53.3700,-0.15,-0.41,0.08
2020-08-12 20:1:53.4690,-0.68,-0.27,0.1
2020-08-12 20:1:53.5680,-1.17,-0.15,-0.05
2020-08-12 20:1:53.6690,-0.88,-1.43,-1.13
2020-08-12 20:1:53.7670,-0.24,0.01,0.2
2020-08-12 20:1:53.8660,-0.08,0.0,-0.02
2020-08-12 20:1:53.9650,-0.03,-0.01,0.1
2020-08-12 20:1:54.0650,-0.1,0.01,0.03
2020-08-12 20:1:54.1640,0.01,0.05,0.04
2020-08-12 20:1:54.2630,-0.05,0.03,0.03
2020-08-12 20:1:54.3630,0.07,-0.05,-0.02
2020-08-12 20:1:54.4620,0.09,-0.01,0.0
2020-08-12 20:1:54.5610,0.02,-0.02,0.04
2020-08-12 20:1:54.6600,0.06,-0.04,0.03
2020-08-12 20:1:54.7590,0.06,-0.03,0.0
2020-08-12 20:1:54.8590,0.2,-0.32,-0.06
2020-08-12 20:1:54.9580,0.32,-0.25,0.15
2020-08-12 20:1:55.0570,0.65,-0.04,0.11
2020-08-12 20:1:55.1560,0.63,0.29,-0.01
2020-08-12 20:1:55.2560,0.39,-0.16,-0.11
2020-08-12 20:1:55.3550,-0.03,-0.4,0.08
2020-08-12 20:1:55.4540,-0.54,-0.2,0.14
2020-08-12 20:1:55.5540,-0.64,-0.06,0.06
2020-08-12 20:1:55.6530,-1.09,-0.14,-0.28
2020-08-12 20:1:55.7520,-1.0,-0.61,0.46
2020-08-12 20:1:55.8520,0.21,0.06,-0.0
2020-08-12 20:1:55.9510,0.13,-0.01,-0.07
2020-08-12 20:1:56.0500,-0.06,0.0,0.02
2020-08-12 20:1:56.1490,0.03,0.01,0.02
2020-08-12 20:1:56.2480,0.01,-0.0,0.01
2020-08-12 20:1:56.3480,0.04,0.01,-0.01
2020-08-12 20:1:56.4470,-0.01,-0.01,0.01
2020-08-12 20:1:56.5460,-0.02,-0.01,0.01
2020-08-12 20:1:56.6460,-0.0,0.0,-0.01
2020-08-12 20:1:56.7450,0.01,-0.04,-0.0
2020-08-12 20:1:56.8440,0.02,-0.08,0.04
2020-08-12 20:1:56.9430,0.35,-0.37,0.04
2020-08-12 20:1:57.0430,0.06,-0.18,0.12
2020-08-12 20:1:57.1420,0.79,0.21,-0.02
2020-08-12 20:1:57.2410,0.65,0.09,-0.06
2020-08-12 20:1:57.3400,0.19,-0.25,0.05
2020-08-12 20:1:57.4400,-0.15,-0.28,0.07
2020-08-12 20:1:57.5390,-0.39,-0.2,0.04
2020-08-12 20:1:57.6380,-0.95,-0.15,0.03
2020-08-12 20:1:57.7380,3.08,-0.59,0.28
2020-08-12 20:1:57.8370,0.06,0.25,0.32
2020-08-12 20:1:57.9360,-0.12,-0.04,0.05
2020-08-12 20:1:58.0350,-0.05,-0.05,-0.02
2020-08-12 20:1:58.1350,-0.08,0.01,-0.01
2020-08-12 20:1:58.2340,-0.04,0.01,0.03
2020-08-12 20:1:58.3330,-0.05,0.0,0.02
2020-08-12 20:1:58.4330,-0.04,-0.01,0.01
2020-08-12 20:1:58.5320,-0.04,-0.0,0.02
2020-08-12 20:1:58.6310,-0.02,0.0,0.01
2020-08-12 20:1:58.7300,-0.01,-0.03,0.02
2020-08-12 20:1:58.8290,0.02,-0.07,0.02
2020-08-12 20:1:58.9290,0.15,-0.26,0.0
2020-08-12 20:1:59.0280,0.44,-0.3,0.09
2020-08-12 20:1:59.1270,0.48,0.01,0.4
2020-08-12 20:1:59.2260,0.77,0.35,-0.1
2020-08-12 20:1:59.3260,0.32,-0.14,-0.01
2020-08-12 20:1:59.4250,-0.03,-0.31,0.01
2020-08-12 20:1:59.5240,-0.23,-0.1,0.06
2020-08-12 20:1:59.6240,-0.82,-0.06,0.09
2020-08-12 20:1:59.7230,-0.97,0.0,-0.02
2020-08-12 20:1:59.8220,-0.92,-0.62,-0.14
2020-08-12 20:1:59.9210,0.04,-0.04,-0.25
2020-08-12 20:2:00.0210,0.01,0.0,0.02
2020-08-12 20:2:00.1200,-0.07,-0.0,0.03
2020-08-12 20:2:00.2190,-0.0,-0.01,-0.03
2020-08-12 20:2:00.3180,-0.05,-0.02,-0.02
2020-08-12 20:2:00.4180,-0.08,-0.0,-0.02
2020-08-12 20:2:00.5170,0.01,0.01,0.05
2020-08-12 20:2:00.6170,-0.04,-0.04,0.01
2020-08-12 20:2:00.7160,-0.01,-0.02,-0.0
2020-08-12 20:2:00.8150,-0.01,-0.03,0.02
2020-08-12 20:2:00.9140,0.24,-0.3,0.08
2020-08-12 20:2:01.0130,0.32,-0.37,-0.0
2020-08-12 20:2:01.1130,0.86,0.1,0.09
2020-08-12 20:2:01.2120,0.73,0.13,-0.01
2020-08-12 20:2:01.3120,0.27,-0.29,-0.02
2020-08-12 20:2:01.4110,-0.23,-0.36,0.03
2020-08-12 20:2:01.5100,-0.69,-0.2,0.0
2020-08-12 20:2:01.6090,-1.09,-0.16,-0.11
2020-08-12 20:2:01.7090,-1.13,-1.13,-0.88
2020-08-12 20:2:01.8080,-0.14,0.03,0.26
2020-08-12 20:2:01.9070,0.03,0.01,0.0
2020-08-12 20:2:02.0060,-0.06,-0.03,-0.01
2020-08-12 20:2:02.1050,-0.11,0.01,0.01
2020-08-12 20:2:02.2050,-0.01,-0.02,0.04
2020-08-12 20:2:02.3040,-0.03,-0.0,0.04
2020-08-12 20:2:02.4030,-0.02,-0.02,0.0
2020-08-12 20:2:02.5020,0.01,-0.02,0.05
2020-08-12 20:2:02.6020,0.01,-0.03,0.0
2020-08-12 20:2:02.7010,0.03,-0.04,0.0
2020-08-12 20:2:02.8010,0.17,-0.26,0.01
2020-08-12 20:2:02.9000,0.56,-0.42,0.04
2020-08-12 20:2:02.9990,0.39,0.1,0.39
2020-08-12 20:2:03.0980,0.72,0.34,0.03
2020-08-12 20:2:03.1970,0.42,-0.14,-0.1
2020-08-12 20:2:03.2970,-0.08,-0.4,0.09
2020-08-12 20:2:03.3960,-0.53,-0.31,0.06
2020-08-12 20:2:03.4950,-1.12,-0.14,0.05
2020-08-12 20:2:03.5940,2.76,-0.57,0.09
2020-08-12 20:2:03.6930,-0.08,0.1,0.36
2020-08-12 20:2:03.7930,-0.06,-0.03,-0.04
2020-08-12 20:2:03.8920,0.04,-0.02,-0.0
2020-08-12 20:2:03.9920,-0.03,-0.02,0.02
2020-08-12 20:2:04.0910,-0.06,-0.02,-0.02
2020-08-12 20:2:04.1900,-0.02,-0.01,0.02
2020-08-12 20:2:04.2890,-0.02,-0.0,-0.01
2020-08-12 20:2:04.3890,-0.05,-0.04,0.01
2020-08-12 20:2:04.4880,0.05,-0.05,0.02
2020-08-12 20:2:04.5870,0.01,-0.06,0.05
2020-08-12 20:2:04.6860,0.15,-0.24,-0.05
2020-08-12 20:2:04.7860,0.42,-0.31,0.07
2020-08-12 20:2:04.8850,0.01,-0.04,0.19
2020-08-12 20:2:04.9840,0.75,0.3,0.03
2020-08-12 20:2:05.0830,0.44,-0.05,-0.11
2020-08-12 20:2:05.1830,-0.0,-0.41,0.02
2020-08-12 20:2:05.2820,-0.43,-0.3,0.06
2020-08-12 20:2:05.3810,-0.49,-0.02,-0.1
2020-08-12 20:2:05.4800,-0.5,0.1,0.09
2020-08-12 20:2:05.5800,-0.03,-0.24,-0.36
2020-08-12 20:2:05.6790,-0.67,-0.16,0.19
2020-08-12 20:2:05.7780,-0.14,0.0,-0.05
2020-08-12 20:2:05.8780,-0.06,-0.03,-0.03
2020-08-12 20:2:05.9770,0.0,-0.01,0.03
2020-08-12 20:2:06.0760,-0.04,0.0,0.04
2020-08-12 20:2:06.1750,-0.06,-0.03,-0.02
2020-08-12 20:2:06.2750,-0.02,-0.02,0.04
2020-08-12 20:2:06.3740,0.01,-0.01,0.02
2020-08-12 20:2:06.4730,0.01,-0.03,0.0
2020-08-12 20:2:06.5730,0.05,-0.12,-0.02
2020-08-12 20:2:06.6720,0.27,-0.31,0.05
2020-08-12 20:2:06.7710,0.17,-0.37,0.13
2020-08-12 20:2:06.8700,0.86,0.11,0.17
2020-08-12 20:2:06.9700,0.74,0.21,-0.06
2020-08-12 20:2:07.0690,0.31,-0.35,-0.08
2020-08-12 20:2:07.1680,-0.27,-0.4,0.11
2020-08-12 20:2:07.2670,-0.85,-0.28,0.06
2020-08-12 20:2:07.3660,-1.18,-0.16,-0.06
2020-08-12 20:2:07.4660,-0.6,-0.38,-0.04
2020-08-12 20:2:07.5650,0.08,0.03,-0.07
2020-08-12 20:2:07.6640,0.01,0.02,0.02
2020-08-12 20:2:07.7640,-0.15,0.01,0.04
2020-08-12 20:2:07.8630,-0.0,-0.02,0.02
2020-08-12 20:2:07.9620,-0.02,0.0,0.01
2020-08-12 20:2:08.0620,0.01,-0.01,0.0
2020-08-12 20:2:08.1610,-0.01,-0.02,0.04
2020-08-12 20:2:08.2600,0.01,-0.02,0.01
2020-08-12 20:2:08.3590,0.01,-0.05,0.02
2020-08-12 20:2:08.4590,0.14,-0.28,0.03
2020-08-12 20:2:08.5580,0.37,-0.32,0.03
2020-08-12 20:2:08.6570,0.08,-0.27,0.1
2020-08-12 20:2:08.7560,0.9,0.29,-0.02
2020-08-12 20:2:08.8560,0.63,0.17,0.02
2020-08-12 20:2:08.9550,0.2,-0.4,0.04
2020-08-12 20:2:09.0540,-0.27,-0.38,0.13
2020-08-12 20:2:09.1530,-0.79,-0.19,0.04
2020-08-12 20:2:09.2530,-0.88,-0.03,-0.04
2020-08-12 20:2:09.3520,-0.68,-1.39,-1.07
2020-08-12 20:2:09.4520,-0.18,0.18,0.14
2020-08-12 20:2:09.5500,-0.13,0.0,0.12
2020-08-12 20:2:09.6500,-0.09,-0.03,-0.0
2020-08-12 20:2:09.7490,-0.04,0.03,0.0
2020-08-12 20:2:09.8480,0.01,-0.03,-0.0
2020-08-12 20:2:09.9480,-0.0,0.0,0.04
2020-08-12 20:2:10.0470,-0.0,-0.01,0.04
2020-08-12 20:2:10.1460,0.02,-0.03,0.01
2020-08-12 20:2:10.2450,0.06,-0.08,0.02
2020-08-12 20:2:10.3440,0.3,-0.38,0.03
2020-08-12 20:2:10.4440,0.11,-0.29,0.03
2020-08-12 20:2:10.5430,0.74,0.18,0.08
2020-08-12 20:2:10.6430,0.61,0.22,-0.02
2020-08-12 20:2:10.7420,0.18,-0.28,0.01
2020-08-12 20:2:10.8410,-0.18,-0.35,0.07
2020-08-12 20:2:10.9400,-0.51,-0.21,0.04
2020-08-12 20:2:11.0390,-0.58,-0.02,-0.0
2020-08-12 20:2:11.1390,-0.72,-0.01,-0.09
2020-08-12 20:2:11.2380,-0.67,-0.06,0.53
2020-08-12 20:2:11.3370,-0.04,0.07,0.03
2020-08-12 20:2:11.4370,-0.09,0.01,0.18
2020-08-12 20:2:11.5360,-0.15,-0.05,-0.01
2020-08-12 20:2:11.6350,-0.05,0.0,-0.01
2020-08-12 20:2:11.7340,-0.05,-0.01,0.03
2020-08-12 20:2:11.8340,-0.02,0.01,0.02
2020-08-12 20:2:11.9330,-0.01,-0.0,0.03
2020-08-12 20:2:12.0320,0.03,-0.04,0.02
2020-08-12 20:2:12.1310,0.03,-0.07,0.02
2020-08-12 20:2:12.2310,0.15,-0.24,-0.01
2020-08-12 20:2:12.3300,0.38,-0.33,0.12
2020-08-12 20:2:12.4290,0.17,-0.16,0.18
2020-08-12 20:2:12.5290,0.9,0.36,0.0
2020-08-12 20:2:12.6280,0.48,-0.12,-0.11
2020-08-12 20:2:12.7270,-0.05,-0.37,0.03
2020-08-12 20:2:12.8260,-0.45,-0.33,0.13
2020-08-12 20:2:12.9260,-1.17,-0.11,0.09
2020-08-12 20:2:13.0250,-0.33,-0.07,-0.42
2020-08-12 20:2:13.1240,-0.54,-0.33,-0.04
2020-08-12 20:2:13.2240,-0.07,-0.03,-0.24
2020-08-12 20:2:13.3230,-0.02,-0.02,0.07
2020-08-12 20:2:13.4220,-0.03,0.02,0.06
2020-08-12 20:2:13.5210,-0.02,-0.01,0.01
2020-08-12 20:2:13.6200,-0.01,-0.02,0.03
2020-08-12 20:2:13.7200,-0.01,-0.03,0.04
2020-08-12 20:2:13.8190,0.01,-0.02,0.02
2020-08-12 20:2:13.9180,0.02,-0.04,-0.01
2020-08-12 20:2:14.0180,0.08,-0.11,0.0
2020-08-12 20:2:14.1170,0.32,-0.36,0.02
2020-08-12 20:2:14.2160,0.01,-0.24,0.14
2020-08-12 20:2:14.3150,0.75,0.21,-0.09
2020-08-12 20:2:14.4140,0.57,0.2,-0.05
2020-08-12 20:2:14.5140,0.22,-0.18,0.0
2020-08-12 20:2:14.6130,-0.15,-0.28,0.1
2020-08-12 20:2:14.7130,-0.36,-0.2,0.03
2020-08-12 20:2:14.8120,-0.62,-0.01,-0.04
2020-08-12 20:2:14.9110,-1.1,0.01,0.03
2020-08-12 20:2:15.0100,-0.77,-0.66,-0.15
2020-08-12 20:2:15.1100,0.03,0.04,-0.16
2020-08-12 20:2:15.2090,-0.0,-0.02,-0.06
2020-08-12 20:2:15.3080,-0.06,0.0,0.11
2020-08-12 20:2:15.4080,0.0,-0.02,0.03
2020-08-12 20:2:15.5070,-0.06,0.03,0.0
2020-08-12 20:2:15.6060,-0.0,-0.02,0.04
2020-08-12 20:2:15.7050,-0.02,0.0,0.05
2020-08-12 20:2:15.8050,-0.01,0.0,-0.0
2020-08-12 20:2:15.9040,0.03,-0.02,-0.02
2020-08-12 20:2:16.0030,0.07,-0.09,-0.02
2020-08-12 20:2:16.1020,0.36,-0.47,0.01
2020-08-12 20:2:16.2010,0.05,-0.3,0.28
2020-08-12 20:2:16.3010,0.94,0.36,-0.02
2020-08-12 20:2:16.4000,0.62,0.04,-0.06
2020-08-12 20:2:16.4990,0.06,-0.37,0.03
2020-08-12 20:2:16.5990,-0.53,-0.41,0.25
2020-08-12 20:2:16.6980,-0.84,-0.18,-0.06
2020-08-12 20:2:16.7970,-0.8,-0.19,-0.36
2020-08-12 20:2:16.8970,-0.14,-0.2,-0.06
2020-08-12 20:2:16.9960,0.03,-0.01,-0.15
2020-08-12 20:2:17.0950,0.01,0.02,0.01
2020-08-12 20:2:17.1940,-0.05,-0.07,-0.0
2020-08-12 20:2:17.2930,-0.06,0.02,0.02
2020-08-12 20:2:17.3930,-0.01,-0.01,0.03
2020-08-12 20:2:17.4920,0.0,-0.01,0.01
2020-08-12 20:2:17.5910,-0.01,-0.01,-0.03
2020-08-12 20:2:17.6910,0.03,-0.05,0.03
2020-08-12 20:2:17.7900,0.03,-0.07,0.03
2020-08-12 20:2:17.8890,0.17,-0.24,0.02
2020-08-12 20:2:17.9880,0.32,-0.33,0.1
2020-08-12 20:2:18.0880,0.13,-0.01,0.32
2020-08-12 20:2:18.1870,0.86,0.27,-0.05
2020-08-12 20:2:18.2860,0.29,-0.23,-0.07
2020-08-12 20:2:18.3850,-0.14,-0.34,0.13
2020-08-12 20:2:18.4840,-0.74,-0.23,0.23
2020-08-12 20:2:18.5840,-0.91,-0.17,-0.07
2020-08-12 20:2:18.6830,2.34,-0.4,0.13
2020-08-12 20:2:18.7820,-0.24,0.05,0.25
2020-08-12 20:2:18.8820,-0.05,-0.0,-0.07
2020-08-12 20:2:18.9810,0.07,-0.03,0.03
2020-08-12 20:2:19.0800,-0.08,0.01,-0.02
2020-08-12 20:2:19.1800,-0.01,-0.0,0.02
2020-08-12 20:2:19.2790,-0.07,0.01,0.03
2020-08-12 20:2:19.3780,-0.05,-0.01,0.06
2020-08-12 20:2:19.4770,-0.06,-0.01,-0.01
2020-08-12 20:2:19.5770,-0.04,-0.02,0.01
2020-08-12 20:2:19.6760,0.03,-0.07,0.01
2020-08-12 20:2:19.7750,0.18,-0.27,0.01
2020-08-12 20:2:19.8740,0.32,-0.32,0.11
2020-08-12 20:2:19.9740,0.22,0.07,0.25
2020-08-12 20:2:20.0730,0.63,0.28,0.04
2020-08-12 20:2:20.1720,0.44,-0.06,-0.08
2020-08-12 20:2:20.2720,-0.02,-0.34,0.05
2020-08-12 20:2:20.3710,-0.55,-0.34,0.13
2020-08-12 20:2:20.4700,-0.98,-0.12,-0.07
2020-08-12 20:2:20.5690,2.03,-0.29,0.13
2020-08-12 20:2:20.6680,-0.74,-0.09,0.18
2020-08-12 20:2:20.7680,-0.04,0.01,-0.01
2020-08-12 20:2:20.8670,-0.01,-0.04,-0.0
2020-08-12 20:2:20.9660,-0.02,-0.01,0.0
2020-08-12 20:2:21.0660,-0.03,-0.02,-0.04
2020-08-12 20:2:21.1650,-0.01,0.0,0.04
2020-08-12 20:2:21.2640,-0.0,-0.01,0.0
2020-08-12 20:2:21.3640,0.01,-0.02,-0.03
2020-08-12 20:2:21.4630,0.01,-0.01,-0.03
2020-08-12 20:2:21.5620,-0.0,-0.04,0.02
2020-08-12 20:2:21.6610,0.17,-0.28,0.05
2020-08-12 20:2:21.7610,0.33,-0.19,0.08
2020-08-12 20:2:21.8600,0.08,-0.19,0.17
2020-08-12 20:2:21.9590,0.73,0.4,-0.07
2020-08-12 20:2:22.0580,0.57,0.02,-0.1
2020-08-12 20:2:22.1570,0.07,-0.36,0.02
2020-08-12 20:2:22.2570,-0.34,-0.3,0.14
2020-08-12 20:2:22.3560,-0.81,-0.13,-0.0
2020-08-12 20:2:22.4550,-0.78,0.03,-0.09
2020-08-12 20:2:22.5550,-0.74,-0.36,-0.25
2020-08-12 20:2:22.6540,0.18,-0.01,-0.08
2020-08-12 20:2:22.7530,-0.01,-0.02,-0.03
2020-08-12 20:2:22.8520,-0.08,-0.02,0.0
2020-08-12 20:2:22.9520,-0.11,-0.03,0.03
2020-08-12 20:2:23.0510,-0.07,0.0,0.04
2020-08-12 20:2:23.1500,0.01,-0.01,-0.01
2020-08-12 20:2:23.2490,0.02,-0.04,0.01
2020-08-12 20:2:23.3490,0.04,-0.05,0.03
2020-08-12 20:2:23.4480,0.0,-0.06,0.0
2020-08-12 20:2:23.5470,0.25,-0.31,0.03
2020-08-12 20:2:23.6470,0.36,-0.35,0.07
2020-08-12 20:2:23.7460,0.77,0.14,0.16
2020-08-12 20:2:23.8450,0.67,0.23,-0.01
2020-08-12 20:2:23.9450,0.28,-0.21,-0.09
2020-08-12 20:2:24.0440,-0.08,-0.38,0.04
2020-08-12 20:2:24.1430,-0.49,-0.19,0.03
2020-08-12 20:2:24.2420,-0.87,-0.04,-0.01
2020-08-12 20:2:24.3410,3.2,-0.55,0.62
2020-08-12 20:2:24.4410,-0.01,0.24,0.39
2020-08-12 20:2:24.5400,-0.19,0.0,0.01
2020-08-12 20:2:24.6390,-0.08,0.01,0.11
2020-08-12 20:2:24.7380,-0.03,-0.04,0.02
2020-08-12 20:2:24.8380,-0.06,0.02,0.03
2020-08-12 20:2:24.9370,-0.02,-0.0,0.04
2020-08-12 20:2:25.0360,0.03,-0.02,-0.0
2020-08-12 20:2:25.1360,-0.02,-0.01,0.01
2020-08-12 20:2:25.2350,0.01,-0.02,0.03
2020-08-12 20:2:25.3340,0.01,-0.05,0.04
2020-08-12 20:2:25.4340,0.4,-0.5,0.05
2020-08-12 20:2:25.5330,0.07,-0.24,0.04
2020-08-12 20:2:25.6320,0.88,0.41,-0.07
2020-08-12 20:2:25.7310,0.46,-0.02,-0.07
2020-08-12 20:2:25.8300,-0.13,-0.29,0.06
2020-08-12 20:2:25.9300,-0.25,-0.23,0.03
2020-08-12 20:2:26.0290,-0.62,-0.13,0.04
2020-08-12 20:2:26.1280,-0.78,-0.01,-0.12
2020-08-12 20:2:26.2280,-1.14,-1.15,-0.45
2020-08-12 20:2:26.3270,-0.17,0.13,0.21
2020-08-12 20:2:26.4260,-0.03,-0.03,-0.0
2020-08-12 20:2:26.5250,-0.03,-0.01,0.06
2020-08-12 20:2:26.6250,-0.06,-0.0,-0.0
2020-08-12 20:2:26.7240,-0.06,0.0,-0.01
2020-08-12 20:2:26.8230,0.05,-0.01,0.03
2020-08-12 20:2:26.9220,0.05,-0.01,0.04
2020-08-12 20:2:27.0210,0.01,0.01,0.01
2020-08-12 20:2:27.1210,0.01,-0.02,0.02
2020-08-12 20:2:27.2200,0.07,-0.08,-0.0
2020-08-12 20:2:27.3190,0.32,-0.66,0.05
2020-08-12 20:2:27.4190,0.2,0.09,0.45
2020-08-12 20:2:27.5180,0.67,0.21,0.02
2020-08-12 20:2:27.6170,0.34,-0.06,0.02
2020-08-12 20:2:27.7170,-0.04,-0.14,0.06
2020-08-12 20:2:27.8160,-0.36,-0.19,0.08
2020-08-12 20:2:27.9150,-0.65,-0.18,0.1
2020-08-12 20:2:28.0140,-0.78,-0.09,-0.04
2020-08-12 20:2:28.1140,0.71,-1.05,-0.77
2020-08-12 20:2:28.2130,-0.55,-0.04,0.37
2020-08-12 20:2:28.3120,-0.12,0.0,0.08
2020-08-12 20:2:28.4110,-0.06,-0.04,0.05
2020-08-12 20:2:28.5110,0.01,-0.0,-0.02
2020-08-12 20:2:28.6100,-0.0,-0.01,0.01
2020-08-12 20:2:28.7090,-0.01,0.02,-0.0
2020-08-12 20:2:28.8090,-0.01,0.01,0.01
2020-08-12 20:2:28.9080,0.01,-0.0,-0.01
2020-08-12 20:2:29.0070,0.06,-0.04,0.0
2020-08-12 20:2:29.1060,0.22,-0.12,-0.1
2020-08-12 20:2:29.2060,0.31,-0.2,0.05
2020-08-12 20:2:29.3050,0.15,-0.18,0.31
2020-08-12 20:2:29.4040,0.92,0.2,-0.05
2020-08-12 20:2:29.5030,0.3,-0.21,-0.14
2020-08-12 20:2:29.6030,-0.26,-0.28,0.06
2020-08-12 20:2:29.7020,-0.75,-0.25,0.16
2020-08-12 20:2:29.8010,-0.88,-0.1,0.0
2020-08-12 20:2:29.9000,1.14,-0.99,-0.79
2020-08-12 20:2:30.0000,-0.33,0.06,0.35
2020-08-12 20:2:30.0990,-0.12,-0.04,0.02
2020-08-12 20:2:30.1980,-0.1,-0.03,0.06
2020-08-12 20:2:30.2980,-0.07,-0.0,0.04
2020-08-12 20:2:30.3970,-0.03,-0.02,0.03
2020-08-12 20:2:30.4960,-0.01,0.01,-0.02
2020-08-12 20:2:30.5950,-0.0,0.0,0.03
2020-08-12 20:2:30.6940,0.07,-0.03,0.04
2020-08-12 20:2:30.7940,0.05,-0.04,0.0
2020-08-12 20:2:30.8930,0.03,-0.07,0.05
2020-08-12 20:2:30.9920,0.34,-0.37,-0.08
2020-08-12 20:2:31.0920,0.19,-0.22,0.13
2020-08-12 20:2:31.1910,1.04,0.19,0.14
2020-08-12 20:2:31.2900,0.7,0.1,-0.03
2020-08-12 20:2:31.3890,0.2,-0.32,-0.07
2020-08-12 20:2:31.4890,-0.28,-0.32,0.06
2020-08-12 20:2:31.5880,-0.69,-0.18,0.04
2020-08-12 20:2:31.6870,-1.12,-0.12,0.09
2020-08-12 20:2:31.7870,-0.56,-0.0,0.26
2020-08-12 20:2:31.8860,0.31,0.06,-0.15
2020-08-12 20:2:31.9850,0.01,-0.04,0.05
2020-08-12 20:2:32.0840,-0.12,-0.01,0.07
2020-08-12 20:2:32.1840,-0.08,-0.0,-0.0
2020-08-12 20:2:32.2830,-0.03,0.02,-0.0
2020-08-12 20:2:32.3820,-0.04,-0.02,0.04
2020-08-12 20:2:32.4820,-0.01,-0.03,-0.02
2020-08-12 20:2:32.5810,-0.04,0.0,0.03
2020-08-12 20:2:32.6800,-0.04,-0.04,0.04
2020-08-12 20:2:32.7790,0.19,-0.29,-0.02
2020-08-12 20:2:32.8780,0.37,-0.36,0.14
2020-08-12 20:2:32.9780,0.23,0.09,0.34
2020-08-12 20:2:33.0770,0.72,0.28,-0.02
2020-08-12 20:2:33.1760,0.45,-0.09,-0.12
2020-08-12 20:2:33.2750,0.02,-0.29,0.04
2020-08-12 20:2:33.3750,-0.43,-0.34,0.05
2020-08-12 20:2:33.4740,-0.84,-0.17,0.05
2020-08-12 20:2:33.5730,-1.03,-0.02,0.01
2020-08-12 20:2:33.6720,-0.43,-0.3,0.0
2020-08-12 20:2:33.7720,0.41,0.06,-0.14
2020-08-12 20:2:33.8710,0.02,-0.03,-0.12
2020-08-12 20:2:33.9710,-0.06,0.0,0.05
2020-08-12 20:2:34.0700,0.01,0.01,0.01
2020-08-12 20:2:34.1690,-0.02,0.0,0.0
2020-08-12 20:2:34.2680,-0.03,-0.0,0.0
2020-08-12 20:2:34.3670,-0.05,-0.0,0.0
2020-08-12 20:2:34.4670,0.0,-0.02,0.02
2020-08-12 20:2:34.5660,0.01,-0.04,0.07
2020-08-12 20:2:34.6660,0.14,-0.26,0.01
2020-08-12 20:2:34.7650,0.53,-0.51,0.15
2020-08-12 20:2:34.8640,0.53,0.13,0.37
2020-08-12 20:2:34.9630,0.71,0.3,-0.02
2020-08-12 20:2:35.0620,0.33,-0.14,-0.0
2020-08-12 20:2:35.1620,-0.01,-0.35,-0.02
2020-08-12 20:2:35.2610,-0.38,-0.3,0.04
2020-08-12 20:2:35.3600,-1.25,-0.15,0.01
2020-08-12 20:2:35.4600,2.46,-1.0,-0.36
2020-08-12 20:2:35.5590,-0.42,0.15,0.41
2020-08-12 20:2:35.6580,-0.12,-0.01,-0.0
2020-08-12 20:2:35.7570,-0.02,-0.03,0.02
2020-08-12 20:2:35.8570,-0.0,0.03,0.01
2020-08-12 20:2:35.9560,-0.01,0.06,0.06
2020-08-12 20:2:36.0550,0.02,-0.01,0.06
2020-08-12 20:2:36.1540,-0.02,0.03,-0.02
2020-08-12 20:2:36.2540,-0.04,-0.01,0.04
2020-08-12 20:2:36.3530,0.01,-0.02,0.01
2020-08-12 20:2:36.4520,0.02,-0.07,0.01
2020-08-12 20:2:36.5510,0.26,-0.35,0.02
2020-08-12 20:2:36.6510,0.25,-0.3,0.06
2020-08-12 20:2:36.7500,0.96,0.17,0.06
2020-08-12 20:2:36.8490,0.74,0.08,-0.03
2020-08-12 20:2:36.9480,0.14,-0.34,-0.01
2020-08-12 20:2:37.0480,-0.19,-0.25,-0.03
2020-08-12 20:2:37.1470,-0.88,-0.29,0.18
2020-08-12 20:2:37.2460,-1.23,-0.46,-0.33
2020-08-12 20:2:37.3460,-0.27,-0.1,0.24
2020-08-12 20:2:37.4450,0.03,-0.03,-0.19
2020-08-12 20:2:37.5440,-0.0,0.02,0.02
2020-08-12 20:2:37.6430,-0.01,-0.02,0.0
2020-08-12 20:2:37.7430,0.07,-0.05,0.04
2020-08-12 20:2:37.8420,-0.01,-0.0,0.06
2020-08-12 20:2:37.9410,0.02,0.02,-0.02
2020-08-12 20:2:38.0400,-0.0,0.01,0.02
2020-08-12 20:2:38.1400,0.0,0.01,-0.01
2020-08-12 20:2:38.2390,-0.07,-0.08,0.05
2020-08-12 20:2:38.3380,0.09,-0.4,0.04
2020-08-12 20:2:38.4380,0.28,-0.4,0.11
2020-08-12 20:2:38.5370,0.58,0.13,0.14
2020-08-12 20:2:38.6360,0.64,0.23,0.01
2020-08-12 20:2:38.7350,0.28,-0.24,-0.02
2020-08-12 20:2:38.8350,-0.07,-0.35,0.05
2020-08-12 20:2:38.9340,-0.34,-0.16,0.01
2020-08-12 20:2:39.0330,-0.77,-0.01,0.1
2020-08-12 20:2:39.1320,-1.24,-0.22,-0.18
2020-08-12 20:2:39.2320,-0.16,-0.1,-0.03
2020-08-12 20:2:39.3310,-0.06,-0.04,-0.18
2020-08-12 20:2:39.4300,0.02,0.03,0.04
2020-08-12 20:2:39.5290,-0.06,-0.02,0.04
2020-08-12 20:2:39.6290,-0.06,-0.0,0.01
2020-08-12 20:2:39.7280,-0.03,0.01,0.02
2020-08-12 20:2:39.8270,-0.03,-0.01,0.03
2020-08-12 20:2:39.9260,-0.01,-0.01,0.03
2020-08-12 20:2:40.0260,0.01,-0.02,-0.02
2020-08-12 20:2:40.1250,0.02,-0.05,0.04
2020-08-12 20:2:40.2240,0.07,-0.21,0.02
2020-08-12 20:2:40.3240,0.29,-0.2,0.04
2020-08-12 20:2:40.4230,0.16,-0.23,0.2
2020-08-12 20:2:40.5220,0.79,0.29,-0.08
2020-08-12 20:2:40.6220,0.56,0.03,-0.07
2020-08-12 20:2:40.7210,0.17,-0.24,0.02
2020-08-12 20:2:40.8200,-0.2,-0.27,0.07
2020-08-12 20:2:40.9200,-0.68,-0.22,0.13
2020-08-12 20:2:41.0190,-1.01,0.0,-0.03
2020-08-12 20:2:41.1180,-1.2,-0.55,0.26
2020-08-12 20:2:41.2170,0.06,0.03,0.07
2020-08-12 20:2:41.3160,0.03,0.03,0.0
2020-08-12 20:2:41.4150,-0.17,-0.01,-0.07
2020-08-12 20:2:41.5150,0.01,0.01,0.01
2020-08-12 20:2:41.6140,0.03,-0.0,0.05
2020-08-12 20:2:41.7130,-0.05,0.02,-0.01
2020-08-12 20:2:41.8130,-0.03,-0.02,-0.01
2020-08-12 20:2:41.9120,-0.0,-0.05,0.02
2020-08-12 20:2:42.0110,0.02,-0.04,-0.01
2020-08-12 20:2:42.1100,0.05,-0.1,0.01
2020-08-12 20:2:42.2100,0.3,-0.26,0.05
2020-08-12 20:2:42.3090,-0.01,-0.37,0.17
2020-08-12 20:2:42.4080,0.85,0.16,-0.0
2020-08-12 20:2:42.5080,0.71,0.17,-0.07
2020-08-12 20:2:42.6070,0.14,-0.31,-0.01
2020-08-12 20:2:42.7060,-0.24,-0.28,0.15
2020-08-12 20:2:42.8050,-0.44,-0.2,0.0
2020-08-12 20:2:42.9050,-0.94,-0.06,-0.03
2020-08-12 20:2:43.0040,3.25,-0.87,0.17
2020-08-12 20:2:43.1030,-0.23,0.19,0.35
2020-08-12 20:2:43.2030,-0.11,-0.04,-0.07
2020-08-12 20:2:43.3020,-0.07,0.01,0.01
2020-08-12 20:2:43.4010,-0.08,-0.0,0.04
2020-08-12 20:2:43.5000,-0.03,-0.01,0.07
2020-08-12 20:2:43.5990,0.04,0.02,0.02
2020-08-12 20:2:43.6990,-0.0,-0.03,0.03
2020-08-12 20:2:43.7980,-0.01,-0.03,-0.02
2020-08-12 20:2:43.8970,0.01,-0.02,0.01
2020-08-12 20:2:43.9960,0.01,-0.02,0.01
2020-08-12 20:2:44.0960,0.13,-0.24,0.02
2020-08-12 20:2:44.1950,0.39,-0.29,0.08
2020-08-12 20:2:44.2940,0.2,-0.13,0.2
2020-08-12 20:2:44.3940,0.72,0.2,0.01
2020-08-12 20:2:44.4930,0.53,0.03,-0.07
2020-08-12 20:2:44.5920,0.11,-0.25,0.07
2020-08-12 20:2:44.6920,-0.25,-0.33,0.07
2020-08-12 20:2:44.7910,-0.81,-0.17,0.11
2020-08-12 20:2:44.8900,-0.77,0.06,-0.14
2020-08-12 20:2:44.9890,-0.51,0.46,0.88
2020-08-12 20:2:45.0890,-0.08,-0.0,-0.09
2020-08-12 20:2:45.1880,0.12,-0.01,-0.0
2020-08-12 20:2:45.2870,-0.05,-0.0,0.03
2020-08-12 20:2:45.3860,-0.06,-0.0,-0.03
2020-08-12 20:2:45.4850,-0.03,0.01,0.07
2020-08-12 20:2:45.5850,-0.05,0.01,0.0
2020-08-12 20:2:45.6840,-0.04,0.01,0.02
2020-08-12 20:2:45.7830,-0.02,-0.01,0.0
2020-08-12 20:2:45.8830,-0.05,-0.04,-0.01
2020-08-12 20:2:45.9820,-0.03,-0.05,0.02
2020-08-12 20:2:46.0810,0.18,-0.32,0.05
2020-08-12 20:2:46.1800,0.32,-0.35,0.13
2020-08-12 20:2:46.2800,0.38,0.14,0.34
2020-08-12 20:2:46.3790,0.74,0.24,0.02
2020-08-12 20:2:46.4780,0.36,-0.16,-0.08
2020-08-12 20:2:46.5770,-0.07,-0.32,0.09
2020-08-12 20:2:46.6770,-0.32,-0.28,-0.04
2020-08-12 20:2:46.7760,-0.97,-0.11,0.05
2020-08-12 20:2:46.8750,-0.14,-0.0,0.11
2020-08-12 20:2:46.9750,-0.46,-0.23,-0.14
2020-08-12 20:2:47.0740,-0.29,0.03,-0.06
2020-08-12 20:2:47.1730,-0.04,-0.01,0.05
2020-08-12 20:2:47.2730,-0.04,0.0,0.02
2020-08-12 20:2:47.3720,0.03,-0.0,-0.0
2020-08-12 20:2:47.4710,-0.01,-0.0,0.01
2020-08-12 20:2:47.5700,0.01,0.03,0.03
2020-08-12 20:2:47.6690,-0.01,0.0,0.01
2020-08-12 20:2:47.7680,-0.06,-0.01,-0.0
2020-08-12 20:2:47.8680,-0.04,-0.02,0.01
2020-08-12 20:2:47.9670,-0.01,-0.05,0.01
2020-08-12 20:2:48.0660,0.13,-0.29,0.01
2020-08-12 20:2:48.1660,0.32,-0.24,0.11
2020-08-12 20:2:48.2650,0.26,-0.16,0.25
2020-08-12 20:2:48.3640,0.79,0.33,-0.0
2020-08-12 20:2:48.4630,0.52,-0.12,-0.12
2020-08-12 20:2:48.5630,0.02,-0.36,0.08
2020-08-12 20:2:48.6620,-0.46,-0.33,0.04
2020-08-12 20:2:48.7620,-0.75,-0.05,0.15
2020-08-12 20:2:48.8610,-1.07,-0.17,-0.22
2020-08-12 20:2:48.9600,-0.58,-0.39,0.05
2020-08-12 20:2:49.0590,-0.09,-0.01,-0.18
2020-08-12 20:2:49.1590,-0.02,0.03,0.08
2020-08-12 20:2:49.2580,-0.01,-0.02,-0.04
2020-08-12 20:2:49.3570,-0.04,-0.02,0.03
2020-08-12 20:2:49.4560,0.01,0.03,0.01
2020-08-12 20:2:49.5560,0.03,-0.01,-0.03
2020-08-12 20:2:49.6550,0.0,-0.02,0.01
2020-08-12 20:2:49.7540,-0.0,-0.02,0.03
2020-08-12 20:2:49.8530,-0.01,-0.02,0.01
2020-08-12 20:2:49.9530,0.01,-0.02,0.0
2020-08-12 20:2:50.0520,0.03,-0.12,-0.02
2020-08-12 20:2:50.1510,0.27,-0.24,0.1
2020-08-12 20:2:50.2500,0.04,-0.36,0.1
2020-08-12 20:2:50.3500,1.0,0.27,-0.05
2020-08-12 20:2:50.4490,0.68,-0.02,-0.07
2020-08-12 20:2:50.5480,0.16,-0.37,-0.06
2020-08-12 20:2:50.6470,-0.36,-0.35,0.03
2020-08-12 20:2:50.7470,-0.85,-0.15,0.11
2020-08-12 20:2:50.8460,-1.08,-0.01,0.14
2020-08-12 20:2:50.9450,-0.75,-0.31,0.16
2020-08-12 20:2:51.0450,0.21,0.01,-0.28
2020-08-12 20:2:51.1440,0.07,-0.02,-0.15
2020-08-12 20:2:51.2430,-0.06,-0.01,0.07
2020-08-12 20:2:51.3430,-0.02,-0.01,0.08
2020-08-12 20:2:51.4410,-0.08,-0.02,0.01
2020-08-12 20:2:51.5410,-0.08,0.01,0.02
2020-08-12 20:2:51.6400,-0.02,-0.0,0.03
2020-08-12 20:2:51.7390,0.02,-0.02,0.01
2020-08-12 20:2:51.8380,-0.01,-0.02,0.02
2020-08-12 20:2:51.9380,0.13,-0.15,0.0
2020-08-12 20:2:52.0370,0.29,-0.46,-0.02
2020-08-12 20:2:52.1360,0.14,-0.08,0.15
2020-08-12 20:2:52.2360,0.72,0.23,-0.08
2020-08-12 20:2:52.3350,0.54,0.05,-0.02
2020-08-12 20:2:52.4340,0.15,-0.23,0.08
2020-08-12 20:2:52.5330,-0.18,-0.34,0.13
2020-08-12 20:2:52.6330,-0.4,-0.23,0.06
2020-08-12 20:2:52.7320,-0.93,-0.06,0.05
2020-08-12 20:2:52.8310,2.88,-0.53,0.25
2020-08-12 20:2:52.9310,-0.36,0.0,0.35
2020-08-12 20:2:53.0300,-0.1,-0.02,0.04
2020-08-12 20:2:53.1290,-0.22,-0.09,-0.04
2020-08-12 20:2:53.2280,-0.05,0.01,0.01
2020-08-12 20:2:53.3280,-0.04,-0.02,0.05
2020-08-12 20:2:53.4270,-0.0,-0.01,-0.0
2020-08-12 20:2:53.5260,-0.01,-0.0,0.03
2020-08-12 20:2:53.6260,-0.01,-0.01,0.03
2020-08-12 20:2:53.7250,-0.01,-0.04,0.03
2020-08-12 20:2:53.8240,0.01,-0.08,0.01
2020-08-12 20:2:53.9240,0.28,-0.31,0.1
2020-08-12 20:2:54.0230,0.04,-0.25,0.23
2020-08-12 20:2:54.1220,0.76,0.1,0.05
2020-08-12 20:2:54.2220,0.64,0.13,-0.08
2020-08-12 20:2:54.3200,0.24,-0.2,-0.07
2020-08-12 20:2:54.4190,-0.09,-0.26,0.07
2020-08-12 20:2:54.5190,-0.27,-0.24,-0.21
2020-08-12 20:2:54.6180,-0.89,-0.11,0.17
2020-08-12 20:2:54.7170,-1.1,0.03,-0.14
2020-08-12 20:2:54.8170,-0.64,-0.66,-0.06
2020-08-12 20:2:54.9160,-0.15,0.01,-0.13
2020-08-12 20:2:55.0150,0.04,0.01,0.11
2020-08-12 20:2:55.1150,-0.06,-0.01,0.01
2020-08-12 20:2:55.2140,-0.02,0.0,0.03
2020-08-12 20:2:55.3130,-0.04,0.02,0.01
2020-08-12 20:2:55.4120,-0.03,0.0,0.03
2020-08-12 20:2:55.5120,0.04,-0.05,-0.04
2020-08-12 20:2:55.6110,0.0,-0.03,0.02
2020-08-12 20:2:55.7100,0.05,-0.03,0.01
2020-08-12 20:2:55.8100,0.03,-0.04,0.03
2020-08-12 20:2:55.9090,0.13,-0.21,0.01
2020-08-12 20:2:56.0080,0.26,-0.37,-0.01
2020-08-12 20:2:56.1070,0.16,-0.26,0.21
2020-08-12 20:2:56.2070,0.87,0.36,0.1
2020-08-12 20:2:56.3060,0.56,-0.03,-0.12
2020-08-12 20:2:56.4050,-0.0,-0.36,0.03
2020-08-12 20:2:56.5040,-0.64,-0.39,0.04
2020-08-12 20:2:56.6030,-0.79,-0.09,0.02
2020-08-12 20:2:56.7030,-0.94,-0.01,-0.0
2020-08-12 20:2:56.8030,-0.91,0.35,0.83
2020-08-12 20:2:56.9010,-0.09,-0.03,-0.23
2020-08-12 20:2:57.0010,0.04,-0.02,0.0
2020-08-12 20:2:57.1000,0.0,-0.03,0.01
2020-08-12 20:2:57.1990,-0.14,0.0,-0.02
2020-08-12 20:2:57.2990,-0.03,-0.0,0.04
2020-08-12 20:2:57.3980,-0.08,0.01,0.02
2020-08-12 20:2:57.4970,-0.06,-0.0,0.03
2020-08-12 20:2:57.5960,0.02,-0.02,0.05
2020-08-12 20:2:57.6960,0.03,-0.03,0.01
2020-08-12 20:2:57.7950,0.02,-0.04,0.06
2020-08-12 20:2:57.8940,0.16,-0.31,-0.1
2020-08-12 20:2:57.9930,0.14,-0.26,0.18
2020-08-12 20:2:58.0930,0.58,0.04,0.07
2020-08-12 20:2:58.1920,0.59,0.27,-0.01
2020-08-12 20:2:58.2910,0.27,-0.23,0.03
2020-08-12 20:2:58.3910,-0.04,-0.31,0.05
2020-08-12 20:2:58.4890,-0.4,-0.23,0.06
2020-08-12 20:2:58.5890,-0.43,-0.0,0.04
2020-08-12 20:2:58.6880,-0.92,-0.05,-0.03
2020-08-12 20:2:58.7880,0.41,-1.54,-1.15
2020-08-12 20:2:58.8870,-0.41,0.25,0.41
2020-08-12 20:2:58.9860,-0.19,-0.04,0.04
2020-08-12 20:2:59.0850,0.05,-0.03,0.01
2020-08-12 20:2:59.1850,-0.04,0.04,-0.01
2020-08-12 20:2:59.2840,0.03,-0.02,0.02
2020-08-12 20:2:59.3830,-0.04,-0.02,-0.02
2020-08-12 20:2:59.4820,-0.06,0.0,0.01
2020-08-12 20:2:59.5820,-0.02,-0.02,0.01
2020-08-12 20:2:59.6810,0.01,-0.03,0.01
2020-08-12 20:2:59.7800,-0.05,-0.02,0.02
2020-08-12 20:2:59.8800,0.03,-0.08,0.03
2020-08-12 20:2:59.9790,0.22,-0.27,-0.02
2020-08-12 20:3:00.0780,0.22,-0.34,0.09
2020-08-12 20:3:00.1770,0.99,0.08,0.06
2020-08-12 20:3:00.2760,0.66,0.12,-0.01
2020-08-12 20:3:00.3760,0.12,-0.33,-0.0
2020-08-12 20:3:00.4750,-0.26,-0.29,0.08
2020-08-12 20:3:00.5740,-0.4,-0.13,0.04
2020-08-12 20:3:00.6730,-0.91,-0.03,0.06
2020-08-12 20:3:00.7730,0.26,-0.03,-0.2
2020-08-12 20:3:00.8720,-0.73,-0.67,0.39
2020-08-12 20:3:00.9710,-0.24,0.09,-0.02
2020-08-12 20:3:01.0710,-0.08,-0.01,0.07
2020-08-12 20:3:01.1700,0.08,-0.01,-0.01
2020-08-12 20:3:01.2690,0.01,-0.01,0.02
2020-08-12 20:3:01.3680,-0.04,0.02,0.03
2020-08-12 20:3:01.4680,-0.04,0.0,0.05
2020-08-12 20:3:01.5670,-0.01,-0.02,0.02
2020-08-12 20:3:01.6660,-0.01,0.01,-0.01
2020-08-12 20:3:01.7650,-0.0,-0.01,0.01
2020-08-12 20:3:01.8650,0.0,-0.04,0.04
2020-08-12 20:3:01.9640,0.1,-0.22,-0.04
2020-08-12 20:3:02.0630,0.26,-0.26,0.01
2020-08-12 20:3:02.1630,0.2,-0.24,0.08
2020-08-12 20:3:02.2620,0.83,0.27,-0.07
2020-08-12 20:3:02.3610,0.64,0.03,-0.05
2020-08-12 20:3:02.4600,0.22,-0.27,-0.01
2020-08-12 20:3:02.5600,-0.2,-0.3,0.01
2020-08-12 20:3:02.6590,-0.57,-0.21,0.06
2020-08-12 20:3:02.7580,-1.04,-0.14,-0.01
2020-08-12 20:3:02.8580,-0.07,-1.53,-1.33
2020-08-12 20:3:02.9570,-0.29,0.19,0.49
2020-08-12 20:3:03.0560,-0.14,-0.08,-0.02
2020-08-12 20:3:03.1550,-0.14,0.0,0.03
2020-08-12 20:3:03.2540,0.01,0.0,-0.0
2020-08-12 20:3:03.3540,-0.04,-0.0,0.01
2020-08-12 20:3:03.4530,-0.08,-0.01,0.01
2020-08-12 20:3:03.5530,0.09,-0.04,0.02
2020-08-12 20:3:03.6520,-0.0,-0.02,0.04
2020-08-12 20:3:03.7510,-0.02,-0.01,-0.01
2020-08-12 20:3:03.8500,0.05,-0.04,0.04
2020-08-12 20:3:03.9500,0.12,-0.16,0.0
2020-08-12 20:3:04.0490,0.17,-0.24,-0.04
2020-08-12 20:3:04.1480,0.16,-0.13,0.18
2020-08-12 20:3:04.2470,0.06,-0.0,0.1
2020-08-12 20:3:04.3460,0.59,0.13,0.03
2020-08-12 20:3:04.4460,0.49,0.0,-0.07
2020-08-12 20:3:04.5450,0.22,-0.25,-0.05
2020-08-12 20:3:04.6440,-0.04,-0.18,0.01
2020-08-12 20:3:04.7440,-0.39,-0.21,0.05
2020-08-12 20:3:04.8430,-0.97,-0.1,-0.0
2020-08-12 20:3:04.9420,3.05,-0.28,0.22
2020-08-12 20:3:05.0410,-0.19,0.23,0.31
2020-08-12 20:3:05.1400,-0.24,-0.01,0.01
2020-08-12 20:3:05.2400,-0.03,0.01,-0.03
2020-08-12 20:3:05.3390,0.07,-0.03,0.03
2020-08-12 20:3:05.4380,-0.08,-0.01,0.03
2020-08-12 20:3:05.5370,-0.02,-0.01,-0.0
2020-08-12 20:3:05.6370,-0.03,-0.01,0.03
2020-08-12 20:3:05.7360,0.02,0.0,-0.01
2020-08-12 20:3:05.8360,-0.01,-0.01,0.01
2020-08-12 20:3:05.9350,0.02,-0.02,-0.01
2020-08-12 20:3:06.0340,0.04,-0.1,0.05
2020-08-12 20:3:06.1330,0.26,-0.26,-0.08
2020-08-12 20:3:06.2320,0.13,-0.26,0.12
2020-08-12 20:3:06.3320,0.85,0.13,0.02
2020-08-12 20:3:06.4310,0.67,0.15,-0.04
2020-08-12 20:3:06.5300,0.28,-0.28,0.0
2020-08-12 20:3:06.6290,-0.22,-0.32,0.07
2020-08-12 20:3:06.7290,-0.57,-0.2,0.0
2020-08-12 20:3:06.8280,-1.21,-0.02,0.03
2020-08-12 20:3:06.9270,-1.12,-0.53,0.26
2020-08-12 20:3:07.0270,0.09,0.04,0.1
2020-08-12 20:3:07.1260,-0.01,-0.01,-0.03
2020-08-12 20:3:07.2250,-0.1,-0.0,0.01
2020-08-12 20:3:07.3240,0.02,-0.03,-0.03
2020-08-12 20:3:07.4230,-0.03,0.01,0.01
2020-08-12 20:3:07.5230,-0.03,-0.01,-0.01
2020-08-12 20:3:07.6220,-0.0,-0.01,0.04
2020-08-12 20:3:07.7220,0.0,-0.01,0.02
2020-08-12 20:3:07.8210,-0.01,-0.01,0.03
2020-08-12 20:3:07.9200,-0.02,-0.03,0.02
2020-08-12 20:3:08.0190,0.07,-0.2,0.05
2020-08-12 20:3:08.1190,0.37,-0.24,0.03
2020-08-12 20:3:08.2180,0.01,-0.11,0.14
2020-08-12 20:3:08.3170,0.71,0.23,0.01
2020-08-12 20:3:08.4160,0.56,0.08,0.01
2020-08-12 20:3:08.5160,0.28,-0.25,-0.01
2020-08-12 20:3:08.6150,-0.22,-0.34,0.06
2020-08-12 20:3:08.7140,-0.46,-0.15,0.05
2020-08-12 20:3:08.8130,-0.75,-0.06,-0.06
2020-08-12 20:3:08.9130,-0.31,-0.2,-0.26
2020-08-12 20:3:09.0120,-0.24,-0.22,0.07
2020-08-12 20:3:09.1110,-0.01,-0.03,-0.15
2020-08-12 20:3:09.2100,-0.01,-0.03,-0.02
2020-08-12 20:3:09.3100,-0.04,0.01,0.04
2020-08-12 20:3:09.4090,-0.01,-0.01,0.02
2020-08-12 20:3:09.5080,0.02,-0.01,0.04
2020-08-12 20:3:09.6070,0.03,-0.01,0.02
2020-08-12 20:3:09.7070,0.02,0.0,-0.05
2020-08-12 20:3:09.8060,0.0,-0.03,0.02
2020-08-12 20:3:09.9050,0.05,-0.02,0.0
2020-08-12 20:3:10.0050,0.1,-0.17,0.05
2020-08-12 20:3:10.1040,0.28,-0.21,-0.06
2020-08-12 20:3:10.2030,0.02,-0.31,0.16
2020-08-12 20:3:10.3020,0.88,0.32,-0.05
2020-08-12 20:3:10.4020,0.57,0.05,0.02
2020-08-12 20:3:10.5010,0.2,-0.26,-0.02
2020-08-12 20:3:10.6000,-0.27,-0.29,0.08
2020-08-12 20:3:10.6990,-0.63,-0.17,0.06
2020-08-12 20:3:10.7990,-0.72,-0.08,0.02
2020-08-12 20:3:10.8980,2.48,-0.38,0.16
2020-08-12 20:3:10.9970,-0.75,-0.08,0.46
2020-08-12 20:3:11.0970,-0.29,0.03,0.09
2020-08-12 20:3:11.1960,-0.05,-0.03,-0.0
2020-08-12 20:3:11.2950,-0.02,-0.0,0.0
2020-08-12 20:3:11.3940,-0.05,0.0,0.01
2020-08-12 20:3:11.4940,-0.01,-0.01,0.02
2020-08-12 20:3:11.5930,-0.0,-0.01,0.01
2020-08-12 20:3:11.6920,-0.01,0.01,-0.01
2020-08-12 20:3:11.7910,-0.0,0.0,0.01
2020-08-12 20:3:11.8910,0.01,-0.01,0.01
2020-08-12 20:3:11.9900,0.02,-0.07,0.01
2020-08-12 20:3:12.0890,0.25,-0.36,-0.02
2020-08-12 20:3:12.1890,0.25,-0.21,0.05
2020-08-12 20:3:12.2880,0.48,0.06,0.18
2020-08-12 20:3:12.3870,0.65,0.24,0.03
2020-08-12 20:3:12.4860,0.42,-0.19,-0.04
2020-08-12 20:3:12.5850,-0.01,-0.33,0.08
2020-08-12 20:3:12.6850,-0.47,-0.27,0.05
2020-08-12 20:3:12.7840,-0.56,-0.04,0.01
2020-08-12 20:3:12.8830,-0.86,0.02,-0.01
2020-08-12 20:3:12.9820,-0.5,0.03,0.4
2020-08-12 20:3:13.0820,0.12,0.08,-0.0
2020-08-12 20:3:13.1810,-0.11,-0.03,0.03
2020-08-12 20:3:13.2800,-0.09,-0.02,0.01
2020-08-12 20:3:13.3800,-0.03,-0.01,-0.03
2020-08-12 20:3:13.4790,-0.05,-0.0,0.04
2020-08-12 20:3:13.5780,-0.03,-0.0,0.03
2020-08-12 20:3:13.6770,-0.07,-0.02,0.03
2020-08-12 20:3:13.7770,0.01,-0.03,0.05
2020-08-12 20:3:13.8760,-0.02,-0.03,0.01
2020-08-12 20:3:13.9760,0.03,-0.1,0.02
2020-08-12 20:3:14.0750,0.34,-0.33,0.01
2020-08-12 20:3:14.1740,0.04,-0.24,0.18
2020-08-12 20:3:14.2730,0.74,0.29,-0.01
2020-08-12 20:3:14.3720,0.49,0.04,-0.07
2020-08-12 20:3:14.4720,0.11,-0.29,0.04
2020-08-12 20:3:14.5710,-0.12,-0.23,0.09
2020-08-12 20:3:14.6700,-0.45,-0.11,0.15
2020-08-12 20:3:14.7700,-0.67,-0.03,-0.14
2020-08-12 20:3:14.8690,0.54,-0.24,0.09
2020-08-12 20:3:14.9680,-0.71,-0.5,0.12
2020-08-12 20:3:15.0670,-0.07,0.07,-0.01
2020-08-12 20:3:15.1660,0.06,-0.02,0.01
2020-08-12 20:3:15.2660,-0.04,0.02,0.02
2020-08-12 20:3:15.3650,-0.04,0.02,0.02
2020-08-12 20:3:15.4640,-0.05,0.02,0.0
2020-08-12 20:3:15.5640,-0.02,-0.02,0.03
2020-08-12 20:3:15.6630,-0.01,-0.01,0.02
2020-08-12 20:3:15.7620,0.05,-0.02,-0.01
2020-08-12 20:3:15.8610,0.01,-0.03,0.01
2020-08-12 20:3:15.9610,0.08,-0.15,0.02
2020-08-12 20:3:16.0600,0.27,-0.25,0.02
2020-08-12 20:3:16.1590,0.09,-0.26,0.1
2020-08-12 20:3:16.2590,0.71,0.15,-0.01
2020-08-12 20:3:16.3580,0.66,0.2,-0.06
2020-08-12 20:3:16.4570,0.26,-0.24,-0.02
2020-08-12 20:3:16.5560,-0.18,-0.32,0.15
2020-08-12 20:3:16.6560,-0.33,-0.22,-0.06
2020-08-12 20:3:16.7550,-0.45,0.08,0.06
2020-08-12 20:3:16.8540,-0.93,-0.03,-0.12
2020-08-12 20:3:16.9530,-0.74,0.33,1.07
2020-08-12 20:3:17.0520,0.07,0.06,-0.03
2020-08-12 20:3:17.1520,0.08,-0.01,-0.04
2020-08-12 20:3:17.2510,-0.03,0.01,0.06
2020-08-12 20:3:17.3500,-0.04,-0.0,0.02
2020-08-12 20:3:17.4500,-0.03,0.0,0.05
2020-08-12 20:3:17.5490,-0.02,0.0,0.01
2020-08-12 20:3:17.6480,-0.04,-0.0,0.01
2020-08-12 20:3:17.7470,-0.03,-0.0,0.0
2020-08-12 20:3:17.8470,-0.01,-0.02,0.03
2020-08-12 20:3:17.9460,0.03,-0.13,0.05
2020-08-12 20:3:18.0460,0.39,-0.31,0.01
2020-08-12 20:3:18.1450,0.1,-0.18,0.05
2020-08-12 20:3:18.2440,0.69,0.22,0.03
2020-08-12 20:3:18.3430,0.72,0.18,-0.05
2020-08-12 20:3:18.4430,0.31,-0.26,0.05
2020-08-12 20:3:18.5420,0.05,-0.4,0.08
2020-08-12 20:3:18.6410,-0.73,-0.25,0.25
2020-08-12 20:3:18.7400,-0.71,-0.09,-0.17
2020-08-12 20:3:18.8400,1.38,-1.43,-0.71
2020-08-12 20:3:18.9390,-0.38,0.29,0.7
2020-08-12 20:3:19.0380,-0.1,-0.06,-0.04
2020-08-12 20:3:19.1370,-0.08,-0.03,-0.1
2020-08-12 20:3:19.2370,0.02,-0.0,0.01
2020-08-12 20:3:19.3360,-0.05,-0.0,0.08
2020-08-12 20:3:19.4350,-0.02,-0.02,0.02
2020-08-12 20:3:19.5340,-0.02,-0.04,-0.03
2020-08-12 20:3:19.6340,0.0,-0.01,0.02
2020-08-12 20:3:19.7330,-0.01,0.0,0.04
2020-08-12 20:3:19.8320,0.07,-0.03,0.02
2020-08-12 20:3:19.9310,0.06,-0.04,-0.0
2020-08-12 20:3:20.0310,0.1,-0.21,-0.1
2020-08-12 20:3:20.1300,0.3,-0.26,0.1
2020-08-12 20:3:20.2290,0.15,-0.21,0.11
2020-08-12 20:3:20.3290,0.83,0.25,-0.06
2020-08-12 20:3:20.4280,0.6,0.08,-0.01
2020-08-12 20:3:20.5270,0.11,-0.27,-0.02
2020-08-12 20:3:20.6260,-0.08,-0.41,0.01
2020-08-12 20:3:20.7260,-0.45,-0.23,0.02
2020-08-12 20:3:20.8250,-0.7,-0.04,0.02
2020-08-12 20:3:20.9240,-1.25,-0.08,0.2
2020-08-12 20:3:21.0230,-0.63,-0.68,-0.33
2020-08-12 20:3:21.1230,0.2,0.02,-0.33
2020-08-12 20:3:21.2220,-0.03,-0.05,0.04
2020-08-12 20:3:21.3210,-0.07,0.03,0.05
2020-08-12 20:3:21.4200,-0.11,-0.03,-0.02
2020-08-12 20:3:21.5190,-0.06,-0.02,0.03
2020-08-12 20:3:21.6190,-0.02,0.01,0.0
2020-08-12 20:3:21.7180,0.09,-0.02,0.02
2020-08-12 20:3:21.8170,0.08,-0.0,0.04
2020-08-12 20:3:21.9170,0.02,-0.02,0.03
2020-08-12 20:3:22.0160,-0.0,-0.01,0.04
2020-08-12 20:3:22.1150,0.06,-0.12,0.06
2020-08-12 20:3:22.2150,0.03,-0.22,-0.08
2020-08-12 20:3:22.3140,0.18,-0.08,0.03
2020-08-12 20:3:22.4130,0.2,-0.21,0.09
2020-08-12 20:3:22.5120,0.7,0.05,0.05
2020-08-12 20:3:22.6120,0.62,0.06,0.03
2020-08-12 20:3:22.7110,0.37,-0.22,0.02
2020-08-12 20:3:22.8100,0.02,-0.26,0.04
2020-08-12 20:3:22.9090,-0.3,-0.26,0.08
2020-08-12 20:3:23.0090,-1.4,-0.15,0.19
2020-08-12 20:3:23.1080,3.28,-0.23,0.26
2020-08-12 20:3:23.2070,-0.23,0.16,0.41
2020-08-12 20:3:23.3070,-0.23,-0.04,-0.03
2020-08-12 20:3:23.4060,-0.09,-0.02,0.05
2020-08-12 20:3:23.5050,-0.04,0.01,-0.01
2020-08-12 20:3:23.6040,-0.02,-0.01,0.02
2020-08-12 20:3:23.7030,0.01,-0.01,0.03
2020-08-12 20:3:23.8030,-0.02,-0.02,0.04
2020-08-12 20:3:23.9020,0.01,-0.02,-0.0
2020-08-12 20:3:24.0010,0.05,0.0,0.02
2020-08-12 20:3:24.1010,0.07,-0.02,0.01
2020-08-12 20:3:24.2000,0.08,-0.12,0.06
2020-08-12 20:3:24.2990,0.26,-0.36,-0.1
2020-08-12 20:3:24.3980,0.41,-0.2,0.15
2020-08-12 20:3:24.4980,0.72,0.15,0.14
2020-08-12 20:3:24.5970,0.7,0.18,0.01
2020-08-12 20:3:24.6960,0.41,-0.23,-0.14
2020-08-12 20:3:24.7960,-0.12,-0.41,0.09
2020-08-12 20:3:24.8950,-0.77,-0.21,0.16
2020-08-12 20:3:24.9940,-1.06,-0.06,0.02
2020-08-12 20:3:25.0940,-0.44,-1.7,-1.66
2020-08-12 20:3:25.1930,-0.44,0.03,0.08
2020-08-12 20:3:25.2920,-0.14,0.02,0.1
2020-08-12 20:3:25.3910,-0.04,-0.02,0.03
2020-08-12 20:3:25.4900,-0.05,0.02,-0.0
2020-08-12 20:3:25.5900,-0.01,-0.01,0.01
2020-08-12 20:3:25.6890,-0.01,-0.01,0.04
2020-08-12 20:3:25.7880,-0.04,0.01,0.01
2020-08-12 20:3:25.8870,0.0,-0.02,-0.0
2020-08-12 20:3:25.9870,-0.0,-0.03,0.03
2020-08-12 20:3:26.0860,0.02,-0.11,0.05
2020-08-12 20:3:26.1850,0.26,-0.29,-0.07
2020-08-12 20:3:26.2850,0.22,-0.22,0.03
2020-08-12 20:3:26.3840,0.41,0.14,0.27
2020-08-12 20:3:26.4830,0.71,0.27,-0.06
2020-08-12 20:3:26.5820,0.33,-0.2,-0.06
2020-08-12 20:3:26.6820,-0.09,-0.34,0.08
2020-08-12 20:3:26.7810,-0.18,-0.17,0.04
2020-08-12 20:3:26.8800,-0.56,-0.03,0.06
2020-08-12 20:3:26.9790,-1.24,-0.01,-0.07
2020-08-12 20:3:27.0780,-1.03,0.08,0.54
2020-08-12 20:3:27.1780,0.0,0.03,-0.04
2020-08-12 20:3:27.2770,0.01,-0.02,-0.03
2020-08-12 20:3:27.3760,-0.07,-0.01,0.01
2020-08-12 20:3:27.4760,-0.08,0.0,0.02
2020-08-12 20:3:27.5750,-0.06,0.02,0.06
2020-08-12 20:3:27.6740,-0.0,-0.02,0.02
2020-08-12 20:3:27.7740,0.01,-0.03,0.01
2020-08-12 20:3:27.8730,0.01,-0.01,-0.02
2020-08-12 20:3:27.9720,0.03,-0.03,0.01
2020-08-12 20:3:28.0710,0.04,-0.09,0.04
2020-08-12 20:3:28.1700,0.33,-0.28,-0.01
2020-08-12 20:3:28.2700,0.27,-0.26,0.07
2020-08-12 20:3:28.3690,0.63,0.11,0.15
2020-08-12 20:3:28.4680,0.67,0.25,0.01
2020-08-12 20:3:28.5670,0.37,-0.27,-0.12
2020-08-12 20:3:28.6670,-0.13,-0.41,0.09
2020-08-12 20:3:28.7660,-0.41,-0.23,-0.05
2020-08-12 20:3:28.8660,-0.84,-0.05,0.13
2020-08-12 20:3:28.9650,-0.78,-0.04,-0.11
2020-08-12 20:3:29.0640,-0.65,-0.46,0.15
2020-08-12 20:3:29.1630,0.3,0.0,-0.17
2020-08-12 20:3:29.2630,0.12,-0.02,-0.03
2020-08-12 20:3:29.3620,-0.04,0.01,-0.01
2020-08-12 20:3:29.4610,-0.01,0.01,0.01
2020-08-12 20:3:29.5600,-0.02,-0.02,0.07
2020-08-12 20:3:29.6600,0.0,-0.02,0.03
2020-08-12 20:3:29.7590,-0.03,-0.01,-0.02
2020-08-12 20:3:29.8580,-0.02,-0.03,0.05
2020-08-12 20:3:29.9570,0.01,-0.05,0.01
2020-08-12 20:3:30.0570,0.05,-0.11,-0.02
2020-08-12 20:3:30.1560,0.34,-0.2,0.07
2020-08-12 20:3:30.2550,0.15,-0.37,0.14
2020-08-12 20:3:30.3540,0.87,0.34,-0.07
2020-08-12 20:3:30.4540,0.59,0.04,-0.05
2020-08-12 20:3:30.5530,0.24,-0.32,-0.08
2020-08-12 20:3:30.6520,-0.38,-0.27,0.06
2020-08-12 20:3:30.7520,-0.44,-0.17,0.0
2020-08-12 20:3:30.8510,-0.81,-0.06,0.13
2020-08-12 20:3:30.9500,1.59,-1.33,-0.96
2020-08-12 20:3:31.0490,-0.42,0.12,0.26
2020-08-12 20:3:31.1480,-0.18,-0.0,0.02
2020-08-12 20:3:31.2480,-0.06,0.0,0.04
2020-08-12 20:3:31.3470,0.01,-0.02,-0.05
2020-08-12 20:3:31.4460,-0.07,0.02,0.0
2020-08-12 20:3:31.5460,0.2,0.03,0.1
2020-08-12 20:3:31.6450,0.01,-0.02,0.04
2020-08-12 20:3:31.7440,-0.01,0.0,0.02
2020-08-12 20:3:31.8430,0.03,-0.0,-0.02
2020-08-12 20:3:31.9430,0.03,-0.03,-0.02
2020-08-12 20:3:32.0420,0.02,-0.1,-0.01
2020-08-12 20:3:32.1410,0.2,-0.24,0.02
2020-08-12 20:3:32.2400,0.25,-0.29,0.08
2020-08-12 20:3:32.3400,1.02,0.12,0.05
2020-08-12 20:3:32.4390,0.72,0.07,-0.05
2020-08-12 20:3:32.5380,0.12,-0.36,-0.03
2020-08-12 20:3:32.6380,-0.2,-0.32,0.03
2020-08-12 20:3:32.7370,-0.71,-0.2,0.16
2020-08-12 20:3:32.8360,-0.74,-0.07,-0.01
2020-08-12 20:3:32.9350,2.14,-0.53,-0.17
2020-08-12 20:3:33.0350,-0.35,0.01,0.36
2020-08-12 20:3:33.1340,-0.07,-0.04,-0.12
2020-08-12 20:3:33.2330,-0.12,-0.04,0.05
2020-08-12 20:3:33.3320,-0.04,0.01,0.02
2020-08-12 20:3:33.4320,-0.03,0.02,-0.01
2020-08-12 20:3:33.5310,-0.01,-0.02,0.03
2020-08-12 20:3:33.6310,-0.02,-0.01,0.01
2020-08-12 20:3:33.7300,-0.07,-0.02,-0.01
2020-08-12 20:3:33.8290,-0.02,-0.02,0.02
2020-08-12 20:3:33.9280,-0.03,-0.03,0.01
2020-08-12 20:3:34.0270,-0.02,-0.11,0.04
2020-08-12 20:3:34.1270,0.23,-0.21,-0.05
2020-08-12 20:3:34.2260,0.26,-0.28,0.12
2020-08-12 20:3:34.3250,0.32,0.04,0.29
2020-08-12 20:3:34.4240,0.75,0.25,0.0
2020-08-12 20:3:34.5240,0.42,-0.17,-0.07
2020-08-12 20:3:34.6230,-0.06,-0.35,0.15
2020-08-12 20:3:34.7220,-0.33,-0.29,0.03
2020-08-12 20:3:34.8210,-0.74,-0.05,0.12
2020-08-12 20:3:34.9210,-1.03,-0.01,-0.09
2020-08-12 20:3:35.0200,-0.77,-0.23,0.42
2020-08-12 20:3:35.1190,0.11,0.03,-0.1
2020-08-12 20:3:35.2180,0.02,-0.04,-0.05
2020-08-12 20:3:35.3180,-0.08,0.0,0.01
2020-08-12 20:3:35.4170,-0.07,0.01,0.05
2020-08-12 20:3:35.5160,-0.07,-0.01,0.0
2020-08-12 20:3:35.6160,-0.08,0.06,0.04
2020-08-12 20:3:35.7150,-0.06,-0.07,-0.02
2020-08-12 20:3:35.8140,-0.05,-0.01,-0.02
2020-08-12 20:3:35.9140,0.02,-0.01,0.03
2020-08-12 20:3:36.0130,-0.02,-0.04,0.02
2020-08-12 20:3:36.1120,0.06,-0.19,0.08
2020-08-12 20:3:36.2110,0.25,-0.18,-0.11
2020-08-12 20:3:36.3100,0.15,-0.24,0.15
2020-08-12 20:3:36.4100,0.52,-0.04,0.16
2020-08-12 20:3:36.5090,0.73,0.16,-0.0
2020-08-12 20:3:36.6080,0.45,-0.14,-0.08
2020-08-12 20:3:36.7080,0.0,-0.32,0.02
2020-08-12 20:3:36.8070,-0.33,-0.18,-0.0
2020-08-12 20:3:36.9060,-1.4,-0.21,0.11
2020-08-12 20:3:37.0050,0.55,-0.01,0.04
2020-08-12 20:3:37.1050,-0.41,-0.44,-0.01
2020-08-12 20:3:37.2040,-0.23,-0.0,-0.11
2020-08-12 20:3:37.3030,-0.02,-0.01,0.08
2020-08-12 20:3:37.4030,-0.07,-0.01,0.05
2020-08-12 20:3:37.5020,-0.01,-0.01,0.02
2020-08-12 20:3:37.6010,0.0,0.0,0.03
2020-08-12 20:3:37.7000,-0.01,-0.01,0.03
2020-08-12 20:3:37.8000,-0.01,-0.01,0.0
2020-08-12 20:3:37.8990,0.09,-0.02,0.01
2020-08-12 20:3:37.9980,-0.01,-0.0,-0.01
2020-08-12 20:3:38.0970,0.05,-0.13,0.09
2020-08-12 20:3:38.1970,0.35,-0.47,-0.05
2020-08-12 20:3:38.2960,0.07,-0.1,0.1
2020-08-12 20:3:38.3950,0.73,0.28,-0.08
2020-08-12 20:3:38.4940,0.56,0.04,0.0
2020-08-12 20:3:38.5930,0.18,-0.25,0.02
2020-08-12 20:3:38.6930,-0.06,-0.28,-0.03
2020-08-12 20:3:38.7920,-0.29,-0.23,0.0
2020-08-12 20:3:38.8910,-0.94,-0.09,0.05
2020-08-12 20:3:38.9910,-0.78,-0.09,0.12
2020-08-12 20:3:39.0900,-0.23,-0.12,0.02
2020-08-12 20:3:39.1890,0.06,-0.04,-0.2
2020-08-12 20:3:39.2880,-0.01,-0.07,-0.03
2020-08-12 20:3:39.3880,-0.03,0.0,0.04
2020-08-12 20:3:39.4870,-0.02,0.02,0.05
2020-08-12 20:3:39.5860,-0.01,-0.02,0.04
2020-08-12 20:3:39.6860,-0.04,0.01,-0.01
2020-08-12 20:3:39.7850,-0.03,-0.0,-0.01
2020-08-12 20:3:39.8840,-0.09,-0.03,0.03
2020-08-12 20:3:39.9840,-0.04,-0.03,0.01
2020-08-12 20:3:40.0830,0.0,-0.08,0.04
2020-08-12 20:3:40.1820,0.21,-0.33,-0.11
2020-08-12 20:3:40.2810,0.26,-0.29,0.18
2020-08-12 20:3:40.3810,0.56,0.08,0.33
2020-08-12 20:3:40.4800,0.78,0.17,0.04
2020-08-12 20:3:40.5790,0.3,-0.25,-0.03
2020-08-12 20:3:40.6780,-0.19,-0.32,0.08
2020-08-12 20:3:40.7780,-0.57,-0.24,0.03
2020-08-12 20:3:40.8770,-0.89,-0.12,-0.03
2020-08-12 20:3:40.9760,0.75,-0.1,-0.07
2020-08-12 20:3:41.0750,-0.08,-0.02,0.16
2020-08-12 20:3:41.1750,-0.11,-0.0,-0.08
2020-08-12 20:3:41.2740,-0.01,-0.02,0.09
2020-08-12 20:3:41.3730,0.08,0.06,0.01
2020-08-12 20:3:41.4720,0.06,0.0,0.04
2020-08-12 20:3:41.5720,0.0,-0.02,-0.02
2020-08-12 20:3:41.6710,-0.0,0.02,-0.0
2020-08-12 20:3:41.7700,0.03,-0.03,-0.01
2020-08-12 20:3:41.8690,0.02,-0.03,0.01
2020-08-12 20:3:41.9690,-0.01,-0.03,0.01
2020-08-12 20:3:42.0680,0.19,-0.23,0.03
2020-08-12 20:3:42.1670,0.45,-0.39,0.03
2020-08-12 20:3:42.2660,0.15,-0.05,0.19
2020-08-12 20:3:42.3660,0.83,0.28,-0.01
2020-08-12 20:3:42.4650,0.63,-0.11,-0.07
2020-08-12 20:3:42.5650,0.14,-0.44,0.08
2020-08-12 20:3:42.6630,-0.48,-0.34,0.15
2020-08-12 20:3:42.7630,-1.27,-0.18,0.12
2020-08-12 20:3:42.8620,1.61,-0.23,-0.21
2020-08-12 20:3:42.9610,0.16,0.19,0.27
2020-08-12 20:3:43.0610,-0.12,-0.0,-0.11
2020-08-12 20:3:43.1600,-0.02,-0.01,0.01
2020-08-12 20:3:43.2590,-0.01,0.0,-0.0
2020-08-12 20:3:43.3580,-0.08,-0.01,0.01
2020-08-12 20:3:43.4580,-0.02,-0.0,0.02
2020-08-12 20:3:43.5570,-0.04,-0.02,0.03
2020-08-12 20:3:43.6560,0.01,-0.05,0.02
2020-08-12 20:3:43.7550,0.02,-0.05,0.02
2020-08-12 20:3:43.8550,0.02,-0.06,0.06
2020-08-12 20:3:43.9540,0.18,-0.31,0.06
2020-08-12 20:3:44.0540,0.44,-0.39,-0.05
2020-08-12 20:3:44.1530,0.51,0.01,0.29
2020-08-12 20:3:44.2520,0.85,0.41,-0.05
2020-08-12 20:3:44.3510,0.45,-0.17,-0.03
2020-08-12 20:3:44.4510,-0.07,-0.49,0.08
2020-08-12 20:3:44.5500,-0.63,-0.29,0.1
2020-08-12 20:3:44.6490,-1.08,-0.1,0.01
2020-08-12 20:3:44.7480,2.91,-0.83,-0.19
2020-08-12 20:3:44.8470,0.19,0.32,-0.04
2020-08-12 20:3:44.9470,-0.07,-0.05,-0.03
2020-08-12 20:3:45.0460,-0.01,0.01,0.08
2020-08-12 20:3:45.1450,0.01,0.0,-0.04
2020-08-12 20:3:45.2450,-0.09,0.02,0.02
2020-08-12 20:3:45.3440,-0.04,-0.02,-0.0
2020-08-12 20:3:45.4430,-0.04,-0.01,-0.01
2020-08-12 20:3:45.5420,-0.0,-0.01,0.0
2020-08-12 20:3:45.6420,0.1,-0.01,0.02
2020-08-12 20:3:45.7410,0.03,-0.03,0.01
2020-08-12 20:3:45.8400,0.08,-0.16,-0.0
2020-08-12 20:3:45.9390,0.37,-0.34,0.07
2020-08-12 20:3:46.0390,0.08,-0.23,0.06
2020-08-12 20:3:46.1380,0.85,0.25,-0.07
2020-08-12 20:3:46.2370,0.65,0.05,-0.03
2020-08-12 20:3:46.3370,0.35,-0.39,0.01
2020-08-12 20:3:46.4360,-0.19,-0.39,-0.01
2020-08-12 20:3:46.5350,-1.03,-0.21,0.22
2020-08-12 20:3:46.6340,-1.04,-0.28,-0.37
2020-08-12 20:3:46.7340,-0.59,-0.38,-0.1
2020-08-12 20:3:46.8330,-0.02,0.02,-0.11
2020-08-12 20:3:46.9320,0.08,0.0,0.01
2020-08-12 20:3:47.0310,-0.02,-0.04,0.03
2020-08-12 20:3:47.1310,-0.05,0.02,-0.0
2020-08-12 20:3:47.2300,-0.08,0.1,-0.02
2020-08-12 20:3:47.3290,-0.03,0.03,0.02
2020-08-12 20:3:47.4290,0.06,-0.01,-0.03
2020-08-12 20:3:47.5270,-0.03,-0.02,0.01
2020-08-12 20:3:47.6270,-0.03,-0.02,0.01
2020-08-12 20:3:47.7260,0.01,-0.13,0.06
2020-08-12 20:3:47.8250,0.32,-0.3,-0.04
2020-08-12 20:3:47.9250,0.18,-0.3,0.11
2020-08-12 20:3:48.0240,0.99,0.27,-0.04
2020-08-12 20:3:48.1230,0.68,0.06,-0.1
2020-08-12 20:3:48.2230,0.13,-0.33,0.04
2020-08-12 20:3:48.3220,-0.02,-0.22,0.08
2020-08-12 20:3:48.4210,-0.52,-0.23,0.21
2020-08-12 20:3:48.5200,-1.1,-0.04,-0.05
2020-08-12 20:3:48.6200,-1.27,0.38,1.02
2020-08-12 20:3:48.7190,-0.29,-0.04,0.0
2020-08-12 20:3:48.8180,-0.07,-0.02,-0.01
2020-08-12 20:3:48.9170,-0.0,0.02,0.01
2020-08-12 20:3:49.0160,-0.06,0.04,0.03
2020-08-12 20:3:49.1160,-0.02,0.02,0.01
2020-08-12 20:3:49.2150,-0.08,0.0,-0.04
2020-08-12 20:3:49.3150,-0.03,0.01,-0.02
2020-08-12 20:3:49.4140,0.01,-0.01,-0.02
2020-08-12 20:3:49.5130,-0.03,-0.01,-0.01
2020-08-12 20:3:49.6120,-0.05,-0.02,0.01
2020-08-12 20:3:49.7120,0.05,-0.21,0.05
2020-08-12 20:3:49.8110,0.33,-0.3,-0.04
2020-08-12 20:3:49.9100,0.31,-0.26,0.08
2020-08-12 20:3:50.0090,1.18,0.13,0.17
2020-08-12 20:3:50.1090,0.75,0.1,-0.09
2020-08-12 20:3:50.2080,0.27,-0.35,-0.03
2020-08-12 20:3:50.3070,-0.08,-0.38,-0.01
2020-08-12 20:3:50.4070,-0.7,-0.32,0.25
2020-08-12 20:3:50.5060,-1.12,-0.06,-0.13
2020-08-12 20:3:50.6050,-0.83,0.45,0.98
2020-08-12 20:3:50.7040,-0.05,-0.03,-0.16
2020-08-12 20:3:50.8030,0.12,-0.0,-0.06
2020-08-12 20:3:50.9030,0.01,-0.05,-0.04
2020-08-12 20:3:51.0020,-0.01,0.0,-0.01
2020-08-12 20:3:51.1010,-0.08,0.02,0.05
2020-08-12 20:3:51.2010,-0.06,-0.04,0.04
2020-08-12 20:3:51.3000,0.01,-0.08,-0.04
2020-08-12 20:3:51.3990,0.03,-0.04,-0.0
2020-08-12 20:3:51.4980,0.06,-0.03,0.02
2020-08-12 20:3:51.5980,0.06,-0.01,-0.01
2020-08-12 20:3:51.6970,0.12,-0.26,0.01
2020-08-12 20:3:51.7960,0.46,-0.41,0.14
2020-08-12 20:3:51.8950,0.45,0.04,0.4
2020-08-12 20:3:51.9950,0.86,0.31,-0.08
2020-08-12 20:3:52.0940,0.49,-0.3,-0.1
2020-08-12 20:3:52.1930,-0.0,-0.45,0.09
2020-08-12 20:3:52.2920,-0.56,-0.4,0.05
2020-08-12 20:3:52.3920,-1.28,-0.15,0.11
2020-08-12 20:3:52.4910,0.07,-2.69,-1.01
2020-08-12 20:3:52.5900,-0.46,-0.06,0.35
2020-08-12 20:3:52.6900,0.0,0.01,-0.01
2020-08-12 20:3:52.7890,-0.01,0.03,0.02
2020-08-12 20:3:52.8880,0.1,0.03,0.02
2020-08-12 20:3:52.9880,0.01,-0.02,-0.03
2020-08-12 20:3:53.0870,-0.01,-0.01,0.01
2020-08-12 20:3:53.1860,-0.04,0.01,0.02
2020-08-12 20:3:53.2850,-0.03,-0.01,-0.0
2020-08-12 20:3:53.3840,0.02,-0.03,-0.01
2020-08-12 20:3:53.4840,0.02,-0.04,0.03
2020-08-12 20:3:53.5830,0.04,-0.18,-0.01
2020-08-12 20:3:53.6820,0.39,-0.43,-0.01
2020-08-12 20:3:53.7810,0.14,-0.22,0.27
2020-08-12 20:3:53.8810,1.14,0.36,-0.06
2020-08-12 20:3:53.9800,0.51,-0.24,-0.14
2020-08-12 20:3:54.0790,-0.13,-0.42,0.09
2020-08-12 20:3:54.1780,-0.51,-0.24,0.05
2020-08-12 20:3:54.2780,-1.03,-0.09,0.13
2020-08-12 20:3:54.3770,2.07,-0.64,-0.24
2020-08-12 20:3:54.4770,-0.05,0.29,0.65
2020-08-12 20:3:54.5760,-0.14,-0.02,0.1
2020-08-12 20:3:54.6750,0.03,0.0,0.09
2020-08-12 20:3:54.7740,0.05,0.04,0.02
2020-08-12 20:3:54.8740,0.02,0.03,0.06
2020-08-12 20:3:54.9730,0.0,0.0,-0.01
2020-08-12 20:3:55.0720,-0.02,-0.0,0.01
2020-08-12 20:3:55.1710,-0.03,-0.01,-0.02
2020-08-12 20:3:55.2700,0.0,-0.0,0.01
2020-08-12 20:3:55.3700,-0.0,-0.02,-0.02
2020-08-12 20:3:55.4690,-0.0,-0.02,-0.0
2020-08-12 20:3:55.5680,-0.03,-0.04,-0.01
2020-08-12 20:3:55.6670,0.16,-0.27,-0.0
2020-08-12 20:3:55.7670,0.25,-0.11,0.02
2020-08-12 20:3:55.8660,0.12,-0.19,0.18
2020-08-12 20:3:55.9650,0.9,0.21,-0.07
2020-08-12 20:3:56.0650,0.63,-0.04,-0.01
2020-08-12 20:3:56.1640,0.18,-0.33,0.14
2020-08-12 20:3:56.2630,-0.23,-0.33,0.11
2020-08-12 20:3:56.3620,-0.72,-0.21,0.11
2020-08-12 20:3:56.4620,-1.05,-0.08,-0.13
2020-08-12 20:3:56.5610,-0.98,-0.01,0.67
2020-08-12 20:3:56.6600,0.1,0.09,0.11
2020-08-12 20:3:56.7600,0.12,-0.04,0.01
2020-08-12 20:3:56.8590,-0.01,0.01,-0.01
2020-08-12 20:3:56.9580,-0.07,-0.02,-0.04
2020-08-12 20:3:57.0570,0.0,0.01,0.04
2020-08-12 20:3:57.1570,-0.02,-0.01,-0.02
2020-08-12 20:3:57.2560,0.05,0.02,0.02
2020-08-12 20:3:57.3550,-0.03,-0.01,0.01
2020-08-12 20:3:57.4540,0.01,-0.03,0.0
2020-08-12 20:3:57.5530,0.01,-0.04,0.01
2020-08-12 20:3:57.6530,-0.02,-0.07,0.02
2020-08-12 20:3:57.7520,0.14,-0.26,-0.03
2020-08-12 20:3:57.8510,0.38,-0.08,0.1
2020-08-12 20:3:57.9510,0.16,-0.22,0.22
2020-08-12 20:3:58.0500,0.97,0.29,0.01
2020-08-12 20:3:58.1490,0.5,-0.23,-0.08
2020-08-12 20:3:58.2490,-0.01,-0.39,0.07
2020-08-12 20:3:58.3480,-0.41,-0.31,0.04
2020-08-12 20:3:58.4470,-1.25,-0.15,0.19
2020-08-12 20:3:58.5460,1.61,-0.29,-0.13
2020-08-12 20:3:58.6460,-0.66,-0.19,0.23
2020-08-12 20:3:58.7450,-0.26,0.01,0.01
2020-08-12 20:3:58.8440,0.05,-0.01,0.0
2020-08-12 20:3:58.9430,0.04,0.01,0.0
2020-08-12 20:3:59.0430,-0.02,-0.03,0.03
2020-08-12 20:3:59.1420,-0.02,-0.01,0.01
2020-08-12 20:3:59.2410,-0.03,-0.01,0.02
2020-08-12 20:3:59.3400,-0.04,-0.0,0.0
2020-08-12 20:3:59.4400,-0.02,-0.01,0.01
2020-08-12 20:3:59.5390,0.01,-0.05,0.02
2020-08-12 20:3:59.6380,0.02,-0.1,0.02
2020-08-12 20:3:59.7370,0.2,-0.23,-0.02
2020-08-12 20:3:59.8370,0.19,-0.16,0.1
2020-08-12 20:3:59.9360,0.32,-0.01,0.3
2020-08-12 20:4:00.0350,0.79,0.22,-0.02
2020-08-12 20:4:00.1340,0.5,-0.14,-0.04
2020-08-12 20:4:00.2340,0.09,-0.28,0.06
2020-08-12 20:4:00.3330,-0.45,-0.34,0.15
2020-08-12 20:4:00.4320,-0.97,-0.1,0.26
2020-08-12 20:4:00.5320,-1.08,-0.11,-0.25
2020-08-12 20:4:00.6310,-0.57,-0.32,0.27
2020-08-12 20:4:00.7300,0.06,-0.03,-0.24
2020-08-12 20:4:00.8290,0.05,0.0,-0.03
2020-08-12 20:4:00.9290,0.02,-0.01,-0.0
2020-08-12 20:4:01.0280,-0.03,0.0,0.04
2020-08-12 20:4:01.1270,-0.05,0.01,0.01
2020-08-12 20:4:01.2270,-0.03,-0.02,0.02
2020-08-12 20:4:01.3260,-0.02,-0.02,-0.02
2020-08-12 20:4:01.4250,-0.02,-0.03,0.02
2020-08-12 20:4:01.5240,0.0,-0.02,-0.04
2020-08-12 20:4:01.6240,0.0,-0.04,0.01
2020-08-12 20:4:01.7230,0.06,-0.12,-0.03
2020-08-12 20:4:01.8220,0.17,-0.13,0.03
2020-08-12 20:4:01.9210,0.36,-0.28,0.06
2020-08-12 20:4:02.0210,0.29,-0.28,0.22
2020-08-12 20:4:02.1200,1.12,0.42,-0.08
2020-08-12 20:4:02.2190,0.4,-0.36,-0.15
2020-08-12 20:4:02.3180,-0.35,-0.52,0.19
2020-08-12 20:4:02.4180,-1.09,-0.28,0.1
2020-08-12 20:4:02.5170,-0.98,0.05,0.14
2020-08-12 20:4:02.6160,-0.61,-0.08,0.64
2020-08-12 20:4:02.7160,0.19,0.09,-0.22
2020-08-12 20:4:02.8150,0.01,-0.03,0.05
2020-08-12 20:4:02.9140,-0.08,0.0,0.06
2020-08-12 20:4:03.0140,-0.07,-0.0,-0.01
2020-08-12 20:4:03.1130,-0.02,-0.01,-0.02
2020-08-12 20:4:03.2120,-0.06,-0.0,0.01
2020-08-12 20:4:03.3110,0.03,-0.02,0.03
2020-08-12 20:4:03.4100,-0.02,-0.01,0.02
2020-08-12 20:4:03.5100,-0.01,-0.02,0.01
2020-08-12 20:4:03.6090,-0.01,-0.09,0.04
2020-08-12 20:4:03.7080,0.22,-0.3,-0.08
2020-08-12 20:4:03.8080,0.31,-0.07,0.1
2020-08-12 20:4:03.9070,0.08,0.01,0.13
2020-08-12 20:4:04.0060,0.68,0.19,0.05
2020-08-12 20:4:04.1050,0.52,-0.04,0.02
2020-08-12 20:4:04.2040,0.11,-0.25,0.05
2020-08-12 20:4:04.3040,-0.14,-0.29,0.08
2020-08-12 20:4:04.4030,-0.5,-0.16,0.12
2020-08-12 20:4:04.5020,-0.85,-0.12,-0.1
2020-08-12 20:4:04.6010,2.65,-0.36,-0.01
2020-08-12 20:4:04.7010,-0.16,0.12,0.42
2020-08-12 20:4:04.8000,-0.21,-0.08,-0.11
2020-08-12 20:4:04.9000,-0.04,-0.04,0.02
2020-08-12 20:4:04.9990,-0.02,0.02,0.02
2020-08-12 20:4:05.0980,-0.09,0.0,0.02
2020-08-12 20:4:05.1970,0.0,0.0,-0.02
2020-08-12 20:4:05.2970,-0.01,0.04,0.02
2020-08-12 20:4:05.3960,0.05,-0.0,0.02
2020-08-12 20:4:05.4950,0.08,0.01,-0.02
2020-08-12 20:4:05.5940,-0.03,-0.01,0.01
2020-08-12 20:4:05.6940,-0.03,-0.02,0.01
2020-08-12 20:4:05.7930,0.01,-0.0,-0.01
2020-08-12 20:4:05.8920,-0.01,-0.01,0.02
2020-08-12 20:4:05.9910,0.11,-0.22,-0.03
2020-08-12 20:4:06.0900,0.39,-0.23,-0.06
2020-08-12 20:4:06.1900,0.1,-0.13,0.15
2020-08-12 20:4:06.2890,0.9,0.26,-0.12
2020-08-12 20:4:06.3880,0.6,-0.01,-0.09
2020-08-12 20:4:06.4880,0.08,-0.32,0.1
2020-08-12 20:4:06.5870,-0.2,-0.31,0.04
2020-08-12 20:4:06.6860,-0.55,-0.12,0.07
2020-08-12 20:4:06.7860,-0.46,-0.01,-0.1
2020-08-12 20:4:06.8850,-0.98,-0.15,-0.31
2020-08-12 20:4:06.9840,-0.48,-0.34,0.22
2020-08-12 20:4:07.0830,-0.15,0.02,-0.11
2020-08-12 20:4:07.1830,0.06,-0.04,-0.08
2020-08-12 20:4:07.2820,0.02,-0.01,-0.03
2020-08-12 20:4:07.3810,-0.04,-0.01,-0.02
2020-08-12 20:4:07.4800,-0.01,-0.02,-0.01
2020-08-12 20:4:07.5800,-0.04,0.03,0.05
2020-08-12 20:4:07.6790,0.01,-0.02,0.02
2020-08-12 20:4:07.7780,0.19,0.0,0.02
2020-08-12 20:4:07.8780,0.21,-0.0,-0.06
2020-08-12 20:4:07.9770,0.03,-0.0,0.02
2020-08-12 20:4:08.0760,0.01,0.03,0.03
2020-08-12 20:4:08.1750,-0.02,0.03,-0.02
2020-08-12 20:4:08.2740,-0.05,0.02,0.06
2020-08-12 20:4:08.3740,-0.06,0.0,-0.0
2020-08-12 20:4:08.4730,-0.03,-0.0,0.01
2020-08-12 20:4:08.5720,-0.04,0.01,0.01
2020-08-12 20:4:08.6720,-0.02,0.01,-0.0
2020-08-12 20:4:08.7710,0.0,0.01,0.0
2020-08-12 20:4:08.8700,-0.01,-0.01,-0.01
2020-08-12 20:4:08.9700,-0.0,-0.0,0.0
2020-08-12 20:4:09.0690,0.0,-0.01,-0.01
2020-08-12 20:4:09.1680,-0.0,-0.01,0.0
2020-08-12 20:4:09.2670,-0.0,-0.0,-0.01
2020-08-12 20:4:09.3670,0.01,-0.01,-0.0
2020-08-12 20:4:09.4660,-0.02,0.01,0.0
2020-08-12 20:4:09.5650,0.0,-0.0,-0.01
2020-08-12 20:4:09.6640,0.01,-0.0,0.0
2020-08-12 20:4:09.7630,-0.01,-0.01,-0.0
2020-08-12 20:4:09.8630,0.0,-0.01,-0.01
2020-08-12 20:4:09.9620,0.01,-0.01,-0.01
2020-08-12 20:4:10.0610,0.02,-0.01,-0.01
2020-08-12 20:4:10.1610,0.01,-0.01,0.02
2020-08-12 20:4:10.2600,0.02,-0.0,-0.02
2020-08-12 20:4:10.3600,-0.06,0.01,0.01
2020-08-12 20:4:10.4580,-0.03,0.01,-0.03
