time,ax,ay,az
2020-08-13 11:56:12.7360,0.01,0.04,0.0
2020-08-13 11:56:12.8260,0.01,0.04,-0.0
2020-08-13 11:56:12.9280,0.02,0.02,0.01
2020-08-13 11:56:13.0190,0.03,0.02,-0.0
2020-08-13 11:56:13.1170,-0.04,0.03,-0.0
2020-08-13 11:56:13.2060,0.01,0.01,-0.0
2020-08-13 11:56:13.3040,-0.06,0.07,-0.02
2020-08-13 11:56:13.4020,0.01,0.02,-0.01
2020-08-13 11:56:13.5020,0.03,0.03,0.0
2020-08-13 11:56:13.5590,0.1,-0.02,-0.04
2020-08-13 11:56:13.6470,0.03,0.08,0.01
2020-08-13 11:56:13.7540,-0.12,0.02,0.07
2020-08-13 11:56:13.8280,-0.01,0.03,-0.03
2020-08-13 11:56:13.9330,0.1,0.07,0.06
2020-08-13 11:56:14.0130,0.01,0.03,0.01
2020-08-13 11:56:14.1110,-0.0,0.04,0.04
2020-08-13 11:56:14.2000,0.01,0.03,0.01
2020-08-13 11:56:14.2960,-0.0,0.04,-0.02
2020-08-13 11:56:14.3940,-0.01,0.05,0.01
2020-08-13 11:56:14.4940,-0.02,0.04,-0.0
2020-08-13 11:56:14.5920,0.0,0.01,-0.01
2020-08-13 11:56:14.6460,0.01,0.03,-0.01
2020-08-13 11:56:14.7440,0.02,0.02,-0.01
2020-08-13 11:56:14.8260,0.05,0.02,0.02
2020-08-13 11:56:14.9190,0.01,0.03,0.07
2020-08-13 11:56:15.0040,0.0,0.01,0.0
2020-08-13 11:56:15.1040,-0.06,0.03,0.01
2020-08-13 11:56:15.2020,0.01,0.03,0.01
2020-08-13 11:56:15.2900,0.01,0.01,-0.02
2020-08-13 11:56:15.3890,0.05,0.01,0.04
2020-08-13 11:56:15.4880,0.04,-0.09,-0.01
2020-08-13 11:56:15.5970,0.07,-0.28,-0.02
2020-08-13 11:56:15.6450,0.21,-0.34,0.14
2020-08-13 11:56:15.7350,0.39,-0.17,0.25
2020-08-13 11:56:15.8390,0.16,-0.07,0.09
2020-08-13 11:56:15.9280,0.65,0.26,0.09
2020-08-13 11:56:16.0060,0.62,0.15,0.03
2020-08-13 11:56:16.1060,0.13,-0.3,0.06
2020-08-13 11:56:16.1970,-0.29,-0.39,0.13
2020-08-13 11:56:16.2810,-0.42,-0.21,0.05
2020-08-13 11:56:16.3790,-0.72,-0.1,-0.05
2020-08-13 11:56:16.4880,-0.89,-0.02,-0.18
2020-08-13 11:56:16.5780,0.74,-0.26,-0.18
2020-08-13 11:56:16.6350,-0.28,-0.06,0.06
2020-08-13 11:56:16.7250,0.13,0.05,-0.2
2020-08-13 11:56:16.8140,-0.07,-0.03,0.03
2020-08-13 11:56:16.9190,0.02,0.01,-0.02
2020-08-13 11:56:16.9960,-0.03,0.04,0.0
2020-08-13 11:56:17.0980,0.02,0.06,0.03
2020-08-13 11:56:17.1790,-0.1,-0.03,-0.0
2020-08-13 11:56:17.2700,0.12,0.06,0.05
2020-08-13 11:56:17.3710,0.05,-0.02,-0.0
2020-08-13 11:56:17.4810,0.03,-0.07,-0.0
2020-08-13 11:56:17.5700,0.14,-0.26,0.05
2020-08-13 11:56:17.6350,0.31,-0.36,0.14
2020-08-13 11:56:17.7180,0.21,-0.2,0.2
2020-08-13 11:56:17.8190,0.88,0.21,-0.09
2020-08-13 11:56:17.9080,0.65,0.28,0.04
2020-08-13 11:56:17.9980,0.23,-0.11,0.02
2020-08-13 11:56:18.1010,0.02,-0.24,0.07
2020-08-13 11:56:18.1900,-0.29,-0.34,0.08
2020-08-13 11:56:18.2800,-0.61,-0.22,-0.02
2020-08-13 11:56:18.3660,-0.71,-0.03,-0.18
2020-08-13 11:56:18.4700,-0.78,0.07,-0.0
2020-08-13 11:56:18.5630,-0.0,-0.42,-0.09
2020-08-13 11:56:18.6620,0.11,0.09,0.2
2020-08-13 11:56:18.7270,0.18,-0.11,-0.23
2020-08-13 11:56:18.8240,-0.04,-0.01,-0.09
2020-08-13 11:56:18.9150,0.01,0.02,0.03
2020-08-13 11:56:19.0150,0.03,0.06,-0.02
2020-08-13 11:56:19.1090,0.08,0.03,0.01
2020-08-13 11:56:19.1860,-0.02,-0.02,-0.06
2020-08-13 11:56:19.2900,0.01,-0.01,0.01
2020-08-13 11:56:19.3660,-0.01,-0.08,-0.02
2020-08-13 11:56:19.4690,0.02,-0.05,-0.04
2020-08-13 11:56:19.5600,0.32,-0.29,0.03
2020-08-13 11:56:19.6610,0.35,-0.4,0.22
2020-08-13 11:56:19.7600,0.11,-0.13,0.18
2020-08-13 11:56:19.8170,0.9,0.22,0.08
2020-08-13 11:56:19.9060,0.6,0.3,0.01
2020-08-13 11:56:20.0060,0.23,-0.17,0.01
2020-08-13 11:56:20.0890,-0.27,-0.36,-0.04
2020-08-13 11:56:20.1840,-0.5,-0.34,0.1
2020-08-13 11:56:20.2670,-0.81,-0.15,-0.01
2020-08-13 11:56:20.3700,-0.64,0.05,-0.09
2020-08-13 11:56:20.4590,0.36,0.1,0.18
2020-08-13 11:56:20.5490,-0.2,-0.05,-0.17
2020-08-13 11:56:20.6460,0.05,0.07,-0.08
2020-08-13 11:56:20.7450,-0.13,0.01,0.05
2020-08-13 11:56:20.8430,-0.05,0.0,-0.0
2020-08-13 11:56:20.9420,-0.03,0.06,0.03
2020-08-13 11:56:20.9990,0.06,0.03,0.02
2020-08-13 11:56:21.1050,0.02,0.02,-0.03
2020-08-13 11:56:21.1790,-0.02,0.0,0.02
2020-08-13 11:56:21.2770,-0.01,-0.02,-0.01
2020-08-13 11:56:21.3600,0.08,-0.15,-0.04
2020-08-13 11:56:21.4500,0.21,-0.35,0.01
2020-08-13 11:56:21.5390,0.31,-0.22,0.18
2020-08-13 11:56:21.6350,0.08,-0.06,0.18
2020-08-13 11:56:21.7350,0.96,0.2,-0.01
2020-08-13 11:56:21.8330,0.68,0.25,-0.03
2020-08-13 11:56:21.9000,0.23,-0.13,-0.03
2020-08-13 11:56:22.0050,-0.13,-0.29,0.04
2020-08-13 11:56:22.0870,-0.34,-0.35,-0.01
2020-08-13 11:56:22.1780,-0.69,-0.15,-0.02
2020-08-13 11:56:22.2760,-0.62,0.03,-0.16
2020-08-13 11:56:22.3560,0.55,-0.02,-0.05
2020-08-13 11:56:22.4550,-0.23,-0.09,-0.11
2020-08-13 11:56:22.5350,-0.11,0.01,-0.05
2020-08-13 11:56:22.6270,-0.12,0.04,0.14
2020-08-13 11:56:22.7250,-0.02,0.02,-0.02
2020-08-13 11:56:22.8180,-0.02,0.03,0.01
2020-08-13 11:56:22.9160,-0.04,0.02,-0.02
2020-08-13 11:56:23.0160,-0.06,0.02,0.0
2020-08-13 11:56:23.0730,-0.01,-0.0,-0.04
2020-08-13 11:56:23.1640,0.09,0.04,0.05
2020-08-13 11:56:23.2610,0.04,-0.06,-0.02
2020-08-13 11:56:23.3410,0.14,-0.26,0.02
2020-08-13 11:56:23.4390,0.31,-0.29,0.05
2020-08-13 11:56:23.5360,0.32,-0.14,0.13
2020-08-13 11:56:23.6260,0.25,0.1,0.11
2020-08-13 11:56:23.7220,0.58,0.29,0.05
2020-08-13 11:56:23.8100,0.4,-0.02,0.01
2020-08-13 11:56:23.9070,-0.08,-0.34,0.02
2020-08-13 11:56:24.0070,-0.32,-0.28,0.17
2020-08-13 11:56:24.1050,-0.6,-0.24,-0.08
2020-08-13 11:56:24.2040,-0.72,-0.04,-0.08
2020-08-13 11:56:24.2700,-0.94,-0.03,-0.15
2020-08-13 11:56:24.3600,0.33,-0.16,0.16
2020-08-13 11:56:24.4500,-0.55,-0.06,0.16
2020-08-13 11:56:24.5290,-0.08,0.01,0.02
2020-08-13 11:56:24.6280,0.0,-0.01,0.01
2020-08-13 11:56:24.7090,-0.04,0.04,-0.03
2020-08-13 11:56:24.8080,-0.03,0.03,-0.04
2020-08-13 11:56:24.9050,-0.02,0.02,0.01
2020-08-13 11:56:25.0000,-0.0,0.01,-0.01
2020-08-13 11:56:25.1020,0.0,0.0,-0.02
2020-08-13 11:56:25.1570,0.01,-0.01,-0.02
2020-08-13 11:56:25.2610,0.06,-0.12,-0.06
2020-08-13 11:56:25.3510,0.21,-0.34,0.07
2020-08-13 11:56:25.4410,0.39,-0.31,-0.02
2020-08-13 11:56:25.5310,0.04,0.0,0.04
2020-08-13 11:56:25.6210,0.89,0.3,-0.03
2020-08-13 11:56:25.7100,0.66,0.24,-0.09
2020-08-13 11:56:25.8100,0.19,-0.26,0.05
2020-08-13 11:56:25.9010,-0.18,-0.31,0.07
2020-08-13 11:56:25.9960,-0.42,-0.25,0.1
2020-08-13 11:56:26.0930,-0.72,-0.11,-0.06
2020-08-13 11:56:26.1920,-0.67,0.04,-0.03
2020-08-13 11:56:26.2890,-0.67,0.04,-0.12
2020-08-13 11:56:26.3440,0.05,-0.46,0.02
2020-08-13 11:56:26.4340,-0.19,0.04,0.16
2020-08-13 11:56:26.5240,-0.05,-0.01,-0.07
2020-08-13 11:56:26.6210,-0.05,-0.0,-0.01
2020-08-13 11:56:26.7050,-0.08,0.05,0.0
2020-08-13 11:56:26.8020,-0.06,0.01,-0.04
2020-08-13 11:56:26.8960,0.05,0.04,0.04
2020-08-13 11:56:26.9900,0.06,0.0,-0.03
2020-08-13 11:56:27.0820,0.01,-0.0,-0.01
2020-08-13 11:56:27.1910,0.03,-0.04,-0.03
2020-08-13 11:56:27.2570,0.02,-0.14,0.01
2020-08-13 11:56:27.3360,0.24,-0.42,0.03
2020-08-13 11:56:27.4260,0.42,-0.27,0.15
2020-08-13 11:56:27.5150,0.16,0.16,0.16
2020-08-13 11:56:27.6040,0.74,0.3,-0.06
2020-08-13 11:56:27.6940,0.41,-0.0,0.03
2020-08-13 11:56:27.7860,0.08,-0.17,0.04
2020-08-13 11:56:27.8770,-0.22,-0.3,0.04
2020-08-13 11:56:27.9750,-0.53,-0.26,0.06
2020-08-13 11:56:28.0740,-0.94,-0.13,0.01
2020-08-13 11:56:28.1830,-0.74,0.02,-0.05
2020-08-13 11:56:28.2470,0.33,-0.4,-0.33
2020-08-13 11:56:28.3360,-0.91,-0.22,0.1
2020-08-13 11:56:28.4270,0.02,-0.02,-0.12
2020-08-13 11:56:28.5160,0.05,0.01,-0.04
2020-08-13 11:56:28.6070,-0.04,0.03,-0.0
2020-08-13 11:56:28.7110,-0.0,0.03,0.01
2020-08-13 11:56:28.7940,-0.03,0.03,-0.01
2020-08-13 11:56:28.8920,0.02,0.03,-0.02
2020-08-13 11:56:28.9820,-0.03,0.0,-0.02
2020-08-13 11:56:29.0720,0.02,-0.06,-0.01
2020-08-13 11:56:29.1730,0.17,-0.29,0.03
2020-08-13 11:56:29.2660,0.32,-0.32,0.02
2020-08-13 11:56:29.3650,0.15,-0.16,0.08
2020-08-13 11:56:29.4290,0.37,0.1,0.2
2020-08-13 11:56:29.5180,0.63,0.24,-0.02
2020-08-13 11:56:29.6000,0.36,-0.06,-0.01
2020-08-13 11:56:29.6960,0.02,-0.18,0.12
2020-08-13 11:56:29.7910,-0.22,-0.21,0.08
2020-08-13 11:56:29.8820,-0.5,-0.25,-0.09
2020-08-13 11:56:29.9720,-1.01,-0.11,0.0
2020-08-13 11:56:30.0610,-0.53,-0.25,-0.27
2020-08-13 11:56:30.1600,0.17,-0.24,-0.13
2020-08-13 11:56:30.2580,-0.38,-0.01,0.04
2020-08-13 11:56:30.3570,-0.14,0.03,0.08
2020-08-13 11:56:30.4560,-0.05,0.03,-0.0
2020-08-13 11:56:30.5270,0.01,0.05,0.03
2020-08-13 11:56:30.6100,-0.07,-0.01,-0.04
2020-08-13 11:56:30.6970,-0.03,-0.01,-0.01
2020-08-13 11:56:30.7900,0.02,0.02,-0.02
2020-08-13 11:56:30.8800,-0.01,-0.01,-0.01
2020-08-13 11:56:30.9770,0.03,-0.04,-0.01
2020-08-13 11:56:31.0580,0.06,-0.26,-0.05
2020-08-13 11:56:31.1520,0.33,-0.26,0.05
2020-08-13 11:56:31.2520,0.3,-0.27,0.25
2020-08-13 11:56:31.3600,0.14,0.06,0.2
2020-08-13 11:56:31.4500,0.62,0.27,-0.03
2020-08-13 11:56:31.5050,0.37,0.03,-0.04
2020-08-13 11:56:31.5950,0.05,-0.14,0.08
2020-08-13 11:56:31.6970,-0.19,-0.14,0.02
2020-08-13 11:56:31.7870,-0.42,-0.28,-0.04
2020-08-13 11:56:31.8760,-0.89,-0.16,-0.1
2020-08-13 11:56:31.9670,-0.91,-0.06,-0.22
2020-08-13 11:56:32.0570,0.09,-0.38,0.06
2020-08-13 11:56:32.1480,-0.25,0.01,0.09
2020-08-13 11:56:32.2440,-0.05,0.0,-0.09
2020-08-13 11:56:32.3530,-0.16,-0.05,0.03
2020-08-13 11:56:32.4430,-0.09,0.02,-0.01
2020-08-13 11:56:32.5410,-0.04,0.01,-0.06
2020-08-13 11:56:32.5960,0.0,0.0,-0.0
2020-08-13 11:56:32.6860,-0.01,0.01,-0.04
2020-08-13 11:56:32.7760,-0.03,-0.0,-0.04
2020-08-13 11:56:32.8660,0.02,-0.04,-0.02
2020-08-13 11:56:32.9570,0.08,-0.13,-0.03
2020-08-13 11:56:33.0460,0.19,-0.25,-0.04
2020-08-13 11:56:33.1380,0.28,-0.32,0.1
2020-08-13 11:56:33.2350,0.13,-0.2,0.04
2020-08-13 11:56:33.3350,0.87,0.19,-0.0
2020-08-13 11:56:33.4350,0.61,0.23,-0.03
2020-08-13 11:56:33.5320,0.2,-0.12,0.11
2020-08-13 11:56:33.5860,-0.15,-0.25,-0.02
2020-08-13 11:56:33.6790,-0.31,-0.27,0.05
2020-08-13 11:56:33.7670,-0.52,-0.22,-0.09
2020-08-13 11:56:33.8560,-0.73,-0.06,-0.17
2020-08-13 11:56:33.9470,-0.62,0.0,-0.09
2020-08-13 11:56:34.0370,-0.08,-0.3,-0.27
2020-08-13 11:56:34.1290,-0.14,0.08,0.16
2020-08-13 11:56:34.2300,0.02,-0.01,-0.15
2020-08-13 11:56:34.3370,-0.01,-0.0,-0.03
2020-08-13 11:56:34.4260,-0.05,0.0,-0.05
2020-08-13 11:56:34.5290,0.01,0.01,-0.0
2020-08-13 11:56:34.5870,0.01,-0.0,-0.01
2020-08-13 11:56:34.6710,0.01,0.03,-0.01
2020-08-13 11:56:34.7730,0.03,0.02,-0.01
2020-08-13 11:56:34.8660,-0.01,-0.02,-0.05
2020-08-13 11:56:34.9520,0.05,-0.08,-0.01
2020-08-13 11:56:35.0430,0.18,-0.25,0.03
2020-08-13 11:56:35.1330,0.29,-0.3,0.04
2020-08-13 11:56:35.2220,0.12,-0.11,0.11
2020-08-13 11:56:35.3290,0.84,0.2,-0.07
2020-08-13 11:56:35.4270,0.45,0.19,0.0
2020-08-13 11:56:35.5170,0.18,-0.05,-0.05
2020-08-13 11:56:35.6160,-0.04,-0.15,0.04
2020-08-13 11:56:35.6880,-0.3,-0.19,0.1
2020-08-13 11:56:35.7780,-0.52,-0.15,0.03
2020-08-13 11:56:35.8590,-0.92,-0.03,-0.07
2020-08-13 11:56:35.9430,0.02,-0.06,-0.0
2020-08-13 11:56:36.0360,-0.23,-0.02,-0.15
2020-08-13 11:56:36.1240,-0.16,0.06,-0.01
2020-08-13 11:56:36.2130,-0.1,0.05,0.08
2020-08-13 11:56:36.3120,-0.1,-0.01,-0.02
2020-08-13 11:56:36.4090,-0.09,0.02,-0.01
2020-08-13 11:56:36.5060,-0.01,-0.0,-0.01
2020-08-13 11:56:36.6090,0.01,-0.0,-0.02
2020-08-13 11:56:36.6620,-0.02,0.01,-0.01
2020-08-13 11:56:36.7690,-0.01,-0.0,-0.01
2020-08-13 11:56:36.8420,0.12,-0.04,-0.05
2020-08-13 11:56:36.9470,0.09,-0.09,0.06
2020-08-13 11:56:37.0280,0.29,-0.39,0.06
2020-08-13 11:56:37.1130,0.25,-0.34,0.17
2020-08-13 11:56:37.2040,0.34,0.09,0.08
2020-08-13 11:56:37.2940,0.5,0.33,0.06
2020-08-13 11:56:37.3920,0.27,0.03,-0.05
2020-08-13 11:56:37.4930,0.04,-0.15,0.03
2020-08-13 11:56:37.5910,-0.16,-0.16,0.13
2020-08-13 11:56:37.6530,-0.34,-0.21,0.11
2020-08-13 11:56:37.7450,-0.65,-0.1,-0.06
2020-08-13 11:56:37.8480,-0.62,-0.0,-0.17
2020-08-13 11:56:37.9320,0.73,-0.04,0.16
2020-08-13 11:56:38.0280,-0.36,-0.1,-0.18
2020-08-13 11:56:38.1190,-0.12,-0.02,-0.01
2020-08-13 11:56:38.1940,0.0,0.02,0.06
2020-08-13 11:56:38.2850,-0.01,0.02,-0.03
2020-08-13 11:56:38.3840,-0.04,0.04,0.0
2020-08-13 11:56:38.4830,-0.02,0.01,-0.01
2020-08-13 11:56:38.5940,-0.03,0.02,-0.05
2020-08-13 11:56:38.6830,-0.02,0.01,-0.02
2020-08-13 11:56:38.7350,-0.02,-0.02,-0.04
2020-08-13 11:56:38.8270,0.06,-0.05,0.04
2020-08-13 11:56:38.9280,0.17,-0.26,-0.02
2020-08-13 11:56:39.0180,0.25,-0.29,0.1
2020-08-13 11:56:39.1080,0.07,-0.1,0.1
2020-08-13 11:56:39.1990,0.48,0.09,0.21
2020-08-13 11:56:39.2870,0.55,0.22,0.04
2020-08-13 11:56:39.3940,0.17,-0.11,0.02
2020-08-13 11:56:39.4740,-0.04,-0.19,-0.04
2020-08-13 11:56:39.5740,-0.3,-0.18,0.04
2020-08-13 11:56:39.6740,-0.55,-0.16,-0.03
2020-08-13 11:56:39.7730,-0.71,-0.03,-0.09
2020-08-13 11:56:39.8730,-0.92,-0.17,-0.25
2020-08-13 11:56:39.9330,-0.07,-0.2,-0.22
2020-08-13 11:56:40.0230,-0.35,0.06,0.12
2020-08-13 11:56:40.1120,-0.15,-0.01,0.03
2020-08-13 11:56:40.1920,-0.03,-0.01,-0.02
2020-08-13 11:56:40.2830,-0.01,0.05,0.0
2020-08-13 11:56:40.3790,0.0,0.03,-0.03
2020-08-13 11:56:40.4730,-0.0,0.0,-0.02
2020-08-13 11:56:40.5650,0.03,0.02,-0.01
2020-08-13 11:56:40.6630,0.04,0.02,0.01
2020-08-13 11:56:40.7630,0.06,0.01,-0.0
2020-08-13 11:56:40.8740,0.03,-0.11,0.02
2020-08-13 11:56:40.9230,0.21,-0.28,-0.05
2020-08-13 11:56:41.0140,0.22,-0.16,0.11
2020-08-13 11:56:41.1030,0.31,-0.38,0.11
2020-08-13 11:56:41.1930,0.19,-0.04,0.03
2020-08-13 11:56:41.2860,0.77,0.33,-0.15
2020-08-13 11:56:41.3730,0.4,0.1,0.05
2020-08-13 11:56:41.4790,0.1,-0.18,-0.0
2020-08-13 11:56:41.5630,-0.19,-0.17,0.02
2020-08-13 11:56:41.6570,-0.45,-0.3,0.1
2020-08-13 11:56:41.7570,-0.89,-0.13,0.03
2020-08-13 11:56:41.8570,0.39,-0.05,-0.27
2020-08-13 11:56:41.9140,-0.07,-0.19,-0.06
2020-08-13 11:56:42.0050,-0.19,0.01,-0.04
2020-08-13 11:56:42.0940,-0.19,0.0,0.02
2020-08-13 11:56:42.1870,-0.03,0.03,-0.01
2020-08-13 11:56:42.2860,-0.03,0.01,0.02
2020-08-13 11:56:42.3760,-0.0,0.01,0.02
2020-08-13 11:56:42.4580,0.04,0.08,0.02
2020-08-13 11:56:42.5540,0.04,-0.0,-0.07
2020-08-13 11:56:42.6490,-0.03,-0.05,-0.05
2020-08-13 11:56:42.7480,0.03,-0.06,0.04
2020-08-13 11:56:42.8510,0.12,-0.21,0.06
2020-08-13 11:56:42.9050,0.26,-0.32,0.07
2020-08-13 11:56:42.9950,0.6,-0.37,0.09
2020-08-13 11:56:43.0850,0.04,0.17,0.08
2020-08-13 11:56:43.1750,0.47,0.29,0.04
2020-08-13 11:56:43.2780,0.27,0.03,-0.02
2020-08-13 11:56:43.3660,0.08,-0.19,-0.03
2020-08-13 11:56:43.4550,-0.24,-0.3,0.03
2020-08-13 11:56:43.5450,-0.55,-0.27,-0.05
2020-08-13 11:56:43.6430,-0.98,-0.05,-0.06
2020-08-13 11:56:43.7400,0.69,0.1,0.16
2020-08-13 11:56:43.8400,-0.21,-0.12,-0.32
2020-08-13 11:56:43.9390,-0.01,0.09,0.09
2020-08-13 11:56:43.9990,-0.01,0.04,-0.0
2020-08-13 11:56:44.0890,-0.02,-0.0,-0.04
2020-08-13 11:56:44.1790,-0.03,0.02,-0.0
2020-08-13 11:56:44.2700,-0.02,0.02,-0.02
2020-08-13 11:56:44.3590,0.04,0.01,-0.01
2020-08-13 11:56:44.4490,-0.0,0.01,-0.03
2020-08-13 11:56:44.5390,-0.01,0.01,0.01
2020-08-13 11:56:44.6460,-0.0,-0.02,-0.02
2020-08-13 11:56:44.7440,0.08,-0.14,-0.01
2020-08-13 11:56:44.8300,0.19,-0.28,-0.03
2020-08-13 11:56:44.9290,0.31,-0.18,0.05
2020-08-13 11:56:44.9890,0.07,-0.21,0.13
2020-08-13 11:56:45.0790,0.93,0.16,0.12
2020-08-13 11:56:45.1690,0.57,0.3,-0.01
2020-08-13 11:56:45.2600,0.16,-0.12,-0.03
2020-08-13 11:56:45.3550,-0.18,-0.18,0.04
2020-08-13 11:56:45.4550,-0.37,-0.24,-0.03
2020-08-13 11:56:45.5450,-0.63,-0.19,-0.07
2020-08-13 11:56:45.6350,-0.98,-0.06,-0.04
2020-08-13 11:56:45.7330,-0.17,-0.48,-0.3
2020-08-13 11:56:45.8230,-0.18,-0.04,0.17
2020-08-13 11:56:45.9210,-0.06,-0.02,-0.17
2020-08-13 11:56:46.0200,-0.11,0.0,0.08
2020-08-13 11:56:46.0740,-0.05,-0.03,-0.07
2020-08-13 11:56:46.1720,-0.03,0.06,0.01
2020-08-13 11:56:46.2500,0.01,0.05,0.01
2020-08-13 11:56:46.3500,0.02,0.02,-0.0
2020-08-13 11:56:46.4340,0.0,0.02,-0.02
2020-08-13 11:56:46.5340,-0.03,0.0,-0.02
2020-08-13 11:56:46.6260,-0.03,-0.05,0.0
2020-08-13 11:56:46.7150,0.07,-0.16,-0.03
2020-08-13 11:56:46.8120,0.24,-0.28,-0.02
2020-08-13 11:56:46.9110,0.38,-0.2,0.06
2020-08-13 11:56:46.9850,0.34,-0.21,0.11
2020-08-13 11:56:47.1100,0.88,0.19,0.08
2020-08-13 11:56:47.1650,0.61,0.25,-0.11
2020-08-13 11:56:47.2560,0.28,-0.06,-0.04
2020-08-13 11:56:47.3600,-0.24,-0.34,-0.02
2020-08-13 11:56:47.4500,-0.51,-0.29,0.12
2020-08-13 11:56:47.5400,-0.88,-0.16,-0.0
2020-08-13 11:56:47.6300,-0.76,0.05,0.02
2020-08-13 11:56:47.7190,-0.18,-0.5,-0.14
2020-08-13 11:56:47.8070,-0.29,0.11,0.23
2020-08-13 11:56:47.9030,0.02,-0.0,-0.08
2020-08-13 11:56:48.0150,-0.06,0.01,0.03
2020-08-13 11:56:48.1030,-0.02,0.03,0.03
2020-08-13 11:56:48.1580,-0.04,0.03,-0.02
2020-08-13 11:56:48.2540,-0.01,-0.0,-0.0
2020-08-13 11:56:48.3490,0.02,0.04,-0.01
2020-08-13 11:56:48.4390,-0.03,0.02,-0.02
2020-08-13 11:56:48.5290,-0.05,-0.03,-0.01
2020-08-13 11:56:48.6210,0.04,-0.13,-0.04
2020-08-13 11:56:48.7100,0.07,-0.25,-0.0
2020-08-13 11:56:48.8010,0.26,-0.11,0.08
2020-08-13 11:56:48.9060,0.09,-0.16,0.04
2020-08-13 11:56:48.9950,0.86,0.09,0.02
2020-08-13 11:56:49.0930,0.56,0.24,-0.02
2020-08-13 11:56:49.1920,0.25,-0.03,-0.06
2020-08-13 11:56:49.2920,-0.08,-0.22,0.01
2020-08-13 11:56:49.3400,-0.4,-0.26,0.11
2020-08-13 11:56:49.4300,-0.57,-0.12,-0.02
2020-08-13 11:56:49.5200,-0.82,-0.04,-0.1
2020-08-13 11:56:49.6110,-0.51,-0.06,-0.0
2020-08-13 11:56:49.7010,-0.23,-0.38,-0.3
2020-08-13 11:56:49.7910,-0.13,0.08,0.22
2020-08-13 11:56:49.8970,-0.11,-0.02,-0.1
2020-08-13 11:56:49.9850,-0.04,-0.0,0.03
2020-08-13 11:56:50.0860,-0.04,0.01,-0.01
2020-08-13 11:56:50.1830,-0.07,0.03,-0.02
2020-08-13 11:56:50.2830,-0.01,0.01,0.0
2020-08-13 11:56:50.3460,0.02,0.02,0.0
2020-08-13 11:56:50.4260,0.01,0.01,-0.02
2020-08-13 11:56:50.5150,-0.02,-0.04,-0.0
2020-08-13 11:56:50.6040,-0.01,-0.21,-0.03
2020-08-13 11:56:50.7030,0.21,-0.3,0.06
2020-08-13 11:56:50.7840,0.36,-0.15,0.01
2020-08-13 11:56:50.8810,0.27,-0.21,0.13
2020-08-13 11:56:50.9770,0.86,0.17,0.08
2020-08-13 11:56:51.0740,0.69,0.31,-0.01
2020-08-13 11:56:51.1740,0.27,-0.12,-0.07
2020-08-13 11:56:51.2460,-0.18,-0.27,-0.02
2020-08-13 11:56:51.3360,-0.41,-0.26,0.15
2020-08-13 11:56:51.4250,-0.76,-0.15,0.05
2020-08-13 11:56:51.5160,-0.81,-0.02,-0.14
2020-08-13 11:56:51.6060,0.66,-0.02,-0.1
2020-08-13 11:56:51.6950,-0.29,-0.14,-0.13
2020-08-13 11:56:51.7850,-0.07,0.04,-0.16
2020-08-13 11:56:51.8750,-0.05,0.04,0.12
2020-08-13 11:56:51.9680,-0.05,-0.04,-0.05
2020-08-13 11:56:52.0670,-0.04,0.04,0.01
2020-08-13 11:56:52.1660,-0.0,0.02,0.01
2020-08-13 11:56:52.2650,0.06,0.02,-0.01
2020-08-13 11:56:52.3260,-0.01,0.02,-0.03
2020-08-13 11:56:52.4270,-0.01,0.01,-0.04
2020-08-13 11:56:52.5100,0.02,-0.03,-0.04
2020-08-13 11:56:52.6050,0.09,-0.2,-0.02
2020-08-13 11:56:52.7010,0.17,-0.21,0.04
2020-08-13 11:56:52.7780,0.24,-0.15,0.05
2020-08-13 11:56:52.8810,0.22,-0.24,0.1
2020-08-13 11:56:52.9710,0.95,0.2,0.07
2020-08-13 11:56:53.0620,0.57,0.21,-0.07
2020-08-13 11:56:53.1610,0.19,-0.12,-0.06
2020-08-13 11:56:53.2560,-0.13,-0.28,0.05
2020-08-13 11:56:53.3200,-0.49,-0.29,0.16
2020-08-13 11:56:53.4180,-0.74,-0.15,-0.01
2020-08-13 11:56:53.5080,-0.77,0.02,-0.08
2020-08-13 11:56:53.5910,1.23,-0.04,0.17
2020-08-13 11:56:53.6860,-0.1,-0.1,-0.1
2020-08-13 11:56:53.7700,-0.23,-0.02,-0.06
2020-08-13 11:56:53.8710,-0.12,0.04,0.12
2020-08-13 11:56:53.9540,0.01,0.01,-0.04
2020-08-13 11:56:54.0510,-0.07,0.03,0.01
2020-08-13 11:56:54.1500,-0.02,0.04,-0.03
2020-08-13 11:56:54.2480,-0.0,-0.02,-0.03
2020-08-13 11:56:54.3470,-0.01,0.02,-0.01
2020-08-13 11:56:54.4100,-0.01,0.0,-0.02
2020-08-13 11:56:54.4990,0.01,-0.04,-0.02
2020-08-13 11:56:54.5880,0.11,-0.19,0.04
2020-08-13 11:56:54.6690,0.25,-0.29,0.08
2020-08-13 11:56:54.7570,0.41,-0.36,0.1
2020-08-13 11:56:54.8500,0.03,-0.14,0.03
2020-08-13 11:56:54.9670,0.65,0.3,-0.03
2020-08-13 11:56:55.0510,0.4,0.08,-0.04
2020-08-13 11:56:55.1420,-0.01,-0.16,0.07
2020-08-13 11:56:55.2430,-0.38,-0.21,0.09
2020-08-13 11:56:55.3410,-0.41,-0.1,0.03
2020-08-13 11:56:55.4020,-0.53,-0.12,-0.03
2020-08-13 11:56:55.4920,-0.76,-0.05,-0.04
2020-08-13 11:56:55.5820,1.07,-0.07,-0.04
2020-08-13 11:56:55.6820,-0.39,-0.06,0.17
2020-08-13 11:56:55.7680,0.03,0.01,-0.15
2020-08-13 11:56:55.8600,-0.04,0.01,0.07
2020-08-13 11:56:55.9500,0.0,0.02,-0.03
2020-08-13 11:56:56.0470,-0.02,0.03,0.03
2020-08-13 11:56:56.1480,-0.03,0.01,0.02
2020-08-13 11:56:56.2350,-0.01,0.0,-0.03
2020-08-13 11:56:56.3330,0.0,0.0,-0.03
2020-08-13 11:56:56.4320,0.03,0.03,-0.0
2020-08-13 11:56:56.5300,0.01,-0.06,0.01
2020-08-13 11:56:56.5860,0.08,-0.28,0.01
2020-08-13 11:56:56.6760,0.19,-0.3,0.08
2020-08-13 11:56:56.7660,0.41,-0.4,0.15
2020-08-13 11:56:56.8560,0.13,-0.05,0.07
2020-08-13 11:56:56.9460,0.58,0.16,-0.02
2020-08-13 11:56:57.0370,0.47,0.13,-0.03
2020-08-13 11:56:57.1360,0.07,-0.09,0.07
2020-08-13 11:56:57.2240,-0.23,-0.12,0.06
2020-08-13 11:56:57.3230,-0.46,-0.26,0.09
2020-08-13 11:56:57.4220,-0.77,-0.17,-0.02
2020-08-13 11:56:57.5210,-0.65,0.0,-0.05
2020-08-13 11:56:57.6190,1.03,-0.29,0.21
2020-08-13 11:56:57.6820,0.03,0.11,0.09
2020-08-13 11:56:57.7720,0.01,-0.03,-0.25
2020-08-13 11:56:57.8620,-0.14,0.03,0.11
2020-08-13 11:56:57.9370,0.06,0.02,0.01
2020-08-13 11:56:58.0300,-0.03,0.03,-0.01
2020-08-13 11:56:58.1290,-0.16,-0.06,-0.01
2020-08-13 11:56:58.2140,0.0,0.03,0.02
2020-08-13 11:56:58.3140,0.01,0.04,0.01
2020-08-13 11:56:58.4140,0.01,0.01,-0.04
2020-08-13 11:56:58.5150,0.04,-0.05,-0.03
2020-08-13 11:56:58.6120,0.17,-0.26,0.01
2020-08-13 11:56:58.7110,0.27,-0.23,0.03
2020-08-13 11:56:58.7620,0.41,-0.32,0.16
2020-08-13 11:56:58.8560,0.22,0.07,0.31
2020-08-13 11:56:58.9460,0.52,0.34,0.04
2020-08-13 11:56:59.0340,0.37,0.03,-0.09
2020-08-13 11:56:59.1250,0.05,-0.19,-0.02
2020-08-13 11:56:59.2150,-0.21,-0.28,0.06
2020-08-13 11:56:59.3110,-0.57,-0.27,0.04
2020-08-13 11:56:59.4160,-0.73,-0.05,-0.08
2020-08-13 11:56:59.5050,-0.86,-0.01,-0.14
2020-08-13 11:56:59.6060,-0.13,-0.24,-0.15
2020-08-13 11:56:59.6780,-0.17,0.1,0.14
2020-08-13 11:56:59.7580,-0.11,-0.01,-0.08
2020-08-13 11:56:59.8480,-0.04,0.0,0.02
2020-08-13 11:56:59.9360,-0.01,0.04,0.04
2020-08-13 11:57:00.0250,0.0,0.04,-0.03
2020-08-13 11:57:00.1150,-0.03,0.01,-0.03
2020-08-13 11:57:00.2050,0.0,0.03,0.01
2020-08-13 11:57:00.3030,0.01,0.02,-0.01
2020-08-13 11:57:00.4070,-0.02,-0.0,-0.0
2020-08-13 11:57:00.4980,-0.01,-0.08,-0.0
2020-08-13 11:57:00.5960,0.12,-0.23,0.01
2020-08-13 11:57:00.6950,0.29,-0.36,0.08
2020-08-13 11:57:00.7580,0.38,-0.31,0.13
2020-08-13 11:57:00.8470,0.46,0.11,0.23
2020-08-13 11:57:00.9380,0.65,0.3,-0.01
2020-08-13 11:57:01.0420,0.17,-0.06,0.01
2020-08-13 11:57:01.1250,-0.04,-0.21,0.12
2020-08-13 11:57:01.2230,-0.3,-0.3,0.07
2020-08-13 11:57:01.2980,-0.53,-0.13,0.03
2020-08-13 11:57:01.4030,-0.67,-0.02,-0.08
2020-08-13 11:57:01.4910,-0.73,-0.01,-0.11
2020-08-13 11:57:01.5870,-0.25,-0.42,-0.03
2020-08-13 11:57:01.6860,-0.28,0.04,0.09
2020-08-13 11:57:01.7850,-0.05,0.0,-0.1
2020-08-13 11:57:01.8410,-0.02,0.02,0.02
2020-08-13 11:57:01.9370,0.0,0.07,0.04
2020-08-13 11:57:02.0330,-0.02,-0.0,-0.03
2020-08-13 11:57:02.1090,-0.03,0.0,-0.02
2020-08-13 11:57:02.2130,-0.0,0.03,-0.02
2020-08-13 11:57:02.2940,0.02,0.02,-0.03
2020-08-13 11:57:02.3930,0.05,-0.04,-0.05
2020-08-13 11:57:02.4830,0.09,-0.16,-0.02
2020-08-13 11:57:02.5810,0.27,-0.28,0.02
2020-08-13 11:57:02.6770,0.36,-0.23,0.11
2020-08-13 11:57:02.7760,0.23,-0.16,0.1
2020-08-13 11:57:02.8320,0.94,0.27,-0.02
2020-08-13 11:57:02.9280,0.46,0.25,-0.04
2020-08-13 11:57:03.0120,0.22,-0.1,-0.04
2020-08-13 11:57:03.1270,-0.22,-0.28,0.05
2020-08-13 11:57:03.2080,-0.49,-0.28,0.09
2020-08-13 11:57:03.2930,-0.79,-0.12,-0.0
2020-08-13 11:57:03.3840,-0.69,0.04,-0.05
2020-08-13 11:57:03.4730,0.92,-0.11,-0.18
2020-08-13 11:57:03.5750,-0.3,-0.11,-0.01
2020-08-13 11:57:03.6690,-0.11,-0.08,-0.26
2020-08-13 11:57:03.7680,-0.02,0.05,0.09
2020-08-13 11:57:03.8730,0.09,0.02,0.01
2020-08-13 11:57:03.9660,-0.08,-0.02,-0.05
2020-08-13 11:57:04.0290,-0.03,0.05,0.03
2020-08-13 11:57:04.1100,-0.02,0.0,-0.01
2020-08-13 11:57:04.2000,0.03,0.01,-0.01
2020-08-13 11:57:04.2840,0.02,0.02,-0.01
2020-08-13 11:57:04.3740,-0.0,-0.03,-0.02
2020-08-13 11:57:04.4680,0.03,-0.16,-0.02
2020-08-13 11:57:04.5610,0.25,-0.36,0.02
2020-08-13 11:57:04.6600,0.37,-0.28,0.2
2020-08-13 11:57:04.7590,0.17,-0.09,0.16
2020-08-13 11:57:04.8620,0.71,0.4,-0.06
2020-08-13 11:57:04.9150,0.43,0.23,-0.11
2020-08-13 11:57:05.0120,0.03,-0.18,0.12
2020-08-13 11:57:05.1090,-0.17,-0.17,0.07
2020-08-13 11:57:05.1900,-0.34,-0.17,0.04
2020-08-13 11:57:05.2890,-0.47,-0.2,-0.08
2020-08-13 11:57:05.3640,-0.64,-0.01,-0.12
2020-08-13 11:57:05.4630,-0.73,-0.0,-0.07
2020-08-13 11:57:05.5530,-0.36,-0.42,-0.11
2020-08-13 11:57:05.6520,-0.44,0.0,0.22
2020-08-13 11:57:05.7500,-0.06,0.01,0.06
2020-08-13 11:57:05.8520,-0.02,0.02,-0.02
2020-08-13 11:57:05.9060,0.01,0.03,0.03
2020-08-13 11:57:06.0080,-0.11,-0.04,-0.06
2020-08-13 11:57:06.0980,-0.02,0.01,0.0
2020-08-13 11:57:06.1890,0.04,0.03,-0.03
2020-08-13 11:57:06.2780,-0.03,0.0,0.03
2020-08-13 11:57:06.3680,-0.01,-0.06,-0.03
2020-08-13 11:57:06.4590,0.06,-0.21,-0.02
2020-08-13 11:57:06.5480,0.19,-0.27,0.07
2020-08-13 11:57:06.6490,0.3,-0.31,0.26
2020-08-13 11:57:06.7360,0.28,0.12,0.19
2020-08-13 11:57:06.8340,0.66,0.26,0.01
2020-08-13 11:57:06.9430,0.4,0.04,-0.05
2020-08-13 11:57:06.9980,0.08,-0.1,0.1
2020-08-13 11:57:07.0880,-0.17,-0.23,-0.02
2020-08-13 11:57:07.1780,-0.48,-0.17,0.06
2020-08-13 11:57:07.2680,-0.6,-0.11,-0.03
2020-08-13 11:57:07.3590,-0.75,-0.03,-0.06
2020-08-13 11:57:07.4480,0.75,-0.1,0.01
2020-08-13 11:57:07.5390,-0.06,-0.05,0.05
2020-08-13 11:57:07.6280,-0.04,0.02,-0.11
2020-08-13 11:57:07.7270,-0.11,0.02,0.09
2020-08-13 11:57:07.8310,-0.04,0.02,-0.0
2020-08-13 11:57:07.9240,-0.06,0.02,-0.01
2020-08-13 11:57:08.0230,-0.01,0.03,0.0
2020-08-13 11:57:08.1220,-0.09,-0.04,-0.06
2020-08-13 11:57:08.1770,-0.02,0.01,-0.0
2020-08-13 11:57:08.2750,0.01,-0.01,0.03
2020-08-13 11:57:08.3630,0.05,-0.08,-0.02
2020-08-13 11:57:08.4530,0.13,-0.26,-0.02
2020-08-13 11:57:08.5430,0.31,-0.29,0.13
2020-08-13 11:57:08.6340,0.06,-0.03,0.01
2020-08-13 11:57:08.7220,0.73,0.08,0.09
2020-08-13 11:57:08.8280,0.51,0.33,0.14
2020-08-13 11:57:08.9170,0.34,-0.14,-0.05
2020-08-13 11:57:09.0170,-0.06,-0.24,0.07
2020-08-13 11:57:09.0800,-0.26,-0.25,0.05
2020-08-13 11:57:09.1750,-0.49,-0.19,-0.05
2020-08-13 11:57:09.2640,-0.76,-0.07,-0.07
2020-08-13 11:57:09.3540,-0.88,-0.03,-0.09
2020-08-13 11:57:09.4450,-0.25,-0.47,0.03
2020-08-13 11:57:09.5370,-0.21,0.0,0.21
2020-08-13 11:57:09.6260,-0.03,-0.02,-0.15
2020-08-13 11:57:09.7160,-0.07,-0.01,-0.07
2020-08-13 11:57:09.8100,-0.09,0.03,0.03
2020-08-13 11:57:09.9090,-0.03,0.0,-0.04
2020-08-13 11:57:10.0080,-0.03,0.01,0.0
2020-08-13 11:57:10.1110,-0.0,0.01,-0.03
2020-08-13 11:57:10.2060,0.0,0.01,-0.02
2020-08-13 11:57:10.2690,0.01,-0.04,-0.03
2020-08-13 11:57:10.3580,0.05,-0.16,0.02
2020-08-13 11:57:10.4480,0.3,-0.39,0.09
2020-08-13 11:57:10.5360,0.35,-0.27,0.08
2020-08-13 11:57:10.6260,0.17,0.21,0.09
2020-08-13 11:57:10.7090,0.55,0.31,-0.05
2020-08-13 11:57:10.8040,0.41,0.03,-0.02
2020-08-13 11:57:10.9000,0.04,-0.16,0.04
2020-08-13 11:57:11.0000,-0.22,-0.22,0.09
2020-08-13 11:57:11.1000,-0.39,-0.22,0.08
2020-08-13 11:57:11.1980,-0.56,-0.08,-0.04
2020-08-13 11:57:11.2600,-0.74,-0.02,-0.08
2020-08-13 11:57:11.3500,0.4,-0.04,-0.05
2020-08-13 11:57:11.4510,-0.16,0.01,0.18
2020-08-13 11:57:11.5380,0.01,-0.01,-0.2
2020-08-13 11:57:11.6280,-0.1,0.03,0.09
2020-08-13 11:57:11.7250,-0.0,0.0,0.01
2020-08-13 11:57:11.8070,-0.03,0.04,0.01
2020-08-13 11:57:11.9050,0.05,0.07,-0.02
2020-08-13 11:57:11.9910,0.01,0.01,0.01
2020-08-13 11:57:12.0900,0.0,0.02,-0.01
2020-08-13 11:57:12.1890,-0.01,-0.0,0.01
2020-08-13 11:57:12.2880,0.04,-0.06,-0.02
2020-08-13 11:57:12.3510,0.1,-0.21,-0.0
2020-08-13 11:57:12.4400,0.21,-0.29,0.07
2020-08-13 11:57:12.5340,0.39,-0.39,0.2
2020-08-13 11:57:12.6250,0.2,0.03,0.04
2020-08-13 11:57:12.7150,0.76,0.31,-0.11
2020-08-13 11:57:12.8040,0.43,0.15,0.01
2020-08-13 11:57:12.8950,0.12,-0.17,0.0
2020-08-13 11:57:12.9850,-0.29,-0.25,-0.0
2020-08-13 11:57:13.0850,-0.44,-0.18,0.14
2020-08-13 11:57:13.1800,-0.54,-0.1,-0.07
2020-08-13 11:57:13.2790,-0.72,0.0,0.04
2020-08-13 11:57:13.3800,0.81,-0.08,-0.16
2020-08-13 11:57:13.4370,-0.13,-0.06,0.01
2020-08-13 11:57:13.5400,-0.16,-0.0,-0.16
2020-08-13 11:57:13.6300,-0.2,0.02,0.08
2020-08-13 11:57:13.7060,-0.07,0.03,0.04
2020-08-13 11:57:13.7960,-0.05,0.02,-0.03
2020-08-13 11:57:13.8850,-0.03,0.01,0.01
2020-08-13 11:57:13.9910,-0.0,0.01,-0.01
2020-08-13 11:57:14.0800,0.0,0.02,-0.02
2020-08-13 11:57:14.1780,-0.01,-0.02,-0.02
2020-08-13 11:57:14.2750,0.03,-0.03,-0.01
2020-08-13 11:57:14.3740,0.05,-0.11,-0.0
2020-08-13 11:57:14.4280,0.24,-0.32,-0.03
2020-08-13 11:57:14.5260,0.34,-0.27,0.06
2020-08-13 11:57:14.6080,0.21,-0.08,0.07
2020-08-13 11:57:14.7100,0.61,0.2,-0.17
2020-08-13 11:57:14.7880,0.57,0.27,-0.03
2020-08-13 11:57:14.8810,0.33,-0.02,-0.03
2020-08-13 11:57:14.9800,-0.1,-0.28,0.12
2020-08-13 11:57:15.0690,-0.34,-0.2,0.1
2020-08-13 11:57:15.1670,-0.56,-0.15,-0.07
2020-08-13 11:57:15.2680,-0.72,-0.05,-0.24
2020-08-13 11:57:15.3660,-0.43,-0.11,0.27
2020-08-13 11:57:15.4300,-0.21,-0.09,-0.36
2020-08-13 11:57:15.5210,-0.19,0.02,-0.02
2020-08-13 11:57:15.6200,-0.09,0.05,0.11
2020-08-13 11:57:15.7160,-0.0,0.01,-0.04
2020-08-13 11:57:15.7920,-0.05,0.02,-0.03
2020-08-13 11:57:15.8870,-0.01,0.03,-0.01
2020-08-13 11:57:15.9710,-0.02,0.01,-0.04
2020-08-13 11:57:16.0690,-0.0,0.01,-0.02
2020-08-13 11:57:16.1660,-0.01,0.0,0.0
2020-08-13 11:57:16.2640,-0.02,-0.06,-0.03
2020-08-13 11:57:16.3510,0.09,-0.22,0.02
2020-08-13 11:57:16.4500,0.22,-0.31,0.03
2020-08-13 11:57:16.5490,0.12,-0.27,0.27
2020-08-13 11:57:16.6120,0.18,0.03,0.19
2020-08-13 11:57:16.6990,0.6,0.22,0.13
2020-08-13 11:57:16.7840,0.3,0.03,-0.12
2020-08-13 11:57:16.8790,0.15,-0.15,0.02
2020-08-13 11:57:16.9710,-0.26,-0.22,0.15
2020-08-13 11:57:17.0620,-0.48,-0.19,-0.01
2020-08-13 11:57:17.1560,-0.63,-0.15,-0.16
2020-08-13 11:57:17.2530,-0.81,-0.07,-0.17
2020-08-13 11:57:17.3430,1.04,-0.12,-0.06
2020-08-13 11:57:17.4460,-0.3,-0.09,-0.01
2020-08-13 11:57:17.5430,-0.11,-0.05,-0.2
2020-08-13 11:57:17.6060,-0.03,0.03,0.06
2020-08-13 11:57:17.6950,-0.04,0.03,0.0
2020-08-13 11:57:17.7860,-0.04,0.03,-0.02
2020-08-13 11:57:17.8760,0.03,0.02,0.01
2020-08-13 11:57:17.9650,0.01,0.05,-0.06
2020-08-13 11:57:18.0560,0.02,0.01,-0.01
2020-08-13 11:57:18.1450,-0.03,-0.04,-0.02
2020-08-13 11:57:18.2510,0.05,-0.14,-0.06
2020-08-13 11:57:18.3410,0.2,-0.27,0.03
2020-08-13 11:57:18.4460,0.31,-0.27,0.15
2020-08-13 11:57:18.5350,0.06,-0.13,0.08
2020-08-13 11:57:18.6340,0.91,0.2,-0.06
2020-08-13 11:57:18.6880,0.59,0.26,-0.03
2020-08-13 11:57:18.7880,0.16,-0.08,-0.04
2020-08-13 11:57:18.8780,-0.05,-0.21,-0.02
2020-08-13 11:57:18.9600,-0.31,-0.24,0.06
2020-08-13 11:57:19.0570,-0.49,-0.12,-0.06
2020-08-13 11:57:19.1410,-0.75,-0.05,-0.07
2020-08-13 11:57:19.2410,-0.77,-0.21,-0.25
2020-08-13 11:57:19.3300,-0.13,-0.25,-0.01
2020-08-13 11:57:19.4280,-0.01,0.02,-0.01
2020-08-13 11:57:19.5280,-0.08,0.03,-0.0
2020-08-13 11:57:19.6270,-0.01,0.02,-0.01
2020-08-13 11:57:19.6910,-0.06,0.02,-0.03
2020-08-13 11:57:19.7810,-0.03,0.03,-0.03
2020-08-13 11:57:19.8570,0.01,0.01,-0.01
2020-08-13 11:57:19.9580,-0.04,-0.02,-0.01
2020-08-13 11:57:20.0400,0.02,-0.01,-0.02
2020-08-13 11:57:20.1570,0.02,-0.07,-0.04
2020-08-13 11:57:20.2300,0.12,-0.27,-0.01
2020-08-13 11:57:20.3220,0.33,-0.34,0.05
2020-08-13 11:57:20.4220,0.37,-0.25,0.22
2020-08-13 11:57:20.5220,0.06,0.2,0.24
2020-08-13 11:57:20.6280,0.6,0.23,-0.02
2020-08-13 11:57:20.6820,0.42,0.03,-0.06
2020-08-13 11:57:20.7720,0.03,-0.06,0.06
2020-08-13 11:57:20.8690,-0.23,-0.24,0.01
2020-08-13 11:57:20.9610,-0.49,-0.17,0.07
2020-08-13 11:57:21.0510,-0.7,-0.11,-0.13
2020-08-13 11:57:21.1470,-0.78,0.02,0.03
2020-08-13 11:57:21.2290,-0.48,-0.21,-0.23
2020-08-13 11:57:21.3280,-0.29,0.05,0.23
2020-08-13 11:57:21.4250,-0.16,-0.01,-0.02
2020-08-13 11:57:21.5110,0.03,-0.0,0.01
2020-08-13 11:57:21.6200,-0.03,0.03,-0.02
2020-08-13 11:57:21.6750,-0.01,0.03,-0.03
2020-08-13 11:57:21.7650,-0.02,0.01,-0.02
2020-08-13 11:57:21.8550,0.01,0.03,0.01
2020-08-13 11:57:21.9440,-0.02,0.01,-0.03
2020-08-13 11:57:22.0470,0.02,-0.04,-0.03
2020-08-13 11:57:22.1370,0.07,-0.12,-0.03
2020-08-13 11:57:22.2270,0.17,-0.2,0.04
2020-08-13 11:57:22.3280,0.32,-0.26,0.11
2020-08-13 11:57:22.4170,0.28,-0.26,0.14
2020-08-13 11:57:22.5040,0.86,0.08,0.15
2020-08-13 11:57:22.6020,0.52,0.23,0.02
2020-08-13 11:57:22.7010,0.2,-0.12,-0.05
2020-08-13 11:57:22.8000,-0.06,-0.19,0.03
2020-08-13 11:57:22.9000,-0.3,-0.19,0.11
2020-08-13 11:57:22.9620,-0.54,-0.2,-0.02
2020-08-13 11:57:23.0510,-0.91,-0.07,-0.1
2020-08-13 11:57:23.1400,1.0,0.01,-0.05
2020-08-13 11:57:23.2200,-0.24,-0.19,-0.02
2020-08-13 11:57:23.3190,-0.03,0.06,-0.13
2020-08-13 11:57:23.4000,-0.04,0.04,0.13
2020-08-13 11:57:23.4970,-0.01,-0.01,-0.02
2020-08-13 11:57:23.5980,-0.02,0.04,0.01
2020-08-13 11:57:23.6930,-0.01,0.03,0.01
2020-08-13 11:57:23.7910,0.02,0.02,-0.0
2020-08-13 11:57:23.8900,0.01,0.01,-0.0
2020-08-13 11:57:23.9520,0.0,0.02,-0.01
2020-08-13 11:57:24.0420,0.01,-0.03,-0.0
2020-08-13 11:57:24.1320,0.11,-0.16,-0.02
2020-08-13 11:57:24.2260,0.35,-0.3,0.05
2020-08-13 11:57:24.3270,0.25,-0.31,0.26
2020-08-13 11:57:24.4060,0.15,0.11,0.37
2020-08-13 11:57:24.5070,0.66,0.37,-0.01
2020-08-13 11:57:24.5970,0.28,0.03,0.05
2020-08-13 11:57:24.6850,0.02,-0.16,0.04
2020-08-13 11:57:24.7850,-0.22,-0.21,0.08
2020-08-13 11:57:24.8850,-0.35,-0.19,0.04
2020-08-13 11:57:24.9840,-0.63,-0.04,-0.01
2020-08-13 11:57:25.0340,-0.54,0.06,-0.04
2020-08-13 11:57:25.1260,-0.24,-0.15,-0.3
2020-08-13 11:57:25.2150,-0.21,-0.22,0.03
2020-08-13 11:57:25.3050,-0.05,0.0,-0.12
2020-08-13 11:57:25.3950,-0.08,0.03,0.01
2020-08-13 11:57:25.4850,0.0,-0.02,0.0
2020-08-13 11:57:25.5880,0.0,0.03,0.01
2020-08-13 11:57:25.6770,0.02,0.02,-0.02
2020-08-13 11:57:25.7770,0.01,0.02,-0.01
2020-08-13 11:57:25.8850,-0.01,0.01,-0.01
2020-08-13 11:57:25.9470,0.01,-0.01,-0.01
2020-08-13 11:57:26.0280,0.02,-0.04,0.01
2020-08-13 11:57:26.1160,0.11,-0.22,-0.01
2020-08-13 11:57:26.2070,0.25,-0.28,-0.01
2020-08-13 11:57:26.2970,0.23,-0.25,0.21
2020-08-13 11:57:26.3850,0.13,-0.05,0.07
2020-08-13 11:57:26.4750,0.61,0.3,-0.0
2020-08-13 11:57:26.5720,0.39,0.09,-0.0
2020-08-13 11:57:26.6680,0.09,-0.22,0.06
2020-08-13 11:57:26.7660,-0.28,-0.17,0.09
2020-08-13 11:57:26.8760,-0.34,-0.18,-0.07
2020-08-13 11:57:26.9380,-0.64,-0.15,0.0
2020-08-13 11:57:27.0280,-0.84,-0.01,-0.07
2020-08-13 11:57:27.1170,0.34,-0.42,-0.25
2020-08-13 11:57:27.2080,-0.34,-0.09,0.18
2020-08-13 11:57:27.3130,-0.1,0.01,-0.04
2020-08-13 11:57:27.3950,0.02,0.02,0.02
2020-08-13 11:57:27.4920,-0.02,0.02,0.01
2020-08-13 11:57:27.5830,-0.03,0.0,-0.02
2020-08-13 11:57:27.6730,-0.05,-0.0,0.01
2020-08-13 11:57:27.7630,0.0,0.01,-0.01
2020-08-13 11:57:27.8610,0.01,0.01,-0.0
2020-08-13 11:57:27.9580,-0.04,0.02,-0.02
2020-08-13 11:57:28.0190,0.03,-0.06,-0.03
2020-08-13 11:57:28.1110,0.16,-0.17,0.03
2020-08-13 11:57:28.2080,0.21,-0.27,0.06
2020-08-13 11:57:28.2910,0.31,-0.27,0.13
2020-08-13 11:57:28.3930,0.15,0.14,0.26
2020-08-13 11:57:28.4830,0.7,0.35,-0.04
2020-08-13 11:57:28.5720,0.36,-0.07,-0.0
2020-08-13 11:57:28.6630,-0.0,-0.19,0.12
2020-08-13 11:57:28.7530,-0.17,-0.18,0.05
2020-08-13 11:57:28.8510,-0.34,-0.1,-0.02
2020-08-13 11:57:28.9480,-0.61,-0.16,0.04
2020-08-13 11:57:29.0480,-0.74,-0.03,-0.08
2020-08-13 11:57:29.1470,0.81,-0.06,-0.17
2020-08-13 11:57:29.2390,-0.37,-0.25,0.03
2020-08-13 11:57:29.2940,-0.08,0.02,-0.09
2020-08-13 11:57:29.3910,0.02,0.0,0.09
2020-08-13 11:57:29.4810,-0.05,0.01,0.0
2020-08-13 11:57:29.5790,-0.02,0.03,-0.02
2020-08-13 11:57:29.6670,0.01,0.04,0.0
2020-08-13 11:57:29.7610,0.01,-0.0,-0.02
2020-08-13 11:57:29.8490,0.04,0.07,0.03
2020-08-13 11:57:29.9370,0.07,0.01,-0.06
2020-08-13 11:57:30.0420,0.02,-0.07,-0.02
2020-08-13 11:57:30.1300,0.06,-0.21,0.04
2020-08-13 11:57:30.2310,0.23,-0.28,0.07
2020-08-13 11:57:30.3290,0.4,-0.27,0.16
2020-08-13 11:57:30.4270,0.18,0.05,0.17
2020-08-13 11:57:30.4910,0.62,0.27,-0.0
2020-08-13 11:57:30.5800,0.45,0.03,0.01
2020-08-13 11:57:30.6690,0.03,-0.21,0.07
2020-08-13 11:57:30.7510,-0.16,-0.19,0.06
2020-08-13 11:57:30.8590,-0.5,-0.16,0.02
2020-08-13 11:57:30.9430,-0.77,-0.11,0.03
2020-08-13 11:57:31.0330,-0.82,-0.04,-0.08
2020-08-13 11:57:31.1250,0.23,-0.32,-0.36
2020-08-13 11:57:31.2210,-0.36,-0.02,0.22
2020-08-13 11:57:31.3200,-0.1,-0.02,-0.18
2020-08-13 11:57:31.4190,-0.07,0.0,0.04
2020-08-13 11:57:31.5210,-0.07,0.04,0.01
2020-08-13 11:57:31.5740,-0.05,0.04,-0.01
2020-08-13 11:57:31.6720,0.04,0.02,0.02
2020-08-13 11:57:31.7690,-0.01,0.01,-0.0
2020-08-13 11:57:31.8530,0.01,0.05,-0.03
2020-08-13 11:57:31.9490,0.03,0.04,-0.02
2020-08-13 11:57:32.0240,-0.0,-0.05,0.0
2020-08-13 11:57:32.1290,0.09,-0.22,-0.06
2020-08-13 11:57:32.2270,0.23,-0.27,0.02
2020-08-13 11:57:32.3140,0.38,-0.23,0.09
2020-08-13 11:57:32.4230,0.03,-0.12,0.04
2020-08-13 11:57:32.5130,0.65,0.31,-0.04
2020-08-13 11:57:32.5660,0.48,0.18,0.03
2020-08-13 11:57:32.6560,0.19,-0.12,0.04
2020-08-13 11:57:32.7470,-0.16,-0.24,0.09
2020-08-13 11:57:32.8490,-0.46,-0.27,0.03
2020-08-13 11:57:32.9260,-0.7,-0.18,-0.09
2020-08-13 11:57:33.0150,-0.8,-0.02,-0.09
2020-08-13 11:57:33.1190,0.92,-0.2,-0.21
2020-08-13 11:57:33.2170,-0.21,-0.15,0.19
2020-08-13 11:57:33.3060,0.07,-0.01,-0.29
2020-08-13 11:57:33.4140,-0.02,-0.01,0.04
2020-08-13 11:57:33.4640,0.02,0.04,0.02
2020-08-13 11:57:33.5670,-0.0,0.04,0.02
2020-08-13 11:57:33.6470,-0.04,-0.0,-0.08
2020-08-13 11:57:33.7340,-0.04,0.02,-0.0
2020-08-13 11:57:33.8250,-0.01,-0.0,-0.04
2020-08-13 11:57:33.9280,-0.01,0.01,-0.01
2020-08-13 11:57:34.0190,-0.02,-0.1,-0.06
2020-08-13 11:57:34.1080,0.16,-0.33,-0.05
2020-08-13 11:57:34.1980,0.28,-0.3,0.07
2020-08-13 11:57:34.2990,0.16,-0.19,0.21
2020-08-13 11:57:34.4070,0.7,0.11,0.21
2020-08-13 11:57:34.4690,0.63,0.29,0.02
2020-08-13 11:57:34.5580,0.21,-0.08,-0.03
2020-08-13 11:57:34.6490,-0.02,-0.22,-0.04
2020-08-13 11:57:34.7540,-0.39,-0.3,0.11
2020-08-13 11:57:34.8370,-0.6,-0.19,0.02
2020-08-13 11:57:34.9340,-0.6,0.02,-0.07
2020-08-13 11:57:35.0150,-0.67,-0.13,-0.19
2020-08-13 11:57:35.1060,0.02,-0.21,-0.1
2020-08-13 11:57:35.1960,-0.28,-0.02,0.07
2020-08-13 11:57:35.2930,-0.01,0.06,0.04
2020-08-13 11:57:35.3900,-0.02,-0.02,-0.04
2020-08-13 11:57:35.4880,0.01,0.04,0.0
2020-08-13 11:57:35.5870,-0.02,0.04,-0.03
2020-08-13 11:57:35.6440,0.02,0.03,0.01
2020-08-13 11:57:35.7390,-0.04,0.0,-0.08
2020-08-13 11:57:35.8290,-0.06,-0.03,-0.03
2020-08-13 11:57:35.9240,-0.03,-0.04,-0.04
2020-08-13 11:57:36.0150,0.06,-0.07,-0.02
2020-08-13 11:57:36.1050,0.2,-0.26,-0.05
2020-08-13 11:57:36.1870,0.26,-0.32,-0.01
2020-08-13 11:57:36.2860,0.22,-0.16,0.12
2020-08-13 11:57:36.3850,0.18,0.15,0.13
2020-08-13 11:57:36.4800,0.59,0.27,-0.08
2020-08-13 11:57:36.5790,0.47,0.07,-0.06
2020-08-13 11:57:36.6420,0.09,-0.19,-0.0
2020-08-13 11:57:36.7310,-0.23,-0.3,0.04
2020-08-13 11:57:36.8200,-0.44,-0.29,0.02
2020-08-13 11:57:36.9150,-0.85,-0.1,-0.06
2020-08-13 11:57:37.0050,-0.66,0.02,-0.02
2020-08-13 11:57:37.0950,0.28,-0.37,-0.1
2020-08-13 11:57:37.1840,-0.08,0.04,0.26
2020-08-13 11:57:37.2750,-0.05,-0.03,-0.26
2020-08-13 11:57:37.3730,-0.03,0.05,0.11
2020-08-13 11:57:37.4760,0.01,0.02,0.01
2020-08-13 11:57:37.5830,-0.06,0.03,-0.01
2020-08-13 11:57:37.6720,0.02,0.0,0.0
2020-08-13 11:57:37.7260,-0.01,0.01,-0.02
2020-08-13 11:57:37.8150,0.02,0.03,-0.01
2020-08-13 11:57:37.9060,0.02,0.0,-0.03
2020-08-13 11:57:38.0090,0.02,-0.06,-0.04
2020-08-13 11:57:38.0990,0.13,-0.26,0.01
2020-08-13 11:57:38.2050,0.34,-0.36,0.07
2020-08-13 11:57:38.2790,0.14,-0.29,0.23
2020-08-13 11:57:38.3690,0.55,0.13,0.27
2020-08-13 11:57:38.4750,0.69,0.31,-0.09
2020-08-13 11:57:38.5770,0.17,-0.08,0.0
2020-08-13 11:57:38.6640,0.02,-0.23,-0.0
2020-08-13 11:57:38.7600,-0.22,-0.25,0.06
2020-08-13 11:57:38.8190,-0.43,-0.23,0.02
2020-08-13 11:57:38.9090,-0.69,-0.07,-0.01
2020-08-13 11:57:38.9990,-0.6,0.06,-0.06
2020-08-13 11:57:39.0900,1.1,-0.06,-0.22
2020-08-13 11:57:39.1800,-0.41,-0.29,0.05
2020-08-13 11:57:39.2800,-0.06,0.01,-0.09
2020-08-13 11:57:39.3710,0.0,0.01,0.03
2020-08-13 11:57:39.4650,-0.02,0.04,-0.02
2020-08-13 11:57:39.5630,-0.01,0.02,-0.02
2020-08-13 11:57:39.6520,-0.03,-0.01,-0.05
2020-08-13 11:57:39.7520,-0.04,0.01,0.01
2020-08-13 11:57:39.8250,0.02,0.01,-0.02
2020-08-13 11:57:39.9040,0.04,-0.01,-0.02
2020-08-13 11:57:40.0020,-0.01,-0.09,-0.01
2020-08-13 11:57:40.0920,0.21,-0.27,-0.0
2020-08-13 11:57:40.1810,0.34,-0.28,0.15
2020-08-13 11:57:40.2710,0.06,-0.25,0.23
2020-08-13 11:57:40.3590,0.86,0.2,-0.07
2020-08-13 11:57:40.4500,0.65,0.32,-0.12
2020-08-13 11:57:40.5460,0.24,-0.16,-0.04
2020-08-13 11:57:40.6440,-0.17,-0.27,0.19
2020-08-13 11:57:40.7440,-0.27,-0.2,0.04
2020-08-13 11:57:40.8160,-0.48,-0.06,-0.04
2020-08-13 11:57:40.8970,-0.83,-0.05,0.01
2020-08-13 11:57:40.9940,-0.93,-0.13,-0.2
2020-08-13 11:57:41.0840,-0.3,-0.18,-0.01
2020-08-13 11:57:41.1720,0.09,0.09,0.0
2020-08-13 11:57:41.2620,-0.07,-0.02,-0.03
2020-08-13 11:57:41.3510,-0.02,0.03,-0.01
2020-08-13 11:57:41.4390,-0.02,0.03,-0.0
2020-08-13 11:57:41.5380,-0.14,-0.05,-0.05
2020-08-13 11:57:41.6360,-0.02,0.02,-0.0
2020-08-13 11:57:41.7350,0.03,0.03,-0.01
2020-08-13 11:57:41.8340,0.04,-0.02,-0.01
2020-08-13 11:57:41.9350,0.03,-0.05,0.0
2020-08-13 11:57:41.9950,0.09,-0.2,0.01
2020-08-13 11:57:42.0780,0.27,-0.38,0.08
2020-08-13 11:57:42.1670,0.38,-0.37,0.03
2020-08-13 11:57:42.2700,0.6,0.05,0.24
2020-08-13 11:57:42.3460,0.71,0.37,-0.05
2020-08-13 11:57:42.4510,0.33,0.0,-0.06
2020-08-13 11:57:42.5410,-0.04,-0.25,0.19
2020-08-13 11:57:42.6320,-0.28,-0.18,0.08
2020-08-13 11:57:42.7270,-0.37,-0.13,-0.09
2020-08-13 11:57:42.8260,-0.68,-0.1,-0.02
2020-08-13 11:57:42.8860,-0.66,-0.02,-0.18
2020-08-13 11:57:42.9870,-0.17,-0.55,-0.15
2020-08-13 11:57:43.0700,-0.15,-0.11,0.07
2020-08-13 11:57:43.1650,-0.05,-0.03,-0.03
2020-08-13 11:57:43.2660,-0.06,-0.01,-0.01
2020-08-13 11:57:43.3540,-0.03,0.03,0.01
2020-08-13 11:57:43.4520,-0.01,0.02,-0.02
2020-08-13 11:57:43.5420,0.01,0.02,0.02
2020-08-13 11:57:43.6240,0.03,0.03,-0.02
2020-08-13 11:57:43.7220,0.03,0.01,-0.02
2020-08-13 11:57:43.8220,0.04,-0.06,-0.01
2020-08-13 11:57:43.9170,0.1,-0.16,0.02
2020-08-13 11:57:44.0170,0.26,-0.39,0.02
2020-08-13 11:57:44.1140,0.38,-0.4,0.18
2020-08-13 11:57:44.2150,0.07,0.18,0.18
2020-08-13 11:57:44.2760,0.62,0.32,0.02
2020-08-13 11:57:44.3580,0.47,0.1,0.02
2020-08-13 11:57:44.4470,0.12,-0.18,0.18
2020-08-13 11:57:44.5510,-0.23,-0.31,0.1
2020-08-13 11:57:44.6410,-0.53,-0.23,0.04
2020-08-13 11:57:44.7310,-0.74,-0.09,-0.14
2020-08-13 11:57:44.8210,-0.86,-0.02,-0.12
2020-08-13 11:57:44.9110,-0.35,-0.46,-0.15
2020-08-13 11:57:45.0070,-0.47,-0.03,0.15
2020-08-13 11:57:45.1150,0.03,0.01,-0.08
2020-08-13 11:57:45.2060,-0.0,0.03,0.0
2020-08-13 11:57:45.2670,-0.0,-0.02,0.01
2020-08-13 11:57:45.3560,0.02,0.03,-0.01
2020-08-13 11:57:45.4460,0.03,0.01,-0.04
2020-08-13 11:57:45.5280,0.05,0.01,-0.0
2020-08-13 11:57:45.6310,0.02,-0.03,-0.03
2020-08-13 11:57:45.7210,0.07,-0.08,-0.01
2020-08-13 11:57:45.8110,0.19,-0.27,0.01
2020-08-13 11:57:45.9010,0.45,-0.45,0.07
2020-08-13 11:57:46.0020,0.19,-0.16,0.08
2020-08-13 11:57:46.0970,0.72,0.18,0.14
2020-08-13 11:57:46.1570,0.55,0.31,0.04
2020-08-13 11:57:46.2590,0.31,-0.09,0.02
2020-08-13 11:57:46.3480,-0.04,-0.21,0.16
2020-08-13 11:57:46.4270,-0.23,-0.32,0.09
2020-08-13 11:57:46.5200,-0.47,-0.16,-0.03
2020-08-13 11:57:46.6170,-0.7,-0.06,-0.13
2020-08-13 11:57:46.7070,-0.78,0.01,-0.15
2020-08-13 11:57:46.7940,-0.79,-0.48,-0.03
2020-08-13 11:57:46.8920,0.09,0.11,0.27
2020-08-13 11:57:46.9910,-0.12,0.03,0.13
2020-08-13 11:57:47.0900,-0.02,0.02,-0.01
2020-08-13 11:57:47.1900,0.0,0.02,-0.02
2020-08-13 11:57:47.2520,0.03,0.01,-0.03
2020-08-13 11:57:47.3410,0.04,0.02,0.0
2020-08-13 11:57:47.4380,0.02,0.01,-0.03
2020-08-13 11:57:47.5370,0.01,-0.01,-0.01
2020-08-13 11:57:47.6210,0.02,-0.08,-0.02
2020-08-13 11:57:47.7170,0.29,-0.23,0.01
2020-08-13 11:57:47.7990,0.28,-0.29,0.02
2020-08-13 11:57:47.8970,0.33,-0.18,0.23
2020-08-13 11:57:47.9950,0.07,-0.17,0.02
2020-08-13 11:57:48.0830,0.9,0.28,-0.12
2020-08-13 11:57:48.1820,0.51,0.09,-0.01
2020-08-13 11:57:48.2560,0.16,-0.2,0.02
2020-08-13 11:57:48.3360,-0.26,-0.4,0.09
2020-08-13 11:57:48.4250,-0.67,-0.27,0.04
2020-08-13 11:57:48.5140,-0.8,-0.08,-0.1
2020-08-13 11:57:48.6050,-0.69,-0.06,-0.17
2020-08-13 11:57:48.6940,-0.21,-0.41,0.07
2020-08-13 11:57:48.7840,-0.11,0.02,0.18
2020-08-13 11:57:48.8870,0.0,0.0,-0.07
2020-08-13 11:57:48.9770,-0.02,0.01,0.04
2020-08-13 11:57:49.0740,0.01,0.03,-0.01
2020-08-13 11:57:49.1840,0.08,0.08,0.04
2020-08-13 11:57:49.2470,0.0,-0.02,-0.04
2020-08-13 11:57:49.3360,0.02,0.0,0.0
2020-08-13 11:57:49.4270,0.02,0.03,-0.01
2020-08-13 11:57:49.5160,0.05,-0.04,-0.04
2020-08-13 11:57:49.6220,0.07,-0.19,-0.08
2020-08-13 11:57:49.7110,0.21,-0.21,0.06
2020-08-13 11:57:49.8020,0.29,-0.21,0.06
2020-08-13 11:57:49.8910,0.03,-0.14,0.11
2020-08-13 11:57:49.9800,0.84,0.23,-0.02
2020-08-13 11:57:50.0660,0.62,0.3,-0.03
2020-08-13 11:57:50.1650,0.26,-0.13,-0.02
2020-08-13 11:57:50.2760,-0.23,-0.36,0.11
2020-08-13 11:57:50.3650,-0.38,-0.16,0.18
2020-08-13 11:57:50.4260,-0.38,-0.05,-0.03
2020-08-13 11:57:50.5220,-0.77,-0.02,-0.02
2020-08-13 11:57:50.6120,-0.26,-0.18,-0.33
2020-08-13 11:57:50.7020,0.05,-0.03,-0.02
2020-08-13 11:57:50.7780,-0.02,0.05,-0.02
2020-08-13 11:57:50.8820,-0.1,0.03,0.07
2020-08-13 11:57:50.9720,0.0,0.0,0.03
2020-08-13 11:57:51.0610,-0.02,0.03,0.02
2020-08-13 11:57:51.1560,-0.05,0.04,-0.02
2020-08-13 11:57:51.2550,0.02,0.03,-0.01
2020-08-13 11:57:51.3530,0.02,0.01,0.0
2020-08-13 11:57:51.4530,0.02,0.02,-0.03
2020-08-13 11:57:51.5530,-0.02,-0.09,-0.05
2020-08-13 11:57:51.6020,0.12,-0.16,0.09
2020-08-13 11:57:51.6910,0.19,-0.24,0.02
2020-08-13 11:57:51.7820,0.28,-0.31,0.06
2020-08-13 11:57:51.8750,0.15,-0.08,0.08
2020-08-13 11:57:51.9630,0.82,0.23,0.01
2020-08-13 11:57:52.0530,0.52,0.2,0.08
2020-08-13 11:57:52.1510,0.33,-0.06,-0.03
2020-08-13 11:57:52.2470,-0.14,-0.31,0.04
2020-08-13 11:57:52.3450,-0.35,-0.21,0.1
2020-08-13 11:57:52.4450,-0.49,-0.09,-0.03
2020-08-13 11:57:52.5180,-0.67,-0.01,-0.02
2020-08-13 11:57:52.6080,-0.56,-0.2,-0.4
2020-08-13 11:57:52.6810,-0.13,-0.27,0.24
2020-08-13 11:57:52.7860,-0.09,-0.03,-0.02
2020-08-13 11:57:52.8670,0.01,0.02,0.04
2020-08-13 11:57:52.9530,0.05,-0.02,-0.0
2020-08-13 11:57:53.0420,0.02,0.04,0.03
2020-08-13 11:57:53.1430,-0.02,0.02,0.02
2020-08-13 11:57:53.2330,0.0,-0.01,-0.04
2020-08-13 11:57:53.3300,-0.0,0.05,0.02
2020-08-13 11:57:53.4290,-0.04,-0.01,-0.04
2020-08-13 11:57:53.4930,0.05,-0.03,-0.01
2020-08-13 11:57:53.5860,0.09,-0.11,0.11
2020-08-13 11:57:53.6740,0.27,-0.28,-0.03
2020-08-13 11:57:53.7650,0.38,-0.31,0.18
2020-08-13 11:57:53.8600,0.23,-0.04,0.08
2020-08-13 11:57:53.9580,0.74,0.31,-0.09
2020-08-13 11:57:54.0390,0.49,0.09,-0.04
2020-08-13 11:57:54.1380,0.16,-0.17,0.09
2020-08-13 11:57:54.2220,-0.23,-0.45,0.11
2020-08-13 11:57:54.3220,-0.57,-0.27,0.11
2020-08-13 11:57:54.4210,-0.62,-0.02,-0.23
2020-08-13 11:57:54.5200,-0.96,-0.11,-0.28
2020-08-13 11:57:54.5770,-0.19,-0.23,0.13
2020-08-13 11:57:54.6650,-0.06,0.04,0.18
2020-08-13 11:57:54.7680,-0.02,0.03,0.0
2020-08-13 11:57:54.8570,-0.02,-0.01,-0.04
2020-08-13 11:57:54.9470,-0.02,0.04,0.04
2020-08-13 11:57:55.0370,-0.06,0.04,-0.02
2020-08-13 11:57:55.1280,-0.02,0.01,-0.01
2020-08-13 11:57:55.2180,0.07,0.03,0.05
2020-08-13 11:57:55.3230,0.05,0.04,-0.01
2020-08-13 11:57:55.4130,0.01,0.0,0.01
2020-08-13 11:57:55.5120,0.04,-0.22,-0.07
2020-08-13 11:57:55.6110,0.33,-0.21,0.1
2020-08-13 11:57:55.6740,0.32,-0.16,0.08
2020-08-13 11:57:55.7730,0.1,-0.13,0.13
2020-08-13 11:57:55.8620,0.89,0.16,0.12
2020-08-13 11:57:55.9520,0.62,0.21,-0.01
2020-08-13 11:57:56.0310,0.29,-0.07,-0.03
2020-08-13 11:57:56.1310,-0.11,-0.27,0.09
2020-08-13 11:57:56.2120,-0.32,-0.2,0.1
2020-08-13 11:57:56.3090,-0.35,-0.16,-0.05
2020-08-13 11:57:56.4100,-0.61,-0.05,0.02
2020-08-13 11:57:56.5040,-0.57,-0.0,-0.12
2020-08-13 11:57:56.6030,0.88,-0.09,-0.25
2020-08-13 11:57:56.6650,-0.16,-0.05,0.1
2020-08-13 11:57:56.7630,-0.01,0.0,-0.13
2020-08-13 11:57:56.8570,0.02,0.01,0.04
2020-08-13 11:57:56.9430,0.01,0.03,0.01
2020-08-13 11:57:57.0330,0.01,0.05,-0.02
2020-08-13 11:57:57.1230,-0.05,-0.02,-0.04
2020-08-13 11:57:57.2150,0.03,0.05,0.01
2020-08-13 11:57:57.3190,-0.03,0.01,-0.02
2020-08-13 11:57:57.4020,-0.04,-0.04,0.01
2020-08-13 11:57:57.4970,0.04,-0.08,0.02
2020-08-13 11:57:57.5960,0.1,-0.21,0.04
2020-08-13 11:57:57.6950,0.28,-0.29,0.07
2020-08-13 11:57:57.7680,0.31,-0.22,0.09
2020-08-13 11:57:57.8490,0.36,0.04,0.17
2020-08-13 11:57:57.9340,0.58,0.25,0.04
2020-08-13 11:57:58.0360,0.37,0.01,0.03
2020-08-13 11:57:58.1250,0.1,-0.16,0.07
2020-08-13 11:57:58.2060,-0.15,-0.22,0.05
2020-08-13 11:57:58.3080,-0.45,-0.27,0.05
2020-08-13 11:57:58.3980,-0.67,-0.09,-0.03
2020-08-13 11:57:58.4880,-0.61,-0.02,-0.14
2020-08-13 11:57:58.5890,0.58,0.04,0.05
2020-08-13 11:57:58.6870,-0.17,-0.18,0.02
2020-08-13 11:57:58.7590,0.02,0.03,-0.07
2020-08-13 11:57:58.8480,-0.01,-0.01,0.03
2020-08-13 11:57:58.9480,0.04,0.02,-0.01
2020-08-13 11:57:59.0440,0.0,0.03,0.01
2020-08-13 11:57:59.1330,0.02,0.08,0.02
2020-08-13 11:57:59.2230,0.03,-0.0,0.0
2020-08-13 11:57:59.3140,0.05,0.0,0.0
2020-08-13 11:57:59.4040,-0.11,-0.02,-0.06
2020-08-13 11:57:59.4930,-0.01,-0.02,0.04
2020-08-13 11:57:59.5830,0.05,-0.09,-0.03
2020-08-13 11:57:59.6790,0.17,-0.2,-0.01
2020-08-13 11:57:59.7760,0.23,-0.27,0.03
2020-08-13 11:57:59.8770,0.25,-0.13,0.08
2020-08-13 11:57:59.9390,0.24,0.08,0.17
2020-08-13 11:58:00.0230,0.64,0.25,0.05
2020-08-13 11:58:00.1240,0.38,0.0,-0.03
2020-08-13 11:58:00.2070,0.04,-0.27,0.07
2020-08-13 11:58:00.3040,-0.18,-0.21,0.1
2020-08-13 11:58:00.3860,-0.29,-0.22,0.02
2020-08-13 11:58:00.4840,-0.5,-0.03,-0.04
2020-08-13 11:58:00.5740,-0.75,-0.04,-0.06
2020-08-13 11:58:00.6720,0.86,0.01,-0.01
2020-08-13 11:58:00.7780,-0.19,-0.14,-0.1
2020-08-13 11:58:00.8680,-0.0,0.01,-0.03
2020-08-13 11:58:00.9310,-0.14,0.0,0.02
2020-08-13 11:58:01.0140,-0.05,0.0,-0.01
2020-08-13 11:58:01.1090,-0.01,0.03,0.02
2020-08-13 11:58:01.1920,-0.01,0.02,-0.0
2020-08-13 11:58:01.2940,0.0,-0.01,-0.03
2020-08-13 11:58:01.3740,0.01,0.0,0.01
2020-08-13 11:58:01.4740,0.02,-0.0,-0.01
2020-08-13 11:58:01.5650,0.03,-0.07,-0.02
2020-08-13 11:58:01.6640,0.14,-0.16,-0.0
2020-08-13 11:58:01.7610,0.24,-0.35,0.04
2020-08-13 11:58:01.8600,0.33,-0.1,0.08
2020-08-13 11:58:01.9220,0.16,0.09,0.3
2020-08-13 11:58:02.0110,0.64,0.25,0.02
2020-08-13 11:58:02.0920,0.62,0.17,-0.01
2020-08-13 11:58:02.1900,0.01,-0.32,0.14
2020-08-13 11:58:02.2720,-0.11,-0.29,0.05
2020-08-13 11:58:02.3720,-0.33,-0.21,0.07
2020-08-13 11:58:02.4570,-0.61,-0.17,0.09
2020-08-13 11:58:02.5570,-0.8,-0.05,-0.2
2020-08-13 11:58:02.6570,0.08,-0.03,-0.04
2020-08-13 11:58:02.7570,-0.28,-0.11,-0.09
2020-08-13 11:58:02.8540,0.1,0.01,-0.11
2020-08-13 11:58:02.9540,-0.04,0.01,0.04
2020-08-13 11:58:03.0040,0.02,0.06,0.02
2020-08-13 11:58:03.0960,-0.04,-0.0,-0.08
2020-08-13 11:58:03.1860,-0.05,0.03,0.03
2020-08-13 11:58:03.2770,0.03,0.03,-0.02
2020-08-13 11:58:03.3670,0.01,0.0,-0.04
2020-08-13 11:58:03.4690,0.0,-0.02,-0.0
2020-08-13 11:58:03.5510,0.0,-0.05,0.0
2020-08-13 11:58:03.6480,0.11,-0.09,-0.02
2020-08-13 11:58:03.7500,0.2,-0.32,0.04
2020-08-13 11:58:03.8500,0.38,-0.39,0.06
2020-08-13 11:58:03.9050,0.08,-0.03,0.11
2020-08-13 11:58:03.9960,0.59,0.31,0.02
2020-08-13 11:58:04.0870,0.49,0.17,-0.0
2020-08-13 11:58:04.1860,0.15,-0.15,0.05
2020-08-13 11:58:04.2780,-0.05,-0.18,0.06
2020-08-13 11:58:04.3590,-0.22,-0.11,0.13
2020-08-13 11:58:04.4540,-0.26,-0.17,-0.04
2020-08-13 11:58:04.5420,-0.78,-0.09,-0.09
2020-08-13 11:58:04.6430,-0.83,-0.17,-0.13
2020-08-13 11:58:04.7410,-0.1,-0.4,-0.12
2020-08-13 11:58:04.8400,0.07,0.1,0.02
2020-08-13 11:58:04.8950,-0.24,-0.06,-0.04
2020-08-13 11:58:05.0000,-0.04,0.03,0.04
2020-08-13 11:58:05.0890,-0.04,0.04,0.05
2020-08-13 11:58:05.1790,-0.01,0.0,-0.05
2020-08-13 11:58:05.2730,-0.0,-0.0,0.01
2020-08-13 11:58:05.3750,0.04,0.01,-0.02
2020-08-13 11:58:05.4650,0.06,-0.01,-0.02
2020-08-13 11:58:05.5480,0.06,-0.05,0.0
2020-08-13 11:58:05.6450,0.13,-0.21,-0.04
2020-08-13 11:58:05.7350,0.35,-0.4,0.05
2020-08-13 11:58:05.8350,-0.07,-0.1,0.25
2020-08-13 11:58:05.9220,0.76,0.21,-0.12
2020-08-13 11:58:06.0220,0.66,0.16,-0.02
2020-08-13 11:58:06.0950,0.22,-0.16,0.09
2020-08-13 11:58:06.1740,0.03,-0.17,0.04
2020-08-13 11:58:06.2730,-0.34,-0.17,0.16
2020-08-13 11:58:06.3620,-0.34,-0.1,-0.0
2020-08-13 11:58:06.4510,-0.79,-0.07,0.0
2020-08-13 11:58:06.5410,-0.63,-0.04,-0.08
2020-08-13 11:58:06.6300,-0.2,-0.26,-0.18
2020-08-13 11:58:06.7260,-0.21,0.11,0.25
2020-08-13 11:58:06.8160,-0.1,-0.03,-0.1
2020-08-13 11:58:06.9150,0.04,0.01,0.07
2020-08-13 11:58:07.0240,-0.07,0.01,-0.02
2020-08-13 11:58:07.0850,-0.06,0.05,-0.03
2020-08-13 11:58:07.1750,0.01,0.04,-0.0
2020-08-13 11:58:07.2560,-0.01,0.01,0.01
2020-08-13 11:58:07.3450,0.07,0.05,0.08
2020-08-13 11:58:07.4430,0.01,-0.02,0.01
2020-08-13 11:58:07.5320,0.05,-0.06,0.0
2020-08-13 11:58:07.6210,0.12,-0.18,-0.01
2020-08-13 11:58:07.7100,0.24,-0.3,0.09
2020-08-13 11:58:07.8080,0.39,-0.25,0.17
2020-08-13 11:58:07.9060,0.05,-0.13,-0.04
2020-08-13 11:58:08.0050,0.5,0.24,0.06
2020-08-13 11:58:08.0680,0.47,0.08,-0.02
2020-08-13 11:58:08.1660,0.13,-0.16,0.05
2020-08-13 11:58:08.2470,-0.23,-0.22,0.13
2020-08-13 11:58:08.3450,-0.32,-0.12,0.11
2020-08-13 11:58:08.4250,-0.51,-0.09,-0.03
2020-08-13 11:58:08.5140,-0.78,0.01,-0.09
2020-08-13 11:58:08.6130,0.56,-0.09,-0.04
2020-08-13 11:58:08.7020,-0.14,-0.01,-0.01
2020-08-13 11:58:08.8040,0.17,0.04,-0.11
2020-08-13 11:58:08.9000,-0.05,0.04,0.04
2020-08-13 11:58:08.9990,-0.05,0.03,0.01
2020-08-13 11:58:09.0540,-0.03,0.02,0.0
2020-08-13 11:58:09.1500,0.06,0.05,0.01
2020-08-13 11:58:09.2460,-0.0,0.0,-0.0
2020-08-13 11:58:09.3360,0.04,0.03,0.05
2020-08-13 11:58:09.4250,0.06,0.02,-0.03
2020-08-13 11:58:09.5150,0.04,-0.02,0.03
2020-08-13 11:58:09.6050,0.12,-0.16,-0.02
2020-08-13 11:58:09.6960,0.23,-0.28,0.04
2020-08-13 11:58:09.7970,0.44,-0.31,0.12
2020-08-13 11:58:09.8950,0.11,-0.1,0.1
2020-08-13 11:58:09.9930,0.82,0.28,0.01
2020-08-13 11:58:10.0930,0.6,0.13,0.04
2020-08-13 11:58:10.1910,0.11,-0.29,0.04
2020-08-13 11:58:10.2360,-0.29,-0.29,0.03
2020-08-13 11:58:10.3410,-0.46,-0.19,0.11
2020-08-13 11:58:10.4160,-0.5,-0.02,-0.06
2020-08-13 11:58:10.5060,-0.68,0.03,-0.05
2020-08-13 11:58:10.6110,1.15,-0.04,-0.13
2020-08-13 11:58:10.6880,-0.25,-0.13,-0.17
2020-08-13 11:58:10.7900,-0.24,-0.04,-0.01
2020-08-13 11:58:10.8880,-0.04,0.04,0.12
2020-08-13 11:58:10.9850,0.01,0.03,0.02
2020-08-13 11:58:11.0480,0.03,0.01,0.03
2020-08-13 11:58:11.1390,0.0,0.01,0.02
2020-08-13 11:58:11.2300,-0.01,0.01,-0.0
2020-08-13 11:58:11.3250,0.0,0.08,0.05
2020-08-13 11:58:11.4200,0.03,-0.02,-0.02
2020-08-13 11:58:11.5110,0.05,-0.04,-0.0
2020-08-13 11:58:11.6000,0.09,-0.11,0.0
2020-08-13 11:58:11.6900,0.24,-0.36,0.09
2020-08-13 11:58:11.7810,0.43,-0.28,0.11
2020-08-13 11:58:11.8800,0.26,-0.03,0.0
2020-08-13 11:58:11.9840,0.74,0.25,-0.1
2020-08-13 11:58:12.0750,0.38,0.11,0.05
2020-08-13 11:58:12.1770,0.17,-0.17,0.02
2020-08-13 11:58:12.2740,-0.12,-0.23,0.1
2020-08-13 11:58:12.3360,-0.38,-0.17,0.12
2020-08-13 11:58:12.4170,-0.44,-0.12,-0.0
2020-08-13 11:58:12.5150,-0.83,-0.11,-0.1
2020-08-13 11:58:12.5960,1.1,-0.09,-0.01
2020-08-13 11:58:12.6840,-0.15,0.01,0.04
2020-08-13 11:58:12.7740,0.1,0.0,-0.19
2020-08-13 11:58:12.8710,-0.03,0.01,0.05
2020-08-13 11:58:12.9690,-0.03,0.03,-0.0
2020-08-13 11:58:13.0680,-0.05,0.04,0.0
2020-08-13 11:58:13.1670,0.02,0.02,0.0
2020-08-13 11:58:13.2660,0.01,0.02,0.02
2020-08-13 11:58:13.3270,-0.02,0.02,-0.02
2020-08-13 11:58:13.4180,0.03,0.01,0.0
2020-08-13 11:58:13.5090,0.0,-0.09,-0.06
2020-08-13 11:58:13.5980,0.12,-0.16,0.08
2020-08-13 11:58:13.7010,0.16,-0.25,0.06
2020-08-13 11:58:13.7910,0.47,-0.3,0.15
2020-08-13 11:58:13.8810,0.11,-0.11,0.04
2020-08-13 11:58:13.9720,0.74,0.22,0.0
2020-08-13 11:58:14.0610,0.58,0.17,0.0
2020-08-13 11:58:14.1610,0.2,-0.21,0.06
2020-08-13 11:58:14.2650,-0.2,-0.26,0.07
2020-08-13 11:58:14.3570,-0.37,-0.22,0.08
2020-08-13 11:58:14.4580,-0.59,-0.1,-0.04
2020-08-13 11:58:14.5550,-0.7,0.01,-0.05
2020-08-13 11:58:14.6170,-0.52,-0.17,-0.15
2020-08-13 11:58:14.6990,-0.28,-0.18,0.01
2020-08-13 11:58:14.7970,-0.06,-0.01,-0.01
2020-08-13 11:58:14.8770,-0.08,0.0,0.05
2020-08-13 11:58:14.9770,0.01,0.01,-0.0
2020-08-13 11:58:15.0560,-0.02,0.04,-0.01
2020-08-13 11:58:15.1500,-0.0,0.02,0.0
2020-08-13 11:58:15.2490,0.02,0.04,-0.01
2020-08-13 11:58:15.3490,0.04,0.08,-0.01
2020-08-13 11:58:15.4510,0.05,-0.01,-0.04
2020-08-13 11:58:15.5050,0.04,-0.04,0.02
2020-08-13 11:58:15.5930,0.06,-0.07,-0.01
2020-08-13 11:58:15.6960,0.19,-0.22,0.05
2020-08-13 11:58:15.7870,0.25,-0.36,0.02
2020-08-13 11:58:15.8770,0.28,-0.22,0.16
2020-08-13 11:58:15.9660,0.81,0.16,0.05
2020-08-13 11:58:16.0560,0.58,0.21,0.06
2020-08-13 11:58:16.1470,0.32,-0.01,-0.04
2020-08-13 11:58:16.2480,-0.01,-0.22,0.07
2020-08-13 11:58:16.3350,-0.25,-0.14,0.11
2020-08-13 11:58:16.4430,-0.24,-0.14,-0.02
2020-08-13 11:58:16.5310,-0.55,-0.1,-0.0
2020-08-13 11:58:16.6310,-0.76,-0.01,-0.13
2020-08-13 11:58:16.7300,-0.28,-0.49,-0.26
2020-08-13 11:58:16.7920,-0.41,-0.19,0.16
2020-08-13 11:58:16.8820,-0.17,-0.01,-0.0
2020-08-13 11:58:16.9710,0.03,0.02,0.01
2020-08-13 11:58:17.0490,0.04,0.03,0.01
2020-08-13 11:58:17.1490,0.1,0.05,0.02
2020-08-13 11:58:17.2390,-0.07,0.0,-0.04
2020-08-13 11:58:17.3280,-0.01,0.03,-0.01
2020-08-13 11:58:17.4290,0.02,0.04,-0.0
2020-08-13 11:58:17.5240,-0.0,-0.02,-0.02
2020-08-13 11:58:17.6230,0.01,-0.08,-0.01
2020-08-13 11:58:17.6780,0.12,-0.2,0.09
2020-08-13 11:58:17.7810,0.27,-0.23,-0.05
2020-08-13 11:58:17.8720,0.32,-0.21,0.12
2020-08-13 11:58:17.9620,0.29,-0.04,0.22
2020-08-13 11:58:18.0520,0.67,0.35,-0.01
2020-08-13 11:58:18.1280,0.45,0.1,-0.06
2020-08-13 11:58:18.2300,0.01,-0.24,0.09
2020-08-13 11:58:18.3150,-0.17,-0.27,0.08
2020-08-13 11:58:18.4160,-0.35,-0.18,0.04
2020-08-13 11:58:18.5140,-0.46,-0.04,-0.01
2020-08-13 11:58:18.6160,-0.7,0.01,-0.1
2020-08-13 11:58:18.7130,1.36,-0.19,-0.11
2020-08-13 11:58:18.7570,-0.32,-0.17,-0.0
2020-08-13 11:58:18.8620,0.05,-0.03,-0.22
2020-08-13 11:58:18.9450,0.0,0.02,0.12
2020-08-13 11:58:19.0420,-0.02,0.02,-0.04
2020-08-13 11:58:19.1320,-0.04,0.03,-0.05
2020-08-13 11:58:19.2230,-0.02,0.03,0.03
2020-08-13 11:58:19.3120,-0.06,0.01,-0.03
2020-08-13 11:58:19.4190,0.01,0.01,0.01
2020-08-13 11:58:19.5080,0.01,0.03,0.03
2020-08-13 11:58:19.5680,0.02,-0.01,-0.0
2020-08-13 11:58:19.7060,0.06,-0.11,-0.09
2020-08-13 11:58:19.7780,0.15,-0.31,0.01
2020-08-13 11:58:19.8500,0.2,-0.24,0.1
2020-08-13 11:58:19.9410,0.31,-0.1,0.03
2020-08-13 11:58:20.0320,0.72,0.07,0.23
2020-08-13 11:58:20.1270,0.66,0.22,0.02
2020-08-13 11:58:20.2120,0.39,0.02,-0.0
2020-08-13 11:58:20.3030,0.1,-0.27,0.07
2020-08-13 11:58:20.4010,-0.36,-0.31,0.1
2020-08-13 11:58:20.5000,-0.4,-0.2,0.02
2020-08-13 11:58:20.5980,-0.87,-0.03,0.05
2020-08-13 11:58:20.6970,-0.79,-0.05,-0.05
2020-08-13 11:58:20.7670,-0.05,-0.42,0.01
2020-08-13 11:58:20.8490,-0.25,0.04,0.13
2020-08-13 11:58:20.9480,-0.06,0.04,0.03
2020-08-13 11:58:21.0280,-0.07,0.01,0.01
2020-08-13 11:58:21.1140,-0.09,0.03,-0.01
2020-08-13 11:58:21.2070,-0.07,0.0,0.0
2020-08-13 11:58:21.2960,0.01,0.03,0.05
2020-08-13 11:58:21.3930,0.01,0.04,0.01
2020-08-13 11:58:21.4910,0.04,0.03,0.02
2020-08-13 11:58:21.5910,0.07,-0.05,-0.04
2020-08-13 11:58:21.6930,0.07,-0.06,0.1
2020-08-13 11:58:21.7460,0.21,-0.32,-0.0
2020-08-13 11:58:21.8430,0.18,-0.11,-0.0
2020-08-13 11:58:21.9270,0.24,-0.01,0.13
2020-08-13 11:58:22.0280,0.37,0.02,0.26
2020-08-13 11:58:22.1180,0.62,0.14,0.03
2020-08-13 11:58:22.2080,0.49,0.01,-0.02
2020-08-13 11:58:22.2900,0.12,-0.18,0.08
2020-08-13 11:58:22.3870,-0.2,-0.2,0.08
2020-08-13 11:58:22.4830,-0.38,-0.26,-0.01
2020-08-13 11:58:22.5820,-0.84,-0.12,0.04
2020-08-13 11:58:22.6810,-0.62,-0.03,-0.14
2020-08-13 11:58:22.7360,0.92,-0.42,-0.14
2020-08-13 11:58:22.8260,-0.11,0.13,0.29
2020-08-13 11:58:22.9150,-0.21,-0.17,-0.33
2020-08-13 11:58:23.0170,-0.04,0.04,0.08
2020-08-13 11:58:23.1070,0.04,0.06,0.07
2020-08-13 11:58:23.1990,-0.05,-0.0,-0.06
2020-08-13 11:58:23.2880,-0.01,0.01,0.01
2020-08-13 11:58:23.3780,-0.01,-0.01,-0.01
2020-08-13 11:58:23.4770,0.04,0.04,0.0
2020-08-13 11:58:23.5770,0.01,0.02,0.02
2020-08-13 11:58:23.6750,0.03,-0.11,-0.03
2020-08-13 11:58:23.7720,0.15,-0.31,0.02
2020-08-13 11:58:23.8710,0.3,-0.3,0.03
2020-08-13 11:58:23.9330,0.14,-0.12,0.13
2020-08-13 11:58:24.0230,0.74,0.06,0.24
2020-08-13 11:58:24.1130,0.64,0.27,0.03
2020-08-13 11:58:24.1890,0.35,0.03,-0.03
2020-08-13 11:58:24.2810,-0.0,-0.23,0.08
2020-08-13 11:58:24.3770,-0.26,-0.28,0.08
2020-08-13 11:58:24.4690,-0.39,-0.22,-0.06
2020-08-13 11:58:24.5670,-0.59,-0.1,-0.14
2020-08-13 11:58:24.6640,-0.72,0.01,0.02
2020-08-13 11:58:24.7650,0.18,-0.43,-0.21
2020-08-13 11:58:24.8730,-0.32,-0.15,0.34
2020-08-13 11:58:24.9240,0.06,-0.01,-0.17
2020-08-13 11:58:25.0160,0.0,-0.02,-0.01
2020-08-13 11:58:25.1030,0.01,0.01,0.0
2020-08-13 11:58:25.1950,0.01,0.05,-0.02
2020-08-13 11:58:25.2930,0.01,0.03,0.03
2020-08-13 11:58:25.3820,0.04,0.04,0.0
2020-08-13 11:58:25.4790,0.04,0.03,0.0
2020-08-13 11:58:25.5600,0.03,-0.0,-0.03
2020-08-13 11:58:25.6590,0.08,0.01,0.01
2020-08-13 11:58:25.7560,0.13,-0.25,0.04
2020-08-13 11:58:25.8650,0.26,-0.28,-0.0
2020-08-13 11:58:25.9540,0.36,-0.23,0.18
2020-08-13 11:58:26.0060,0.02,-0.18,0.11
2020-08-13 11:58:26.0970,0.76,0.23,-0.09
2020-08-13 11:58:26.1870,0.59,0.14,-0.04
2020-08-13 11:58:26.2830,0.16,-0.21,0.07
2020-08-13 11:58:26.3780,-0.27,-0.37,0.02
2020-08-13 11:58:26.4690,-0.58,-0.23,0.08
2020-08-13 11:58:26.5510,-0.67,-0.11,-0.03
2020-08-13 11:58:26.6490,-0.7,0.01,-0.05
2020-08-13 11:58:26.7460,0.39,-0.42,-0.16
2020-08-13 11:58:26.8440,-0.21,-0.23,0.18
2020-08-13 11:58:26.9050,0.01,-0.02,-0.13
2020-08-13 11:58:26.9950,-0.01,0.01,-0.03
2020-08-13 11:58:27.0870,0.0,0.04,0.02
2020-08-13 11:58:27.1770,-0.01,0.0,0.01
2020-08-13 11:58:27.2670,0.01,0.02,0.03
2020-08-13 11:58:27.3550,0.02,0.02,0.0
2020-08-13 11:58:27.4580,-0.01,0.0,-0.02
2020-08-13 11:58:27.5480,-0.03,0.01,-0.04
2020-08-13 11:58:27.6390,0.07,-0.03,0.0
2020-08-13 11:58:27.7360,0.11,-0.2,-0.02
2020-08-13 11:58:27.8360,0.32,-0.34,0.08
2020-08-13 11:58:27.9090,0.3,-0.22,0.15
2020-08-13 11:58:28.0350,0.27,0.1,0.17
2020-08-13 11:58:28.0970,0.53,0.26,0.03
2020-08-13 11:58:28.1940,0.41,-0.02,-0.03
2020-08-13 11:58:28.2760,0.14,-0.12,0.04
2020-08-13 11:58:28.3740,-0.15,-0.19,0.02
2020-08-13 11:58:28.4540,-0.33,-0.14,0.04
2020-08-13 11:58:28.5450,-0.57,-0.12,0.01
2020-08-13 11:58:28.6340,-0.64,-0.02,-0.04
2020-08-13 11:58:28.7320,-0.27,-0.01,-0.14
2020-08-13 11:58:28.8370,-0.21,-0.19,-0.11
2020-08-13 11:58:28.9380,-0.12,-0.03,0.11
2020-08-13 11:58:29.0260,-0.14,-0.0,0.03
2020-08-13 11:58:29.0830,0.03,0.02,0.0
2020-08-13 11:58:29.1840,0.01,0.01,-0.01
2020-08-13 11:58:29.2670,-0.0,0.0,-0.03
2020-08-13 11:58:29.3490,0.01,0.0,-0.02
2020-08-13 11:58:29.4540,-0.01,0.0,0.0
2020-08-13 11:58:29.5450,0.05,-0.0,-0.01
2020-08-13 11:58:29.6350,0.06,-0.06,-0.01
2020-08-13 11:58:29.7260,0.11,-0.17,0.0
2020-08-13 11:58:29.8200,0.32,-0.41,0.03
2020-08-13 11:58:29.9270,0.5,-0.35,0.11
2020-08-13 11:58:30.0160,0.17,0.19,0.23
2020-08-13 11:58:30.1150,0.62,0.32,0.1
2020-08-13 11:58:30.1740,0.48,0.07,-0.08
2020-08-13 11:58:30.2790,0.09,-0.33,-0.01
2020-08-13 11:58:30.3540,-0.36,-0.31,0.07
2020-08-13 11:58:30.4440,-0.54,-0.17,0.05
2020-08-13 11:58:30.5370,-0.72,-0.05,-0.04
2020-08-13 11:58:30.6240,-0.57,0.05,0.01
2020-08-13 11:58:30.7140,-0.2,-0.49,-0.19
2020-08-13 11:58:30.8210,-0.38,-0.1,0.23
2020-08-13 11:58:30.9090,-0.15,0.01,0.04
2020-08-13 11:58:31.0070,-0.04,-0.02,-0.01
2020-08-13 11:58:31.1090,-0.05,0.0,-0.02
2020-08-13 11:58:31.2080,-0.06,0.01,-0.03
2020-08-13 11:58:31.2550,-0.0,-0.0,-0.0
2020-08-13 11:58:31.3450,0.03,0.03,0.03
2020-08-13 11:58:31.4490,-0.04,0.0,-0.02
2020-08-13 11:58:31.5540,-0.0,-0.01,-0.0
2020-08-13 11:58:31.6360,0.08,-0.14,-0.06
2020-08-13 11:58:31.7260,0.23,-0.23,0.03
2020-08-13 11:58:31.8180,0.36,-0.24,0.09
2020-08-13 11:58:31.9150,0.18,-0.18,0.12
2020-08-13 11:58:31.9990,0.86,0.16,0.0
2020-08-13 11:58:32.1000,0.57,0.23,-0.01
2020-08-13 11:58:32.2070,0.14,0.04,0.04
2020-08-13 11:58:32.2970,0.04,-0.25,-0.17
2020-08-13 11:58:32.3600,-0.24,-0.19,0.07
2020-08-13 11:58:32.4490,-0.45,-0.16,-0.01
2020-08-13 11:58:32.5450,-0.67,-0.09,-0.05
2020-08-13 11:58:32.6280,-0.76,0.01,-0.11
2020-08-13 11:58:32.7190,-0.27,-0.32,-0.03
2020-08-13 11:58:32.8150,-0.38,-0.04,-0.06
2020-08-13 11:58:32.8960,0.01,0.02,-0.05
2020-08-13 11:58:32.9960,-0.06,0.02,0.02
2020-08-13 11:58:33.0920,0.04,0.03,-0.01
2020-08-13 11:58:33.1910,-0.03,0.01,-0.02
2020-08-13 11:58:33.2890,0.02,-0.0,0.0
2020-08-13 11:58:33.3450,0.03,0.01,-0.01
2020-08-13 11:58:33.4430,0.03,0.01,-0.05
2020-08-13 11:58:33.5230,0.05,-0.0,0.02
2020-08-13 11:58:33.6210,-0.03,-0.08,-0.06
2020-08-13 11:58:33.7100,0.13,-0.3,0.11
2020-08-13 11:58:33.7960,0.28,-0.23,-0.02
2020-08-13 11:58:33.8900,0.19,-0.11,0.13
2020-08-13 11:58:33.9840,0.53,0.05,0.27
2020-08-13 11:58:34.0850,0.65,0.23,0.01
2020-08-13 11:58:34.1820,0.37,-0.06,-0.07
2020-08-13 11:58:34.2550,-0.01,-0.2,0.03
2020-08-13 11:58:34.3440,-0.3,-0.25,0.13
2020-08-13 11:58:34.4360,-0.35,-0.16,-0.04
2020-08-13 11:58:34.5250,-0.73,-0.12,-0.08
2020-08-13 11:58:34.6160,-0.8,-0.01,-0.1
2020-08-13 11:58:34.7200,-0.14,-0.38,0.06
2020-08-13 11:58:34.7960,-0.17,0.08,0.12
2020-08-13 11:58:34.8860,-0.09,0.01,0.04
2020-08-13 11:58:34.9900,-0.01,-0.01,-0.01
2020-08-13 11:58:35.0820,0.02,0.02,-0.01
2020-08-13 11:58:35.1790,-0.03,0.03,-0.03
2020-08-13 11:58:35.2760,0.0,0.01,0.02
2020-08-13 11:58:35.3360,-0.0,-0.03,0.01
2020-08-13 11:58:35.4260,0.03,-0.04,-0.04
2020-08-13 11:58:35.5290,0.07,-0.05,-0.01
2020-08-13 11:58:35.6350,0.11,-0.22,0.03
2020-08-13 11:58:35.7170,0.28,-0.4,0.02
2020-08-13 11:58:35.8060,0.15,-0.0,0.15
2020-08-13 11:58:35.9030,0.69,0.07,0.12
2020-08-13 11:58:35.9920,0.51,0.24,0.01
2020-08-13 11:58:36.0820,0.26,-0.01,-0.02
2020-08-13 11:58:36.1680,0.03,-0.11,0.02
2020-08-13 11:58:36.2650,-0.21,-0.12,0.09
2020-08-13 11:58:36.3640,-0.32,-0.16,0.01
2020-08-13 11:58:36.4660,-0.6,-0.14,-0.01
2020-08-13 11:58:36.5630,-0.67,0.0,-0.13
2020-08-13 11:58:36.6260,1.13,-0.13,0.01
2020-08-13 11:58:36.7070,-0.04,0.06,0.01
2020-08-13 11:58:36.8060,-0.08,0.06,-0.07
2020-08-13 11:58:36.8950,-0.04,0.02,0.1
2020-08-13 11:58:36.9850,0.01,-0.01,-0.06
2020-08-13 11:58:37.0760,-0.02,0.04,0.01
2020-08-13 11:58:37.1660,-0.04,0.01,0.02
2020-08-13 11:58:37.2590,-0.01,0.01,0.01
2020-08-13 11:58:37.3610,-0.0,-0.02,-0.07
2020-08-13 11:58:37.4600,-0.09,-0.02,-0.01
2020-08-13 11:58:37.5640,0.06,-0.07,-0.0
2020-08-13 11:58:37.6170,0.14,-0.2,0.02
2020-08-13 11:58:37.7090,0.31,-0.43,0.03
2020-08-13 11:58:37.7980,0.34,-0.3,0.17
2020-08-13 11:58:37.8890,0.42,0.07,0.13
2020-08-13 11:58:37.9800,0.53,0.34,0.01
2020-08-13 11:58:38.0800,0.37,0.04,-0.04
2020-08-13 11:58:38.1710,0.05,-0.13,0.02
2020-08-13 11:58:38.2520,-0.23,-0.22,0.07
2020-08-13 11:58:38.3480,-0.35,-0.22,0.1
2020-08-13 11:58:38.4470,-0.58,-0.11,-0.02
2020-08-13 11:58:38.5490,-0.72,-0.01,-0.01
2020-08-13 11:58:38.6060,0.03,-0.18,-0.19
2020-08-13 11:58:38.6960,-0.08,-0.0,-0.04
2020-08-13 11:58:38.7980,-0.1,-0.07,-0.17
2020-08-13 11:58:38.8800,-0.02,0.0,0.01
2020-08-13 11:58:38.9760,-0.02,0.02,0.01
2020-08-13 11:58:39.0600,-0.02,0.07,0.02
2020-08-13 11:58:39.1550,-0.08,0.0,-0.02
2020-08-13 11:58:39.2510,-0.04,-0.0,-0.02
2020-08-13 11:58:39.3380,-0.08,0.02,-0.02
2020-08-13 11:58:39.4370,0.07,0.04,-0.01
2020-08-13 11:58:39.5390,0.11,-0.12,-0.05
2020-08-13 11:58:39.6360,0.18,-0.29,0.09
2020-08-13 11:58:39.7010,0.32,-0.4,0.01
2020-08-13 11:58:39.8060,0.16,0.03,0.06
2020-08-13 11:58:39.8900,0.53,0.19,-0.01
2020-08-13 11:58:39.9860,0.33,0.18,-0.03
2020-08-13 11:58:40.0620,0.29,0.03,-0.01
2020-08-13 11:58:40.1500,0.13,-0.04,0.02
2020-08-13 11:58:40.2560,-0.11,-0.14,0.09
2020-08-13 11:58:40.3300,-0.32,-0.2,0.08
2020-08-13 11:58:40.4370,-0.62,-0.21,-0.04
2020-08-13 11:58:40.5350,-0.93,-0.05,-0.23
2020-08-13 11:58:40.6210,-0.59,-0.49,-0.19
2020-08-13 11:58:40.7200,-0.33,-0.04,0.26
2020-08-13 11:58:40.7820,-0.09,-0.02,-0.08
2020-08-13 11:58:40.8700,-0.0,0.01,-0.0
2020-08-13 11:58:40.9610,-0.01,0.04,-0.02
2020-08-13 11:58:41.0510,-0.03,0.03,-0.0
2020-08-13 11:58:41.1570,-0.1,-0.02,-0.04
2020-08-13 11:58:41.2320,-0.05,0.03,0.01
2020-08-13 11:58:41.3290,-0.03,0.01,-0.03
2020-08-13 11:58:41.4190,-0.03,-0.06,-0.02
2020-08-13 11:58:41.5180,-0.01,-0.1,-0.01
2020-08-13 11:58:41.6150,0.14,-0.26,0.08
2020-08-13 11:58:41.7100,0.3,-0.35,0.06
2020-08-13 11:58:41.8100,0.04,-0.02,0.09
2020-08-13 11:58:41.8650,0.87,0.21,0.09
2020-08-13 11:58:41.9630,0.56,0.26,-0.0
2020-08-13 11:58:42.0470,0.17,-0.06,0.0
2020-08-13 11:58:42.1420,-0.1,-0.18,-0.04
2020-08-13 11:58:42.2280,-0.2,-0.09,0.06
2020-08-13 11:58:42.3120,-0.27,-0.11,0.1
2020-08-13 11:58:42.4110,-0.51,-0.03,0.04
2020-08-13 11:58:42.5060,-0.54,-0.03,-0.12
2020-08-13 11:58:42.6040,-0.22,-0.06,-0.25
2020-08-13 11:58:42.7030,-0.13,-0.33,-0.07
2020-08-13 11:58:42.8010,0.0,0.01,-0.15
2020-08-13 11:58:42.8560,-0.14,0.06,0.12
2020-08-13 11:58:42.9450,-0.07,-0.0,-0.03
2020-08-13 11:58:43.0350,-0.02,0.05,0.01
2020-08-13 11:58:43.1250,-0.04,0.03,0.02
2020-08-13 11:58:43.2160,-0.02,-0.01,0.0
2020-08-13 11:58:43.3040,-0.01,0.01,0.01
2020-08-13 11:58:43.4070,-0.01,0.01,-0.01
2020-08-13 11:58:43.4960,0.02,-0.05,-0.01
2020-08-13 11:58:43.5950,0.07,-0.19,-0.02
2020-08-13 11:58:43.6940,0.25,-0.32,0.05
2020-08-13 11:58:43.7940,0.42,-0.2,0.06
2020-08-13 11:58:43.8570,0.11,0.12,0.0
2020-08-13 11:58:43.9370,0.66,0.27,-0.04
2020-08-13 11:58:44.0270,0.54,0.28,0.06
2020-08-13 11:58:44.1150,0.24,-0.07,-0.11
2020-08-13 11:58:44.2060,-0.13,-0.24,0.02
2020-08-13 11:58:44.2950,-0.25,-0.16,0.05
2020-08-13 11:58:44.3890,-0.41,-0.15,-0.0
2020-08-13 11:58:44.4870,-0.8,-0.05,0.08
2020-08-13 11:58:44.5850,-0.54,-0.2,-0.34
2020-08-13 11:58:44.6860,-0.5,-0.4,0.12
2020-08-13 11:58:44.7850,-0.1,0.02,0.04
2020-08-13 11:58:44.8470,-0.07,0.01,0.02
2020-08-13 11:58:44.9360,-0.0,0.01,-0.04
2020-08-13 11:58:45.0270,-0.0,0.01,0.0
2020-08-13 11:58:45.1170,-0.04,0.03,0.01
2020-08-13 11:58:45.2080,-0.03,0.01,-0.01
2020-08-13 11:58:45.2960,-0.0,0.02,0.01
2020-08-13 11:58:45.3870,-0.03,0.03,-0.02
2020-08-13 11:58:45.4780,-0.1,-0.06,-0.03
2020-08-13 11:58:45.5760,0.05,-0.17,0.03
2020-08-13 11:58:45.6790,0.26,-0.33,0.05
2020-08-13 11:58:45.7760,0.25,-0.28,0.16
2020-08-13 11:58:45.8360,0.16,-0.09,0.05
2020-08-13 11:58:45.9260,0.66,0.23,-0.12
2020-08-13 11:58:46.0180,0.41,0.16,0.03
2020-08-13 11:58:46.1060,0.13,-0.07,0.02
2020-08-13 11:58:46.1980,-0.02,-0.13,0.04
2020-08-13 11:58:46.2890,-0.16,-0.11,0.07
2020-08-13 11:58:46.3860,-0.42,-0.17,-0.01
2020-08-13 11:58:46.4690,-0.77,-0.07,0.03
2020-08-13 11:58:46.5720,-0.6,-0.16,-0.28
2020-08-13 11:58:46.6700,-0.22,-0.26,0.02
2020-08-13 11:58:46.7670,-0.11,-0.01,0.03
2020-08-13 11:58:46.8290,-0.07,0.01,0.02
2020-08-13 11:58:46.9180,0.0,0.01,-0.01
2020-08-13 11:58:47.0080,-0.02,0.03,0.01
2020-08-13 11:58:47.1270,-0.02,0.02,0.0
2020-08-13 11:58:47.2010,-0.07,-0.03,-0.07
2020-08-13 11:58:47.2990,0.02,0.05,0.01
2020-08-13 11:58:47.3820,-0.06,-0.01,-0.06
2020-08-13 11:58:47.4720,0.01,-0.05,-0.01
2020-08-13 11:58:47.5620,0.04,-0.16,-0.02
2020-08-13 11:58:47.6600,0.21,-0.36,0.0
2020-08-13 11:58:47.7580,0.48,-0.41,0.09
2020-08-13 11:58:47.8570,0.01,0.0,0.06
2020-08-13 11:58:47.9630,0.64,0.33,0.02
2020-08-13 11:58:48.0130,0.45,0.09,-0.03
2020-08-13 11:58:48.1100,0.02,-0.27,0.11
2020-08-13 11:58:48.2080,-0.2,-0.24,0.07
2020-08-13 11:58:48.2920,-0.24,-0.18,-0.02
2020-08-13 11:58:48.3880,-0.54,-0.07,0.0
2020-08-13 11:58:48.4710,-0.71,0.03,-0.03
2020-08-13 11:58:48.5680,-0.7,0.01,-0.1
2020-08-13 11:58:48.6660,-0.22,-0.28,-0.12
2020-08-13 11:58:48.7550,-0.39,-0.13,-0.02
2020-08-13 11:58:48.8520,-0.14,0.04,0.11
2020-08-13 11:58:48.9510,-0.07,-0.02,-0.05
2020-08-13 11:58:49.0510,-0.09,0.05,0.02
2020-08-13 11:58:49.1070,-0.06,-0.02,-0.04
2020-08-13 11:58:49.1970,0.03,0.05,0.04
2020-08-13 11:58:49.2870,0.02,-0.0,-0.03
2020-08-13 11:58:49.3780,0.05,-0.01,-0.02
2020-08-13 11:58:49.4670,0.0,-0.07,0.04
2020-08-13 11:58:49.5570,0.09,-0.25,-0.01
2020-08-13 11:58:49.6560,0.21,-0.34,0.02
2020-08-13 11:58:49.7450,0.5,-0.32,0.16
2020-08-13 11:58:49.8430,-0.05,0.13,0.36
2020-08-13 11:58:49.9420,0.6,0.24,0.06
2020-08-13 11:58:50.0420,0.43,0.03,0.01
2020-08-13 11:58:50.0970,0.12,-0.25,0.04
2020-08-13 11:58:50.1870,-0.18,-0.27,0.06
2020-08-13 11:58:50.2770,-0.45,-0.24,0.02
2020-08-13 11:58:50.3670,-0.71,-0.07,-0.07
2020-08-13 11:58:50.4570,-0.76,0.0,-0.09
2020-08-13 11:58:50.5470,1.66,-0.31,-0.06
2020-08-13 11:58:50.6450,-0.15,-0.05,0.18
2020-08-13 11:58:50.7350,-0.19,-0.04,-0.14
2020-08-13 11:58:50.8350,-0.04,0.04,0.09
2020-08-13 11:58:50.9330,-0.02,0.04,0.02
2020-08-13 11:58:51.0320,-0.01,0.01,-0.03
2020-08-13 11:58:51.1310,0.02,0.03,0.03
2020-08-13 11:58:51.1850,0.04,0.03,-0.04
2020-08-13 11:58:51.2830,0.01,0.03,-0.01
2020-08-13 11:58:51.3730,-0.05,-0.06,-0.05
2020-08-13 11:58:51.4630,0.01,-0.11,0.01
2020-08-13 11:58:51.5520,0.25,-0.27,0.01
2020-08-13 11:58:51.6420,0.41,-0.37,0.17
2020-08-13 11:58:51.7250,0.09,-0.06,0.11
2020-08-13 11:58:51.8280,0.7,0.18,0.01
2020-08-13 11:58:51.9260,0.49,0.19,-0.01
2020-08-13 11:58:52.0270,0.3,-0.01,-0.01
2020-08-13 11:58:52.0890,0.12,-0.12,0.03
2020-08-13 11:58:52.1710,-0.21,-0.22,0.12
2020-08-13 11:58:52.2880,-0.53,-0.26,0.04
2020-08-13 11:58:52.3680,-0.84,-0.07,0.03
2020-08-13 11:58:52.4530,-0.66,-0.24,-0.47
2020-08-13 11:58:52.5440,-0.16,-0.36,-0.09
2020-08-13 11:58:52.6330,-0.28,-0.03,0.03
2020-08-13 11:58:52.7230,-0.13,0.07,0.17
2020-08-13 11:58:52.8210,-0.07,-0.0,-0.01
2020-08-13 11:58:52.9250,-0.03,0.03,0.03
2020-08-13 11:58:53.0180,0.04,0.04,0.05
2020-08-13 11:58:53.1160,0.04,0.03,-0.04
2020-08-13 11:58:53.2150,-0.01,-0.0,-0.04
2020-08-13 11:58:53.2790,-0.01,-0.02,-0.01
2020-08-13 11:58:53.3600,0.04,-0.08,-0.0
2020-08-13 11:58:53.4440,0.14,-0.25,0.06
2020-08-13 11:58:53.5370,0.24,-0.42,0.12
2020-08-13 11:58:53.6260,0.35,0.02,0.06
2020-08-13 11:58:53.7160,0.64,0.15,0.05
2020-08-13 11:58:53.8130,0.51,0.22,-0.01
2020-08-13 11:58:53.9080,0.27,-0.05,-0.0
2020-08-13 11:58:54.0080,0.04,-0.16,0.05
2020-08-13 11:58:54.1070,-0.07,-0.14,0.07
2020-08-13 11:58:54.1790,-0.39,-0.2,0.02
2020-08-13 11:58:54.2680,-0.89,-0.11,-0.06
2020-08-13 11:58:54.3590,-1.08,-0.06,-0.16
2020-08-13 11:58:54.4490,-0.26,-0.14,-0.25
2020-08-13 11:58:54.5390,-0.16,0.07,0.11
2020-08-13 11:58:54.6300,-0.03,0.02,0.03
2020-08-13 11:58:54.7180,0.01,0.0,-0.02
2020-08-13 11:58:54.8080,-0.02,0.02,-0.01
2020-08-13 11:58:54.9010,-0.0,0.0,-0.01
2020-08-13 11:58:55.0000,-0.01,0.03,-0.01
2020-08-13 11:58:55.1010,-0.02,0.02,-0.01
2020-08-13 11:58:55.1690,0.01,-0.01,-0.01
2020-08-13 11:58:55.2580,0.03,-0.06,-0.06
2020-08-13 11:58:55.3480,0.07,-0.11,0.06
2020-08-13 11:58:55.4390,0.32,-0.37,0.0
2020-08-13 11:58:55.5280,0.28,-0.34,0.2
2020-08-13 11:58:55.6190,0.33,0.11,-0.01
2020-08-13 11:58:55.7090,0.57,0.21,-0.03
2020-08-13 11:58:55.7980,0.43,0.06,-0.1
2020-08-13 11:58:55.8910,0.24,-0.04,0.04
2020-08-13 11:58:55.9900,-0.1,-0.24,0.13
2020-08-13 11:58:56.0930,-0.3,-0.27,0.12
2020-08-13 11:58:56.1880,-0.69,-0.15,-0.0
2020-08-13 11:58:56.2480,-0.99,-0.04,-0.15
2020-08-13 11:58:56.3380,1.28,-0.07,-0.02
2020-08-13 11:58:56.4280,-0.22,-0.2,0.24
2020-08-13 11:58:56.5200,-0.01,-0.01,-0.13
2020-08-13 11:58:56.6080,-0.05,0.02,0.05
2020-08-13 11:58:56.6990,-0.07,0.01,-0.02
2020-08-13 11:58:56.7910,-0.04,0.04,0.01
2020-08-13 11:58:56.8820,-0.01,0.02,-0.0
2020-08-13 11:58:56.9820,-0.01,0.01,-0.02
2020-08-13 11:58:57.0820,0.01,0.02,-0.02
2020-08-13 11:58:57.1800,0.02,0.0,-0.01
2020-08-13 11:58:57.2390,-0.0,-0.1,-0.05
2020-08-13 11:58:57.3420,0.19,-0.24,0.04
2020-08-13 11:58:57.4310,0.23,-0.35,0.02
2020-08-13 11:58:57.5140,0.3,-0.29,0.09
2020-08-13 11:58:57.6100,-0.11,0.11,0.18
2020-08-13 11:58:57.6940,0.53,0.28,-0.01
2020-08-13 11:58:57.7850,0.46,0.13,-0.02
2020-08-13 11:58:57.8770,0.18,-0.11,0.01
2020-08-13 11:58:57.9830,-0.08,-0.19,0.04
2020-08-13 11:58:58.0740,-0.33,-0.33,-0.04
2020-08-13 11:58:58.1700,-1.02,-0.18,0.03
2020-08-13 11:58:58.2700,-1.0,-0.12,-0.19
2020-08-13 11:58:58.3240,-0.1,-0.03,-0.15
2020-08-13 11:58:58.4230,-0.02,0.02,0.0
2020-08-13 11:58:58.5120,-0.13,0.0,0.01
2020-08-13 11:58:58.5930,-0.04,0.0,-0.01
2020-08-13 11:58:58.6900,-0.04,0.03,0.02
2020-08-13 11:58:58.7740,0.01,0.04,0.0
2020-08-13 11:58:58.8720,0.01,0.02,0.0
2020-08-13 11:58:58.9680,-0.0,0.01,-0.01
2020-08-13 11:58:59.0670,0.0,-0.02,-0.0
2020-08-13 11:58:59.1650,0.02,-0.06,0.01
2020-08-13 11:58:59.2640,0.12,-0.22,0.01
2020-08-13 11:58:59.3240,0.27,-0.37,0.1
2020-08-13 11:58:59.4140,0.35,-0.34,0.14
2020-08-13 11:58:59.5050,0.06,-0.01,-0.02
2020-08-13 11:58:59.5970,0.58,0.29,0.02
2020-08-13 11:58:59.6860,0.51,0.13,0.06
2020-08-13 11:58:59.7760,0.14,-0.17,0.02
2020-08-13 11:58:59.8730,-0.23,-0.21,0.12
2020-08-13 11:58:59.9610,-0.33,-0.08,0.03
2020-08-13 11:59:00.0560,-0.44,-0.11,-0.1
2020-08-13 11:59:00.1570,-1.06,-0.09,0.04
2020-08-13 11:59:00.2560,0.72,-0.32,-0.25
2020-08-13 11:59:00.3530,-0.23,-0.03,0.26
2020-08-13 11:59:00.4520,-0.0,-0.06,-0.21
2020-08-13 11:59:00.5510,0.04,0.05,0.05
2020-08-13 11:59:00.6050,-0.01,0.04,0.02
2020-08-13 11:59:00.7040,0.02,0.01,-0.06
2020-08-13 11:59:00.7850,-0.03,-0.01,0.02
2020-08-13 11:59:00.8820,0.01,0.07,0.03
2020-08-13 11:59:00.9720,0.03,0.01,-0.04
2020-08-13 11:59:01.0620,0.05,-0.02,-0.02
2020-08-13 11:59:01.1480,0.07,-0.09,-0.01
2020-08-13 11:59:01.2450,0.17,-0.25,0.05
2020-08-13 11:59:01.3450,0.38,-0.45,0.12
2020-08-13 11:59:01.4540,0.15,0.02,0.12
2020-08-13 11:59:01.5430,0.55,0.16,0.09
2020-08-13 11:59:01.6060,0.5,0.25,-0.01
2020-08-13 11:59:01.6870,0.28,-0.01,0.02
2020-08-13 11:59:01.7850,0.08,-0.1,0.06
2020-08-13 11:59:01.8740,-0.09,-0.15,0.07
2020-08-13 11:59:01.9630,-0.28,-0.13,0.02
2020-08-13 11:59:02.0520,-0.65,-0.13,-0.02
2020-08-13 11:59:02.1410,-0.99,-0.02,-0.03
2020-08-13 11:59:02.2420,-0.61,-0.38,0.12
2020-08-13 11:59:02.3360,-0.36,0.1,0.22
2020-08-13 11:59:02.4380,-0.01,-0.0,-0.06
2020-08-13 11:59:02.5350,-0.01,0.01,-0.01
2020-08-13 11:59:02.5950,-0.04,0.01,-0.01
2020-08-13 11:59:02.6840,-0.01,0.02,0.01
2020-08-13 11:59:02.7760,0.03,0.01,0.02
2020-08-13 11:59:02.8660,0.02,0.04,0.0
2020-08-13 11:59:02.9560,-0.02,0.04,-0.01
2020-08-13 11:59:03.0470,0.0,-0.05,-0.04
2020-08-13 11:59:03.1360,0.07,-0.22,-0.04
2020-08-13 11:59:03.2300,0.26,-0.34,-0.01
2020-08-13 11:59:03.3270,0.48,-0.43,0.25
2020-08-13 11:59:03.4290,0.03,0.1,0.13
2020-08-13 11:59:03.5250,0.52,0.31,-0.03
2020-08-13 11:59:03.5870,0.22,0.26,-0.03
2020-08-13 11:59:03.6870,0.07,-0.02,-0.02
2020-08-13 11:59:03.7760,-0.01,-0.06,-0.01
2020-08-13 11:59:03.8660,-0.25,-0.21,0.03
2020-08-13 11:59:03.9600,-0.64,-0.22,0.02
2020-08-13 11:59:04.0500,-1.16,-0.07,-0.06
2020-08-13 11:59:04.1390,-0.3,-0.54,-0.16
2020-08-13 11:59:04.2300,-0.2,0.01,0.13
2020-08-13 11:59:04.3200,-0.09,-0.03,-0.05
2020-08-13 11:59:04.4190,-0.01,0.02,0.04
2020-08-13 11:59:04.5170,-0.07,0.0,-0.01
2020-08-13 11:59:04.6160,-0.0,0.0,-0.03
2020-08-13 11:59:04.7170,-0.02,0.02,-0.03
2020-08-13 11:59:04.8150,-0.02,0.04,-0.03
2020-08-13 11:59:04.8690,0.02,0.01,-0.04
2020-08-13 11:59:04.9660,0.07,-0.05,-0.02
2020-08-13 11:59:05.0550,0.08,-0.13,-0.0
2020-08-13 11:59:05.1480,0.31,-0.38,0.08
2020-08-13 11:59:05.2370,0.25,-0.33,0.2
2020-08-13 11:59:05.3260,0.01,0.07,0.21
2020-08-13 11:59:05.4160,0.61,0.28,-0.02
2020-08-13 11:59:05.5210,0.33,0.02,-0.04
2020-08-13 11:59:05.6120,0.07,-0.02,0.08
2020-08-13 11:59:05.7100,-0.19,-0.11,0.01
2020-08-13 11:59:05.8050,-0.34,-0.17,0.0
2020-08-13 11:59:05.9040,-0.73,-0.2,-0.04
2020-08-13 11:59:05.9590,-0.96,-0.06,-0.08
2020-08-13 11:59:06.0560,-0.54,-0.54,-0.19
2020-08-13 11:59:06.1390,-0.23,-0.03,0.17
2020-08-13 11:59:06.2410,-0.05,-0.06,-0.19
2020-08-13 11:59:06.3310,-0.03,0.03,0.02
2020-08-13 11:59:06.4200,0.02,0.02,0.0
2020-08-13 11:59:06.5100,0.0,0.01,0.0
2020-08-13 11:59:06.6120,0.01,0.02,-0.01
2020-08-13 11:59:06.7010,-0.04,-0.01,-0.03
2020-08-13 11:59:06.7980,0.07,0.07,0.02
2020-08-13 11:59:06.8970,0.03,0.0,-0.02
2020-08-13 11:59:06.9950,0.01,-0.07,-0.04
2020-08-13 11:59:07.0660,0.17,-0.25,0.02
2020-08-13 11:59:07.1480,0.28,-0.4,0.08
2020-08-13 11:59:07.2460,0.23,-0.22,0.06
2020-08-13 11:59:07.3450,0.84,0.22,0.02
2020-08-13 11:59:07.4410,0.47,0.18,0.01
2020-08-13 11:59:07.5170,0.06,-0.05,0.02
2020-08-13 11:59:07.6210,0.0,-0.06,-0.02
2020-08-13 11:59:07.6980,-0.23,-0.04,-0.0
2020-08-13 11:59:07.8020,-0.45,-0.06,0.04
2020-08-13 11:59:07.8910,-0.8,-0.2,-0.09
2020-08-13 11:59:07.9890,-1.02,-0.21,-0.18
2020-08-13 11:59:08.0860,-0.01,-0.18,-0.29
2020-08-13 11:59:08.1840,-0.1,-0.05,-0.01
2020-08-13 11:59:08.2910,-0.08,0.01,0.05
2020-08-13 11:59:08.3400,-0.04,0.01,-0.01
2020-08-13 11:59:08.4300,-0.02,0.01,-0.0
2020-08-13 11:59:08.5210,-0.0,0.02,0.01
2020-08-13 11:59:08.6110,-0.03,0.01,-0.01
2020-08-13 11:59:08.7000,0.03,0.04,0.0
2020-08-13 11:59:08.7900,0.01,-0.02,-0.08
2020-08-13 11:59:08.8810,0.0,-0.09,0.0
2020-08-13 11:59:08.9810,0.14,-0.22,0.02
2020-08-13 11:59:09.0780,0.28,-0.33,0.04
2020-08-13 11:59:09.1750,0.18,-0.12,0.11
2020-08-13 11:59:09.2740,0.18,0.02,0.21
2020-08-13 11:59:09.3470,0.63,0.3,-0.02
2020-08-13 11:59:09.4280,0.48,0.06,-0.02
2020-08-13 11:59:09.5270,0.18,-0.12,0.06
2020-08-13 11:59:09.6060,-0.08,-0.21,0.05
2020-08-13 11:59:09.6950,-0.39,-0.32,0.03
2020-08-13 11:59:09.7940,-0.81,-0.16,-0.02
2020-08-13 11:59:09.8750,-1.04,0.01,-0.07
2020-08-13 11:59:09.9690,-0.23,-0.33,-0.04
2020-08-13 11:59:10.0700,-0.5,0.03,0.06
2020-08-13 11:59:10.1680,-0.09,0.0,-0.05
2020-08-13 11:59:10.2710,0.02,0.05,0.03
2020-08-13 11:59:10.3310,-0.03,0.05,0.0
2020-08-13 11:59:10.4200,-0.01,0.02,-0.05
2020-08-13 11:59:10.5160,0.02,0.05,0.05
2020-08-13 11:59:10.6070,0.04,0.02,-0.05
2020-08-13 11:59:10.6890,0.0,-0.03,-0.07
2020-08-13 11:59:10.7790,0.01,-0.06,-0.04
2020-08-13 11:59:10.8770,0.05,-0.08,-0.02
2020-08-13 11:59:10.9620,0.27,-0.23,0.02
2020-08-13 11:59:11.0620,0.34,-0.42,0.16
2020-08-13 11:59:11.1610,0.2,0.05,0.13
2020-08-13 11:59:11.2590,0.81,0.17,0.07
2020-08-13 11:59:11.3150,0.5,0.18,-0.06
2020-08-13 11:59:11.4110,0.16,-0.0,-0.04
2020-08-13 11:59:11.4950,-0.07,-0.13,0.03
2020-08-13 11:59:11.5970,-0.25,-0.11,0.07
2020-08-13 11:59:11.6860,-0.43,-0.14,0.05
2020-08-13 11:59:11.7770,-0.78,-0.15,-0.04
2020-08-13 11:59:11.8670,-0.79,-0.04,-0.25
2020-08-13 11:59:11.9650,-0.35,-0.33,0.18
2020-08-13 11:59:12.0550,-0.02,0.05,0.06
2020-08-13 11:59:12.1610,-0.15,-0.02,-0.03
2020-08-13 11:59:12.2500,-0.02,0.01,-0.02
2020-08-13 11:59:12.3480,-0.02,0.02,-0.0
2020-08-13 11:59:12.4480,-0.01,0.02,-0.01
2020-08-13 11:59:12.5120,-0.0,0.03,-0.0
2020-08-13 11:59:12.6010,-0.03,-0.01,-0.05
2020-08-13 11:59:12.6780,0.03,-0.0,-0.0
2020-08-13 11:59:12.7900,-0.0,-0.08,-0.03
2020-08-13 11:59:12.8870,0.14,-0.23,0.05
2020-08-13 11:59:12.9690,0.38,-0.45,0.06
2020-08-13 11:59:13.0520,0.07,-0.3,0.09
2020-08-13 11:59:13.1560,0.55,0.18,0.14
2020-08-13 11:59:13.2420,0.51,0.33,0.04
2020-08-13 11:59:13.3410,0.31,-0.06,0.02
2020-08-13 11:59:13.4400,0.05,-0.11,0.09
2020-08-13 11:59:13.5420,-0.18,-0.29,0.1
2020-08-13 11:59:13.5950,-0.43,-0.2,0.06
2020-08-13 11:59:13.6930,-0.57,-0.06,0.0
2020-08-13 11:59:13.7830,-0.67,0.03,-0.15
2020-08-13 11:59:13.8770,0.25,-0.04,-0.2
2020-08-13 11:59:13.9600,-0.27,-0.14,0.09
2020-08-13 11:59:14.0580,-0.07,-0.03,-0.15
2020-08-13 11:59:14.1380,-0.05,0.01,0.08
2020-08-13 11:59:14.2370,-0.0,0.05,0.01
2020-08-13 11:59:14.3330,-0.15,-0.07,-0.06
2020-08-13 11:59:14.4310,0.09,0.1,0.1
2020-08-13 11:59:14.5310,0.01,0.04,0.01
2020-08-13 11:59:14.5870,0.01,0.02,-0.04
2020-08-13 11:59:14.6760,-0.01,0.02,0.0
2020-08-13 11:59:14.7660,0.01,-0.06,-0.06
2020-08-13 11:59:14.8550,0.18,-0.21,0.02
2020-08-13 11:59:14.9450,0.24,-0.49,0.06
2020-08-13 11:59:15.0350,0.18,-0.22,0.16
2020-08-13 11:59:15.1230,0.1,0.08,0.0
2020-08-13 11:59:15.2270,0.51,0.28,-0.07
2020-08-13 11:59:15.3170,0.48,0.12,0.01
2020-08-13 11:59:15.4150,0.32,-0.08,0.02
2020-08-13 11:59:15.5140,-0.0,-0.21,0.02
2020-08-13 11:59:15.6140,-0.29,-0.29,0.08
2020-08-13 11:59:15.7130,-0.72,-0.2,-0.07
2020-08-13 11:59:15.7680,-0.79,-0.02,-0.14
2020-08-13 11:59:15.8650,0.67,-0.41,-0.12
2020-08-13 11:59:15.9630,-0.45,-0.33,0.39
2020-08-13 11:59:16.0530,-0.05,-0.05,-0.16
2020-08-13 11:59:16.1420,-0.05,0.0,-0.01
2020-08-13 11:59:16.2320,-0.03,0.06,0.04
2020-08-13 11:59:16.3220,-0.14,-0.04,-0.08
2020-08-13 11:59:16.4280,-0.03,0.02,0.0
2020-08-13 11:59:16.5090,0.01,0.03,0.04
2020-08-13 11:59:16.6080,0.02,0.03,-0.06
2020-08-13 11:59:16.7070,0.03,-0.02,-0.03
2020-08-13 11:59:16.8040,0.04,-0.06,-0.06
2020-08-13 11:59:16.8620,0.06,-0.21,0.03
2020-08-13 11:59:16.9520,0.3,-0.4,0.04
2020-08-13 11:59:17.0430,0.09,-0.2,0.14
2020-08-13 11:59:17.1330,0.43,0.06,0.11
2020-08-13 11:59:17.2230,0.5,0.23,-0.1
2020-08-13 11:59:17.3280,0.23,-0.03,0.03
2020-08-13 11:59:17.4030,0.08,-0.01,0.04
2020-08-13 11:59:17.4990,-0.09,-0.11,0.07
2020-08-13 11:59:17.6040,-0.25,-0.18,0.0
2020-08-13 11:59:17.6990,-0.61,-0.14,0.02
2020-08-13 11:59:17.7940,-0.87,-0.04,0.04
2020-08-13 11:59:17.8930,1.25,-0.09,-0.26
2020-08-13 11:59:17.9480,-0.13,0.14,0.08
2020-08-13 11:59:18.0360,-0.1,-0.07,-0.24
2020-08-13 11:59:18.1260,-0.04,0.02,0.11
2020-08-13 11:59:18.2160,-0.04,0.02,-0.05
2020-08-13 11:59:18.3060,-0.05,0.03,-0.02
2020-08-13 11:59:18.3940,-0.0,0.02,-0.02
2020-08-13 11:59:18.4900,-0.03,0.03,0.0
2020-08-13 11:59:18.5890,-0.0,0.0,-0.04
2020-08-13 11:59:18.6870,-0.01,-0.02,-0.03
2020-08-13 11:59:18.7900,-0.02,-0.08,-0.03
2020-08-13 11:59:18.8850,0.18,-0.3,0.03
2020-08-13 11:59:18.9400,0.28,-0.29,0.04
2020-08-13 11:59:19.0250,0.34,-0.17,0.07
2020-08-13 11:59:19.1170,0.33,0.14,0.22
2020-08-13 11:59:19.2060,0.57,0.23,0.01
2020-08-13 11:59:19.2970,0.41,0.03,-0.03
2020-08-13 11:59:19.3880,0.11,-0.19,0.09
2020-08-13 11:59:19.4830,-0.17,-0.27,0.16
2020-08-13 11:59:19.5790,-0.54,-0.23,0.07
2020-08-13 11:59:19.6780,-0.74,-0.04,-0.12
2020-08-13 11:59:19.7780,-0.81,0.01,-0.19
2020-08-13 11:59:19.8760,-0.22,-0.41,0.06
2020-08-13 11:59:19.9310,-0.14,-0.01,0.15
2020-08-13 11:59:20.0290,0.03,-0.03,-0.18
2020-08-13 11:59:20.1100,0.01,0.02,0.01
2020-08-13 11:59:20.1970,-0.06,-0.01,-0.02
2020-08-13 11:59:20.2870,-0.02,0.01,0.01
2020-08-13 11:59:20.3810,-0.0,0.02,0.0
2020-08-13 11:59:20.4720,-0.02,0.03,-0.0
2020-08-13 11:59:20.5690,0.01,0.02,-0.02
2020-08-13 11:59:20.6680,0.0,-0.05,-0.0
2020-08-13 11:59:20.7690,0.06,-0.07,-0.02
2020-08-13 11:59:20.8660,0.13,-0.18,0.04
2020-08-13 11:59:20.9280,0.21,-0.28,0.11
2020-08-13 11:59:21.0190,0.3,-0.16,0.16
2020-08-13 11:59:21.1080,0.55,0.01,0.18
2020-08-13 11:59:21.1990,0.61,0.21,-0.01
2020-08-13 11:59:21.2890,0.3,-0.04,-0.01
2020-08-13 11:59:21.3870,0.04,-0.21,0.01
2020-08-13 11:59:21.4840,-0.25,-0.2,0.14
2020-08-13 11:59:21.5740,-0.42,-0.18,0.05
2020-08-13 11:59:21.6640,-0.75,-0.06,0.02
2020-08-13 11:59:21.7630,-0.87,-0.01,-0.09
2020-08-13 11:59:21.8710,-0.14,-0.32,-0.02
2020-08-13 11:59:21.9190,-0.64,-0.19,0.05
2020-08-13 11:59:22.0120,-0.13,0.02,0.08
2020-08-13 11:59:22.1100,0.02,0.02,-0.0
2020-08-13 11:59:22.1920,-0.05,0.02,0.01
2020-08-13 11:59:22.2880,-0.01,0.04,-0.0
2020-08-13 11:59:22.3840,0.03,0.05,0.04
2020-08-13 11:59:22.4590,-0.0,0.0,-0.03
2020-08-13 11:59:22.5640,0.06,0.05,0.02
2020-08-13 11:59:22.6520,-0.03,0.01,-0.02
2020-08-13 11:59:22.7520,0.02,-0.08,-0.04
2020-08-13 11:59:22.8510,0.15,-0.29,-0.0
2020-08-13 11:59:22.9490,0.24,-0.43,0.05
2020-08-13 11:59:23.0000,0.18,-0.1,0.16
2020-08-13 11:59:23.1010,0.66,0.23,-0.06
2020-08-13 11:59:23.1900,0.56,0.21,0.0
2020-08-13 11:59:23.2730,0.36,-0.09,0.05
2020-08-13 11:59:23.3690,-0.01,-0.21,0.03
2020-08-13 11:59:23.4520,-0.18,-0.15,0.08
2020-08-13 11:59:23.5460,-0.23,-0.14,0.05
2020-08-13 11:59:23.6440,-0.42,-0.12,0.02
2020-08-13 11:59:23.7430,-0.72,-0.0,-0.03
2020-08-13 11:59:23.8420,-0.56,-0.04,-0.25
2020-08-13 11:59:23.9410,-0.32,-0.28,-0.01
2020-08-13 11:59:23.9950,-0.26,0.01,0.02
2020-08-13 11:59:24.0960,-0.08,0.03,0.13
2020-08-13 11:59:24.1930,-0.04,0.02,-0.0
2020-08-13 11:59:24.2890,-0.03,0.03,0.0
2020-08-13 11:59:24.3650,-0.02,0.01,-0.02
2020-08-13 11:59:24.4690,-0.0,0.01,0.01
2020-08-13 11:59:24.5450,0.01,0.02,0.01
2020-08-13 11:59:24.6360,0.03,0.02,0.01
2020-08-13 11:59:24.7330,-0.0,-0.05,0.0
2020-08-13 11:59:24.8330,0.09,-0.16,-0.03
2020-08-13 11:59:24.9320,0.25,-0.35,0.08
2020-08-13 11:59:25.0340,0.46,-0.22,0.08
2020-08-13 11:59:25.0880,-0.09,-0.04,0.09
2020-08-13 11:59:25.1840,0.58,0.32,-0.05
2020-08-13 11:59:25.2680,0.5,0.22,0.05
2020-08-13 11:59:25.3550,0.22,-0.1,0.04
2020-08-13 11:59:25.4600,0.01,-0.31,0.0
2020-08-13 11:59:25.5350,-0.27,-0.27,0.11
2020-08-13 11:59:25.6270,-0.51,-0.16,0.04
2020-08-13 11:59:25.7240,-0.67,-0.02,-0.09
2020-08-13 11:59:25.8250,-0.7,-0.03,-0.08
2020-08-13 11:59:25.9240,-0.24,-0.4,0.08
2020-08-13 11:59:26.0240,-0.16,0.03,0.08
2020-08-13 11:59:26.0780,-0.11,-0.01,-0.01
2020-08-13 11:59:26.1790,-0.02,0.03,0.0
2020-08-13 11:59:26.2690,0.04,0.06,0.01
2020-08-13 11:59:26.3590,-0.01,0.01,-0.01
2020-08-13 11:59:26.4490,-0.05,-0.0,0.0
2020-08-13 11:59:26.5420,0.01,0.02,0.05
2020-08-13 11:59:26.6290,0.06,0.01,-0.01
2020-08-13 11:59:26.7180,-0.02,-0.02,-0.03
2020-08-13 11:59:26.8180,0.08,-0.21,-0.1
2020-08-13 11:59:26.9140,0.32,-0.38,0.15
2020-08-13 11:59:27.0120,0.44,-0.34,0.1
2020-08-13 11:59:27.1110,0.24,0.12,0.19
2020-08-13 11:59:27.2110,0.63,0.24,-0.02
2020-08-13 11:59:27.2650,0.39,0.01,-0.02
2020-08-13 11:59:27.3640,0.01,-0.11,0.04
2020-08-13 11:59:27.4530,0.02,-0.24,0.09
2020-08-13 11:59:27.5330,-0.22,-0.23,0.09
2020-08-13 11:59:27.6310,-0.47,-0.13,-0.05
2020-08-13 11:59:27.7130,-0.69,0.05,0.05
2020-08-13 11:59:27.8150,-0.59,-0.15,-0.24
2020-08-13 11:59:27.9050,-0.31,-0.3,-0.01
2020-08-13 11:59:28.0040,-0.19,0.0,0.08
2020-08-13 11:59:28.1040,-0.19,-0.04,0.02
2020-08-13 11:59:28.1670,-0.03,0.01,-0.02
2020-08-13 11:59:28.2560,-0.0,0.03,0.01
2020-08-13 11:59:28.3550,0.01,0.03,0.01
2020-08-13 11:59:28.4350,0.02,0.03,0.01
2020-08-13 11:59:28.5330,-0.04,-0.01,-0.03
2020-08-13 11:59:28.6230,0.02,-0.01,0.02
2020-08-13 11:59:28.7040,0.04,0.0,-0.03
2020-08-13 11:59:28.8010,0.09,-0.08,-0.01
2020-08-13 11:59:28.8990,0.25,-0.34,0.03
2020-08-13 11:59:28.9950,0.25,-0.21,0.06
2020-08-13 11:59:29.0940,0.04,-0.03,0.0
2020-08-13 11:59:29.1580,0.63,0.33,-0.06
2020-08-13 11:59:29.2470,0.46,0.17,0.01
2020-08-13 11:59:29.3450,0.19,-0.11,0.06
2020-08-13 11:59:29.4340,-0.08,-0.2,0.04
2020-08-13 11:59:29.5280,-0.17,-0.14,0.06
2020-08-13 11:59:29.6160,-0.3,-0.12,0.03
2020-08-13 11:59:29.7060,-0.47,-0.0,0.03
2020-08-13 11:59:29.7940,-0.41,0.05,-0.03
2020-08-13 11:59:29.8880,-0.34,-0.05,-0.21
2020-08-13 11:59:29.9870,-0.37,-0.32,0.08
2020-08-13 11:59:30.0870,-0.24,0.02,0.2
2020-08-13 11:59:30.1850,-0.03,0.03,0.07
2020-08-13 11:59:30.2440,0.02,-0.0,-0.06
2020-08-13 11:59:30.3380,0.02,0.02,-0.01
2020-08-13 11:59:30.4270,0.0,0.03,-0.03
2020-08-13 11:59:30.5180,0.01,0.01,-0.06
2020-08-13 11:59:30.6060,-0.07,0.02,-0.08
2020-08-13 11:59:30.6960,-0.06,0.05,-0.05
2020-08-13 11:59:30.7860,-0.05,-0.0,-0.07
2020-08-13 11:59:30.8820,-0.07,0.09,0.1
2020-08-13 11:59:30.9800,-0.06,-0.04,-0.01
2020-08-13 11:59:31.0790,-0.06,0.06,-0.06
2020-08-13 11:59:31.1770,-0.09,-0.01,-0.02
2020-08-13 11:59:31.2360,-0.0,0.04,-0.02
2020-08-13 11:59:31.3380,-0.01,0.05,-0.02
2020-08-13 11:59:31.4270,-0.03,0.06,-0.02
2020-08-13 11:59:31.5100,0.07,-0.02,-0.03
2020-08-13 11:59:31.6060,0.01,0.01,0.01
2020-08-13 11:59:31.6890,-0.02,0.03,0.01
2020-08-13 11:59:31.7900,-0.04,0.04,-0.01
2020-08-13 11:59:31.8830,0.0,0.02,-0.01
2020-08-13 11:59:31.9820,0.01,0.02,-0.02
2020-08-13 11:59:32.0710,0.02,0.02,-0.01
2020-08-13 11:59:32.1680,0.01,0.03,-0.01
2020-08-13 11:59:32.2660,-0.0,0.03,0.0
2020-08-13 11:59:32.3670,0.02,0.0,-0.01
2020-08-13 11:59:32.4640,0.0,-0.01,0.0
2020-08-13 11:59:32.5260,0.03,0.05,-0.03
2020-08-13 11:59:32.6070,-0.01,0.04,-0.01
2020-08-13 11:59:32.7060,-0.03,0.05,-0.01
2020-08-13 11:59:32.7860,-0.02,0.01,0.05
2020-08-13 11:59:32.8750,0.05,0.04,-0.01
2020-08-13 11:59:32.9740,0.04,-0.02,-0.0
2020-08-13 11:59:33.0630,-0.01,-0.0,-0.04
2020-08-13 11:59:33.1590,0.16,-0.03,-0.04
2020-08-13 11:59:33.2580,0.02,0.12,-0.02
2020-08-13 11:59:33.3600,0.13,0.01,-0.04
2020-08-13 11:59:33.4570,0.01,0.03,-0.03
2020-08-13 11:59:33.5150,0.02,0.06,0.01
2020-08-13 11:59:33.6050,-0.02,0.03,-0.02
2020-08-13 11:59:33.6960,0.05,0.02,0.02
2020-08-13 11:59:33.7850,0.0,0.03,0.02
2020-08-13 11:59:33.8760,0.04,0.0,-0.02
2020-08-13 11:59:33.9660,-0.02,0.05,-0.02
2020-08-13 11:59:34.0650,0.02,0.03,-0.02
2020-08-13 11:59:34.1550,0.09,0.03,-0.05
