time,ax,ay,az
2020-08-12 19:13:09.9340,0.01,0.24,0.15
2020-08-12 19:13:10.0330,-0.14,-0.04,0.09
2020-08-12 19:13:10.1350,-0.01,0.01,0.03
2020-08-12 19:13:10.2310,0.04,-0.03,-0.02
2020-08-12 19:13:10.3300,-0.02,-0.0,0.02
2020-08-12 19:13:10.4300,-0.01,0.01,0.0
2020-08-12 19:13:10.5290,0.01,-0.01,-0.02
2020-08-12 19:13:10.6280,0.01,0.0,-0.01
2020-08-12 19:13:10.7280,0.01,-0.01,0.02
2020-08-12 19:13:10.8270,-0.03,-0.0,0.0
2020-08-12 19:13:10.9260,-0.01,-0.03,0.05
2020-08-12 19:13:11.0250,0.05,0.0,-0.07
2020-08-12 19:13:11.1250,0.07,-0.02,0.01
2020-08-12 19:13:11.2240,-0.08,0.0,-0.01
2020-08-12 19:13:11.3230,0.07,-0.01,0.05
2020-08-12 19:13:11.4220,-0.02,0.01,-0.03
2020-08-12 19:13:11.5220,-0.01,-0.02,0.03
2020-08-12 19:13:11.6210,0.04,0.02,-0.06
2020-08-12 19:13:11.7200,-0.05,0.01,-0.02
2020-08-12 19:13:11.8200,-0.05,0.03,-0.0
2020-08-12 19:13:11.9190,-0.01,0.01,-0.02
2020-08-12 19:13:12.0180,0.04,0.0,-0.01
2020-08-12 19:13:12.1170,0.03,-0.02,-0.0
2020-08-12 19:13:12.2170,0.07,-0.02,0.03
2020-08-12 19:13:12.3160,-0.03,0.0,-0.02
2020-08-12 19:13:12.4150,-0.02,0.01,0.04
2020-08-12 19:13:12.5140,-0.01,-0.02,0.03
2020-08-12 19:13:12.6140,0.05,-0.01,0.01
2020-08-12 19:13:12.7130,-0.06,0.02,-0.01
2020-08-12 19:13:12.8120,0.0,-0.01,-0.03
2020-08-12 19:13:12.9110,-0.05,-0.0,-0.0
2020-08-12 19:13:13.0110,0.0,-0.02,-0.0
2020-08-12 19:13:13.1100,0.02,0.03,0.02
2020-08-12 19:13:13.2090,0.0,-0.01,0.04
2020-08-12 19:13:13.3090,-0.09,0.0,-0.05
2020-08-12 19:13:13.4080,-0.0,-0.07,0.03
2020-08-12 19:13:13.5070,0.15,-0.05,0.06
2020-08-12 19:13:13.6060,0.41,-0.19,0.09
2020-08-12 19:13:13.7060,0.14,0.17,0.34
2020-08-12 19:13:13.8050,0.42,0.21,-0.08
2020-08-12 19:13:13.9040,-0.1,-0.22,-0.26
2020-08-12 19:13:14.0030,-0.6,-0.06,-0.22
2020-08-12 19:13:14.1030,0.63,-0.21,0.06
2020-08-12 19:13:14.2020,-0.1,-0.01,-0.01
2020-08-12 19:13:14.3010,0.07,-0.02,-0.05
2020-08-12 19:13:14.4000,-0.12,-0.01,0.12
2020-08-12 19:13:14.5000,0.06,-0.01,-0.05
2020-08-12 19:13:14.5990,0.0,-0.01,0.04
2020-08-12 19:13:14.6980,0.05,-0.03,0.02
2020-08-12 19:13:14.7980,0.23,-0.13,0.2
2020-08-12 19:13:14.8970,0.2,-0.45,-0.03
2020-08-12 19:13:14.9960,0.4,-0.21,0.36
2020-08-12 19:13:15.0950,0.47,0.13,0.21
2020-08-12 19:13:15.1950,0.25,0.26,0.04
2020-08-12 19:13:15.2940,0.17,-0.04,-0.1
2020-08-12 19:13:15.3930,-0.41,-0.52,0.03
2020-08-12 19:13:15.4930,-0.58,-0.09,-0.2
2020-08-12 19:13:15.5920,0.8,-0.3,-0.12
2020-08-12 19:13:15.6910,-0.44,0.49,0.27
2020-08-12 19:13:15.7900,0.3,-0.06,-0.27
2020-08-12 19:13:15.8900,-0.07,0.1,0.22
2020-08-12 19:13:15.9890,-0.04,0.02,-0.01
2020-08-12 19:13:16.0880,-0.04,0.02,0.01
2020-08-12 19:13:16.1870,0.08,-0.04,-0.01
2020-08-12 19:13:16.2870,0.16,-0.02,0.05
2020-08-12 19:13:16.3860,-0.09,-0.06,-0.07
2020-08-12 19:13:16.4850,0.18,-0.23,0.09
2020-08-12 19:13:16.5840,0.44,-0.41,0.13
2020-08-12 19:13:16.6830,0.63,-0.43,0.31
2020-08-12 19:13:16.7830,0.3,0.17,0.18
2020-08-12 19:13:16.8820,0.7,0.3,-0.24
2020-08-12 19:13:16.9820,-0.35,-0.27,-0.11
2020-08-12 19:13:17.0810,-1.25,-0.43,0.18
2020-08-12 19:13:17.1800,-0.79,-0.21,0.15
2020-08-12 19:13:17.2790,-0.44,-0.02,-0.14
2020-08-12 19:13:17.3790,0.01,0.03,0.18
2020-08-12 19:13:17.4780,-0.05,0.02,0.06
2020-08-12 19:13:17.5770,0.15,-0.01,-0.09
2020-08-12 19:13:17.6770,0.03,0.01,-0.02
2020-08-12 19:13:17.7760,0.03,-0.04,0.09
2020-08-12 19:13:17.8750,0.09,-0.09,0.05
2020-08-12 19:13:17.9740,0.39,-0.55,0.08
2020-08-12 19:13:18.0740,0.3,-0.28,0.07
2020-08-12 19:13:18.1730,0.27,0.12,0.23
2020-08-12 19:13:18.2720,0.43,0.24,0.06
2020-08-12 19:13:18.3710,0.2,0.07,0.02
2020-08-12 19:13:18.4710,-0.2,-0.32,-0.01
2020-08-12 19:13:18.5700,-0.72,-0.34,-0.11
2020-08-12 19:13:18.6690,-0.31,-0.37,-0.35
2020-08-12 19:13:18.7680,-0.44,-0.0,0.09
2020-08-12 19:13:18.8680,-0.07,-0.01,-0.14
2020-08-12 19:13:18.9670,-0.22,0.02,0.16
2020-08-12 19:13:19.0660,0.05,0.01,0.0
2020-08-12 19:13:19.1650,0.02,-0.01,0.0
2020-08-12 19:13:19.2650,0.09,-0.02,0.04
2020-08-12 19:13:19.3640,0.09,-0.13,0.02
2020-08-12 19:13:19.4630,0.25,-0.27,0.09
2020-08-12 19:13:19.5620,0.57,-0.58,0.27
2020-08-12 19:13:19.6620,0.54,-0.09,0.27
2020-08-12 19:13:19.7610,0.6,0.23,-0.24
2020-08-12 19:13:19.8600,0.29,0.05,0.03
2020-08-12 19:13:19.9600,-0.19,-0.27,-0.07
2020-08-12 19:13:20.0590,-1.58,-0.42,0.19
2020-08-12 19:13:20.1580,0.99,-0.31,0.06
2020-08-12 19:13:20.2580,-0.43,0.11,-0.13
2020-08-12 19:13:20.3570,0.04,-0.1,0.0
2020-08-12 19:13:20.4560,-0.12,0.02,0.08
2020-08-12 19:13:20.5550,0.0,0.02,-0.0
2020-08-12 19:13:20.6540,-0.03,-0.03,0.01
2020-08-12 19:13:20.7540,0.18,-0.02,0.02
2020-08-12 19:13:20.8530,0.05,-0.09,0.05
2020-08-12 19:13:20.9520,0.25,-0.35,0.09
2020-08-12 19:13:21.0510,0.44,-0.44,0.18
2020-08-12 19:13:21.1510,0.33,0.04,0.32
2020-08-12 19:13:21.2500,0.47,0.26,-0.08
2020-08-12 19:13:21.3490,0.36,0.07,0.08
2020-08-12 19:13:21.4490,-0.25,-0.33,0.02
2020-08-12 19:13:21.5480,-1.17,-0.23,0.06
2020-08-12 19:13:21.6470,-0.37,-0.25,0.06
2020-08-12 19:13:21.7460,-0.48,-0.15,-0.07
2020-08-12 19:13:21.8460,-0.2,-0.26,0.04
2020-08-12 19:13:21.9450,-0.03,0.07,0.26
2020-08-12 19:13:22.0450,-0.02,0.02,0.05
2020-08-12 19:13:22.1440,-0.01,-0.03,-0.01
2020-08-12 19:13:22.2430,0.1,0.01,0.02
2020-08-12 19:13:22.3420,0.11,-0.11,0.12
2020-08-12 19:13:22.4410,0.25,-0.38,0.13
2020-08-12 19:13:22.5410,0.56,-0.48,0.24
2020-08-12 19:13:22.6400,0.51,0.14,0.41
2020-08-12 19:13:22.7390,0.54,0.27,-0.08
2020-08-12 19:13:22.8380,0.27,-0.06,0.03
2020-08-12 19:13:22.9380,-0.27,-0.24,0.04
2020-08-12 19:13:23.0370,-1.19,-0.2,0.16
2020-08-12 19:13:23.1360,-0.3,-0.35,-0.12
2020-08-12 19:13:23.2360,-0.41,0.15,-0.06
2020-08-12 19:13:23.3350,0.05,-0.15,-0.17
2020-08-12 19:13:23.4340,-0.24,-0.05,0.07
2020-08-12 19:13:23.5330,-0.07,0.02,-0.0
2020-08-12 19:13:23.6320,0.01,-0.01,-0.03
2020-08-12 19:13:23.7320,0.04,-0.09,0.05
2020-08-12 19:13:23.8310,0.22,-0.14,-0.01
2020-08-12 19:13:23.9300,0.35,-0.52,0.12
2020-08-12 19:13:24.0300,0.2,-0.32,0.2
2020-08-12 19:13:24.1290,0.22,0.09,0.17
2020-08-12 19:13:24.2280,0.61,0.23,-0.16
2020-08-12 19:13:24.3270,0.02,-0.1,-0.04
2020-08-12 19:13:24.4270,-0.38,-0.5,-0.03
2020-08-12 19:13:24.5260,-1.1,0.0,0.05
2020-08-12 19:13:24.6250,-0.17,-0.16,-0.08
2020-08-12 19:13:24.7240,-0.33,-0.48,-0.08
2020-08-12 19:13:24.8240,-0.09,-0.0,0.11
2020-08-12 19:13:24.9230,-0.15,0.04,0.11
2020-08-12 19:13:25.0220,0.12,0.05,0.05
2020-08-12 19:13:25.1220,0.03,-0.03,0.05
2020-08-12 19:13:25.2210,0.09,-0.04,-0.04
2020-08-12 19:13:25.3200,-0.03,0.03,0.04
2020-08-12 19:13:25.4190,0.0,-0.11,0.03
2020-08-12 19:13:25.5190,0.43,-0.51,0.07
2020-08-12 19:13:25.6180,0.3,-0.3,0.06
2020-08-12 19:13:25.7170,0.49,-0.04,0.3
2020-08-12 19:13:25.8160,0.52,0.2,-0.08
2020-08-12 19:13:25.9160,0.25,0.01,-0.04
2020-08-12 19:13:26.0150,-0.27,-0.56,-0.11
2020-08-12 19:13:26.1140,-1.12,-0.11,0.28
2020-08-12 19:13:26.2140,-0.77,-0.14,0.03
2020-08-12 19:13:26.3130,-0.28,-0.27,-0.1
2020-08-12 19:13:26.4120,-0.37,0.02,0.28
2020-08-12 19:13:26.5120,0.13,0.1,0.07
2020-08-12 19:13:26.6110,0.06,0.05,0.09
2020-08-12 19:13:26.7100,0.01,-0.03,0.02
2020-08-12 19:13:26.8090,-0.02,-0.01,0.03
2020-08-12 19:13:26.9080,0.08,-0.08,0.06
2020-08-12 19:13:27.0080,0.22,-0.29,0.09
2020-08-12 19:13:27.1070,0.55,-0.57,0.17
2020-08-12 19:13:27.2060,0.57,-0.19,0.49
2020-08-12 19:13:27.3050,0.59,0.18,-0.02
2020-08-12 19:13:27.4050,0.51,0.2,-0.1
2020-08-12 19:13:27.5040,-0.3,-0.12,-0.06
2020-08-12 19:13:27.6030,-0.91,-0.62,0.09
2020-08-12 19:13:27.7030,-1.05,-0.04,0.04
2020-08-12 19:13:27.8020,0.12,-0.27,0.17
2020-08-12 19:13:27.9010,-0.31,0.21,0.13
2020-08-12 19:13:28.0010,0.3,0.03,0.07
2020-08-12 19:13:28.1000,-0.03,-0.01,0.07
2020-08-12 19:13:28.1990,0.01,0.01,-0.02
2020-08-12 19:13:28.2980,-0.01,-0.03,0.04
2020-08-12 19:13:28.3980,0.07,-0.01,-0.02
2020-08-12 19:13:28.4970,0.08,-0.13,-0.04
2020-08-12 19:13:28.5960,0.2,-0.34,0.07
2020-08-12 19:13:28.6950,0.33,-0.32,0.1
2020-08-12 19:13:28.7950,0.59,-0.4,0.37
2020-08-12 19:13:28.8940,0.52,0.14,-0.03
2020-08-12 19:13:28.9930,0.52,0.27,-0.12
2020-08-12 19:13:29.0920,-0.02,-0.02,-0.04
2020-08-12 19:13:29.1920,-0.54,-0.54,0.04
2020-08-12 19:13:29.2910,-0.78,-0.02,0.02
2020-08-12 19:13:29.3900,0.27,-0.26,0.01
2020-08-12 19:13:29.4890,-0.28,0.19,-0.16
2020-08-12 19:13:29.5890,-0.01,-0.14,-0.26
2020-08-12 19:13:29.6880,-0.11,0.07,0.26
2020-08-12 19:13:29.7870,-0.07,0.03,0.02
2020-08-12 19:13:29.8870,0.06,-0.04,-0.0
2020-08-12 19:13:29.9860,0.01,-0.02,0.03
2020-08-12 19:13:30.0850,0.08,-0.12,0.05
2020-08-12 19:13:30.1850,0.3,-0.36,0.19
2020-08-12 19:13:30.2840,0.41,-0.48,0.13
2020-08-12 19:13:30.3830,0.58,-0.05,0.17
2020-08-12 19:13:30.4820,0.39,0.14,-0.14
2020-08-12 19:13:30.5810,0.15,0.04,0.08
2020-08-12 19:13:30.6810,-0.03,-0.06,0.02
2020-08-12 19:13:30.7800,-0.52,-0.42,0.06
2020-08-12 19:13:30.8790,-1.14,-0.02,0.08
2020-08-12 19:13:30.9790,0.28,-0.5,-0.05
2020-08-12 19:13:31.0780,-0.4,0.13,0.18
2020-08-12 19:13:31.1770,0.11,-0.03,-0.01
2020-08-12 19:13:31.2760,-0.03,0.03,-0.03
2020-08-12 19:13:31.3760,-0.02,-0.01,-0.02
2020-08-12 19:13:31.4750,-0.02,-0.01,0.03
2020-08-12 19:13:31.5740,0.11,-0.02,0.03
2020-08-12 19:13:31.6740,0.08,-0.14,0.14
2020-08-12 19:13:31.7730,0.37,-0.5,0.04
2020-08-12 19:13:31.8720,0.37,-0.48,0.18
2020-08-12 19:13:31.9710,0.36,0.11,0.52
2020-08-12 19:13:32.0710,0.71,0.3,-0.17
2020-08-12 19:13:32.1700,0.03,0.02,0.07
2020-08-12 19:13:32.2690,-0.44,-0.36,0.05
2020-08-12 19:13:32.3690,-1.2,-0.15,0.28
2020-08-12 19:13:32.4680,0.2,-0.36,-0.23
2020-08-12 19:13:32.5670,-0.48,-0.11,-0.03
2020-08-12 19:13:32.6660,-0.18,-0.22,-0.0
2020-08-12 19:13:32.7650,-0.05,0.05,0.1
2020-08-12 19:13:32.8650,-0.04,0.03,0.02
2020-08-12 19:13:32.9640,0.01,-0.02,-0.01
2020-08-12 19:13:33.0630,-0.02,-0.04,0.05
2020-08-12 19:13:33.1620,0.19,-0.09,0.12
2020-08-12 19:13:33.2620,0.32,-0.48,0.07
2020-08-12 19:13:33.3610,0.28,-0.34,0.27
2020-08-12 19:13:33.4600,0.43,0.1,0.29
2020-08-12 19:13:33.5600,0.53,0.32,-0.09
2020-08-12 19:13:33.6590,0.15,0.05,0.03
2020-08-12 19:13:33.7580,-0.12,-0.42,0.03
2020-08-12 19:13:33.8570,-1.07,-0.21,0.05
2020-08-12 19:13:33.9570,-0.64,-0.02,0.08
2020-08-12 19:13:34.0560,-0.14,-0.28,-0.07
2020-08-12 19:13:34.1550,-0.39,-0.0,0.27
2020-08-12 19:13:34.2550,0.21,0.02,-0.0
2020-08-12 19:13:34.3540,-0.03,-0.04,-0.06
2020-08-12 19:13:34.4530,0.01,-0.02,0.01
2020-08-12 19:13:34.5520,-0.02,-0.09,-0.05
2020-08-12 19:13:34.6520,0.1,-0.06,0.0
2020-08-12 19:13:34.7510,0.16,-0.18,0.12
2020-08-12 19:13:34.8500,0.41,-0.51,0.09
2020-08-12 19:13:34.9500,0.28,-0.45,0.29
2020-08-12 19:13:35.0490,0.37,0.02,0.11
2020-08-12 19:13:35.1480,0.54,0.18,-0.1
2020-08-12 19:13:35.2470,-0.13,-0.03,0.05
2020-08-12 19:13:35.3460,-0.64,-0.5,0.15
2020-08-12 19:13:35.4460,-1.19,0.07,0.17
2020-08-12 19:13:35.5450,0.5,-0.43,-0.5
2020-08-12 19:13:35.6440,-0.22,0.2,0.25
2020-08-12 19:13:35.7440,0.0,0.04,-0.14
2020-08-12 19:13:35.8430,-0.3,-0.02,0.06
2020-08-12 19:13:35.9420,0.02,0.03,-0.01
2020-08-12 19:13:36.0410,-0.03,0.0,0.03
2020-08-12 19:13:36.1410,0.08,-0.12,0.02
2020-08-12 19:13:36.2400,0.12,-0.09,0.03
2020-08-12 19:13:36.3390,0.27,-0.27,0.13
2020-08-12 19:13:36.4380,0.56,-0.63,0.24
2020-08-12 19:13:36.5380,0.56,-0.02,0.28
2020-08-12 19:13:36.6370,0.62,0.32,-0.04
2020-08-12 19:13:36.7360,0.28,0.15,0.02
2020-08-12 19:13:36.8350,-0.09,-0.14,0.05
2020-08-12 19:13:36.9350,-1.02,-0.57,0.16
2020-08-12 19:13:37.0340,-1.24,0.05,0.16
2020-08-12 19:13:37.1330,-0.16,-0.45,-0.31
2020-08-12 19:13:37.2330,-0.29,0.08,0.1
2020-08-12 19:13:37.3320,-0.05,0.01,0.06
2020-08-12 19:13:37.4310,-0.02,-0.03,-0.1
2020-08-12 19:13:37.5300,0.02,-0.0,-0.0
2020-08-12 19:13:37.6290,-0.0,-0.0,0.03
2020-08-12 19:13:37.7290,0.07,-0.09,0.02
2020-08-12 19:13:37.8280,0.17,-0.27,0.03
2020-08-12 19:13:37.9270,0.48,-0.56,0.17
2020-08-12 19:13:38.0270,0.59,-0.19,0.33
2020-08-12 19:13:38.1260,0.52,0.13,0.03
2020-08-12 19:13:38.2250,0.4,0.19,-0.04
2020-08-12 19:13:38.3240,-0.0,-0.08,-0.05
2020-08-12 19:13:38.4240,-0.9,-0.53,0.08
2020-08-12 19:13:38.5230,-0.97,-0.0,0.04
2020-08-12 19:13:38.6220,0.27,-0.65,-0.08
2020-08-12 19:13:38.7220,-0.51,-0.01,0.26
2020-08-12 19:13:38.8210,0.08,-0.01,-0.09
2020-08-12 19:13:38.9200,-0.13,0.02,0.02
2020-08-12 19:13:39.0200,-0.01,-0.0,0.06
2020-08-12 19:13:39.1190,-0.03,0.03,0.02
2020-08-12 19:13:39.2180,0.04,-0.04,0.01
2020-08-12 19:13:39.3170,0.09,-0.11,0.09
2020-08-12 19:13:39.4170,0.29,-0.35,0.12
2020-08-12 19:13:39.5160,0.31,-0.44,0.18
2020-08-12 19:13:39.6150,0.38,0.08,0.18
2020-08-12 19:13:39.7140,0.54,0.28,-0.15
2020-08-12 19:13:39.8140,0.21,0.05,-0.06
2020-08-12 19:13:39.9130,-0.04,-0.24,-0.08
2020-08-12 19:13:40.0120,-0.97,-0.44,0.35
2020-08-12 19:13:40.1110,-0.76,0.02,-0.0
2020-08-12 19:13:40.2110,0.21,-0.37,-0.15
2020-08-12 19:13:40.3100,-0.21,0.29,0.17
2020-08-12 19:13:40.4090,0.2,-0.07,-0.08
2020-08-12 19:13:40.5080,-0.1,0.03,0.07
2020-08-12 19:13:40.6080,-0.01,-0.01,-0.04
2020-08-12 19:13:40.7070,0.06,-0.06,-0.01
2020-08-12 19:13:40.8060,0.03,-0.06,0.06
2020-08-12 19:13:40.9060,0.1,-0.16,0.11
2020-08-12 19:13:41.0050,0.36,-0.34,0.11
2020-08-12 19:13:41.1040,0.39,-0.38,0.21
2020-08-12 19:13:41.2030,0.44,0.1,0.28
2020-08-12 19:13:41.3030,0.72,0.34,-0.14
2020-08-12 19:13:41.4020,0.03,-0.03,0.09
2020-08-12 19:13:41.5010,-0.23,-0.42,0.07
2020-08-12 19:13:41.6000,-0.82,-0.2,0.07
2020-08-12 19:13:41.7000,-0.98,-0.0,-0.01
2020-08-12 19:13:41.7990,0.17,-0.52,-0.25
2020-08-12 19:13:41.8980,-0.24,0.32,0.43
2020-08-12 19:13:41.9980,0.26,-0.14,-0.07
2020-08-12 19:13:42.0970,-0.1,0.04,0.05
2020-08-12 19:13:42.1960,0.05,0.01,0.02
2020-08-12 19:13:42.2950,-0.02,-0.01,-0.0
2020-08-12 19:13:42.3950,0.09,-0.04,0.0
2020-08-12 19:13:42.4940,0.08,-0.16,0.03
2020-08-12 19:13:42.5930,0.2,-0.33,0.11
2020-08-12 19:13:42.6920,0.5,-0.58,0.22
2020-08-12 19:13:42.7920,0.51,-0.11,0.33
2020-08-12 19:13:42.8910,0.61,0.37,-0.2
2020-08-12 19:13:42.9900,0.35,0.04,-0.0
2020-08-12 19:13:43.0900,-0.24,-0.27,0.12
2020-08-12 19:13:43.1890,-1.24,-0.37,0.28
2020-08-12 19:13:43.2880,-1.0,-0.14,-0.09
2020-08-12 19:13:43.3880,-0.1,-0.27,0.19
2020-08-12 19:13:43.4870,-0.23,0.11,-0.1
2020-08-12 19:13:43.5860,-0.25,0.18,0.3
2020-08-12 19:13:43.6850,-0.09,0.05,0.03
2020-08-12 19:13:43.7840,0.1,-0.05,-0.04
2020-08-12 19:13:43.8840,-0.05,0.02,0.01
2020-08-12 19:13:43.9830,0.05,-0.03,0.03
2020-08-12 19:13:44.0820,0.09,-0.27,-0.02
2020-08-12 19:13:44.1820,0.3,-0.33,0.14
2020-08-12 19:13:44.2810,0.24,-0.28,0.1
2020-08-12 19:13:44.3800,0.65,-0.03,0.1
2020-08-12 19:13:44.4790,0.57,0.2,-0.26
2020-08-12 19:13:44.5790,0.3,-0.03,0.09
2020-08-12 19:13:44.6780,-0.22,-0.21,0.09
2020-08-12 19:13:44.7770,-1.49,-0.21,0.33
2020-08-12 19:13:44.8760,-0.96,-0.21,-0.22
2020-08-12 19:13:44.9760,-0.98,-1.02,0.14
2020-08-12 19:13:45.0750,-0.02,0.0,0.09
2020-08-12 19:13:45.1740,-0.21,0.11,0.12
2020-08-12 19:13:45.2740,-0.01,0.01,0.09
2020-08-12 19:13:45.3730,0.06,-0.03,-0.02
2020-08-12 19:13:45.4720,-0.02,-0.02,-0.02
2020-08-12 19:13:45.5710,0.05,-0.07,0.06
2020-08-12 19:13:45.6710,0.03,-0.29,0.03
2020-08-12 19:13:45.7700,0.35,-0.36,0.08
2020-08-12 19:13:45.8690,0.1,-0.31,0.15
2020-08-12 19:13:45.9680,0.24,-0.02,0.2
2020-08-12 19:13:46.0680,0.53,0.21,-0.11
2020-08-12 19:13:46.1670,0.02,0.03,0.08
2020-08-12 19:13:46.2660,-0.16,-0.29,-0.01
2020-08-12 19:13:46.3660,-1.02,-0.43,0.07
2020-08-12 19:13:46.4650,-1.18,-0.24,-0.01
2020-08-12 19:13:46.5640,-0.72,-0.68,0.07
2020-08-12 19:13:46.6630,-0.15,-0.03,0.05
2020-08-12 19:13:46.7620,-0.08,0.02,0.04
2020-08-12 19:13:46.8620,-0.01,-0.0,-0.02
2020-08-12 19:13:46.9610,-0.02,-0.01,-0.0
2020-08-12 19:13:47.0600,-0.04,-0.03,-0.02
2020-08-12 19:13:47.1590,0.08,-0.04,0.02
2020-08-12 19:13:47.2590,0.09,-0.22,0.01
2020-08-12 19:13:47.3580,0.5,-0.45,0.1
2020-08-12 19:13:47.4580,0.14,-0.46,0.21
2020-08-12 19:13:47.5570,0.34,0.06,0.11
2020-08-12 19:13:47.6560,0.71,0.32,-0.2
2020-08-12 19:13:47.7550,0.1,-0.1,0.02
2020-08-12 19:13:47.8550,-0.34,-0.55,0.07
2020-08-12 19:13:47.9540,-1.18,0.02,0.18
2020-08-12 19:13:48.0530,-0.26,-0.26,-0.38
2020-08-12 19:13:48.1520,-0.27,0.24,-0.11
2020-08-12 19:13:48.2510,-0.01,-0.12,-0.12
2020-08-12 19:13:48.3510,-0.14,0.05,0.09
2020-08-12 19:13:48.4500,-0.01,0.01,0.02
2020-08-12 19:13:48.5490,-0.01,-0.02,0.02
2020-08-12 19:13:48.6490,0.03,-0.02,-0.03
2020-08-12 19:13:48.7480,0.07,-0.11,0.07
2020-08-12 19:13:48.8470,0.21,-0.31,0.11
2020-08-12 19:13:48.9460,0.54,-0.5,0.2
2020-08-12 19:13:49.0460,0.42,0.05,0.36
2020-08-12 19:13:49.1450,0.66,0.18,-0.28
2020-08-12 19:13:49.2440,0.23,-0.03,0.06
2020-08-12 19:13:49.3440,0.01,-0.07,0.05
2020-08-12 19:13:49.4430,-0.59,-0.49,0.06
2020-08-12 19:13:49.5420,-1.24,0.05,0.14
2020-08-12 19:13:49.6410,0.56,-0.29,-0.27
2020-08-12 19:13:49.7410,-0.19,0.26,0.01
2020-08-12 19:13:49.8400,0.11,-0.06,-0.03
2020-08-12 19:13:49.9390,-0.13,0.06,0.04
2020-08-12 19:13:50.0380,-0.06,0.02,0.01
2020-08-12 19:13:50.1380,-0.04,-0.03,0.01
2020-08-12 19:13:50.2370,0.16,-0.07,0.05
2020-08-12 19:13:50.3360,0.08,-0.22,-0.02
2020-08-12 19:13:50.4360,0.49,-0.49,0.05
2020-08-12 19:13:50.5350,0.09,-0.28,0.19
2020-08-12 19:13:50.6340,0.35,0.15,0.12
2020-08-12 19:13:50.7330,0.67,0.25,-0.18
2020-08-12 19:13:50.8330,0.07,-0.08,0.14
2020-08-12 19:13:50.9320,-0.3,-0.52,0.07
2020-08-12 19:13:51.0310,-1.12,-0.04,0.04
2020-08-12 19:13:51.1310,0.08,-0.2,-0.26
2020-08-12 19:13:51.2300,-0.3,0.21,-0.14
2020-08-12 19:13:51.3290,0.03,-0.12,-0.26
2020-08-12 19:13:51.4280,-0.2,0.12,0.2
2020-08-12 19:13:51.5280,0.01,-0.02,0.05
2020-08-12 19:13:51.6270,0.01,-0.02,-0.01
2020-08-12 19:13:51.7260,0.03,0.01,0.03
2020-08-12 19:13:51.8250,0.14,-0.16,0.04
2020-08-12 19:13:51.9250,0.36,-0.5,0.1
2020-08-12 19:13:52.0240,0.34,-0.45,0.23
2020-08-12 19:13:52.1230,0.32,0.04,0.13
2020-08-12 19:13:52.2230,0.64,0.3,-0.13
2020-08-12 19:13:52.3220,0.08,-0.02,0.16
2020-08-12 19:13:52.4210,-0.38,-0.52,0.06
2020-08-12 19:13:52.5200,-1.06,-0.17,0.04
2020-08-12 19:13:52.6190,-0.61,-0.25,-0.01
2020-08-12 19:13:52.7190,-0.42,0.14,0.05
2020-08-12 19:13:52.8180,0.0,-0.08,0.16
2020-08-12 19:13:52.9170,-0.13,0.07,0.11
2020-08-12 19:13:53.0170,-0.01,-0.01,0.01
2020-08-12 19:13:53.1160,-0.0,0.0,0.02
2020-08-12 19:13:53.2150,0.04,-0.03,0.02
2020-08-12 19:13:53.3140,0.11,-0.06,0.06
2020-08-12 19:13:53.4140,0.26,-0.27,0.11
2020-08-12 19:13:53.5130,0.63,-0.58,0.13
2020-08-12 19:13:53.6120,0.56,-0.14,0.21
2020-08-12 19:13:53.7120,0.47,0.25,-0.18
2020-08-12 19:13:53.8110,0.32,0.19,-0.01
2020-08-12 19:13:53.9100,-0.03,-0.23,-0.08
2020-08-12 19:13:54.0090,-1.31,-0.42,0.27
2020-08-12 19:13:54.1080,-0.91,-0.2,0.17
2020-08-12 19:13:54.2080,-0.06,-0.52,0.28
2020-08-12 19:13:54.3070,-0.14,0.1,0.19
2020-08-12 19:13:54.4060,-0.03,0.02,0.03
2020-08-12 19:13:54.5060,-0.04,0.0,-0.0
2020-08-12 19:13:54.6050,-0.04,0.01,0.04
2020-08-12 19:13:54.7040,-0.01,-0.01,-0.01
2020-08-12 19:13:54.8030,0.11,-0.06,-0.01
2020-08-12 19:13:54.9030,0.19,-0.21,0.05
2020-08-12 19:13:55.0020,0.52,-0.48,-0.01
2020-08-12 19:13:55.1010,0.24,-0.39,0.09
2020-08-12 19:13:55.2000,0.72,0.07,-0.01
2020-08-12 19:13:55.3000,0.55,0.12,-0.13
2020-08-12 19:13:55.3990,-0.06,-0.13,0.03
2020-08-12 19:13:55.4980,-0.63,-0.57,0.19
2020-08-12 19:13:55.5980,-1.13,-0.1,0.13
2020-08-12 19:13:55.6970,-0.24,-0.14,-0.17
2020-08-12 19:13:55.7960,-0.37,-0.01,0.13
2020-08-12 19:13:55.8950,0.0,-0.0,0.09
2020-08-12 19:13:55.9950,-0.09,0.02,0.03
2020-08-12 19:13:56.0940,0.0,-0.03,-0.03
2020-08-12 19:13:56.1930,-0.02,-0.0,-0.0
2020-08-12 19:13:56.2920,0.04,-0.03,0.03
2020-08-12 19:13:56.3920,0.04,-0.07,0.07
2020-08-12 19:13:56.4910,0.21,-0.3,0.02
2020-08-12 19:13:56.5900,0.5,-0.44,0.07
2020-08-12 19:13:56.6900,0.51,-0.25,0.37
2020-08-12 19:13:56.7890,0.72,0.25,-0.06
2020-08-12 19:13:56.8880,0.42,-0.01,-0.1
2020-08-12 19:13:56.9880,-0.17,-0.37,-0.03
2020-08-12 19:13:57.0870,-0.91,-0.56,0.33
2020-08-12 19:13:57.1860,-0.79,-0.17,0.05
2020-08-12 19:13:57.2850,0.15,-0.13,-0.66
2020-08-12 19:13:57.3840,-0.3,-0.19,0.69
2020-08-12 19:13:57.4840,-0.08,0.01,-0.08
2020-08-12 19:13:57.5830,-0.09,0.07,0.1
2020-08-12 19:13:57.6820,0.14,-0.06,-0.1
2020-08-12 19:13:57.7820,-0.07,0.04,-0.01
2020-08-12 19:13:57.8810,-0.02,-0.02,0.02
2020-08-12 19:13:57.9800,0.07,-0.08,0.06
2020-08-12 19:13:58.0790,0.19,-0.29,0.06
2020-08-12 19:13:58.1790,0.6,-0.45,0.16
2020-08-12 19:13:58.2780,0.53,-0.27,0.36
2020-08-12 19:13:58.3770,0.65,0.29,-0.11
2020-08-12 19:13:58.4770,0.52,0.16,-0.16
2020-08-12 19:13:58.5760,0.02,-0.2,-0.18
2020-08-12 19:13:58.6750,-0.63,-0.87,0.1
2020-08-12 19:13:58.7740,-1.15,-0.07,0.27
2020-08-12 19:13:58.8740,0.05,-0.73,-0.01
2020-08-12 19:13:58.9730,-0.25,0.09,0.23
2020-08-12 19:13:59.0720,-0.0,0.0,0.05
2020-08-12 19:13:59.1710,-0.02,-0.01,-0.03
2020-08-12 19:13:59.2710,0.02,-0.04,-0.01
2020-08-12 19:13:59.3700,-0.04,0.01,0.02
2020-08-12 19:13:59.4690,0.13,-0.12,-0.01
2020-08-12 19:13:59.5680,0.25,-0.38,0.04
2020-08-12 19:13:59.6680,0.55,-0.55,0.07
2020-08-12 19:13:59.7670,0.51,0.02,0.21
2020-08-12 19:13:59.8660,0.65,0.34,-0.16
2020-08-12 19:13:59.9660,0.25,0.1,-0.08
2020-08-12 19:14:00.0650,-0.15,-0.16,0.11
2020-08-12 19:14:00.1640,-1.12,-0.61,0.24
2020-08-12 19:14:00.2630,-1.3,-0.33,-0.09
2020-08-12 19:14:00.3630,-0.27,0.03,-0.19
2020-08-12 19:14:00.4620,-0.05,-0.01,-0.05
2020-08-12 19:14:00.5610,-0.03,0.0,0.11
2020-08-12 19:14:00.6600,-0.07,0.03,-0.07
2020-08-12 19:14:00.7600,-0.02,-0.0,-0.02
2020-08-12 19:14:00.8590,-0.03,0.01,0.01
2020-08-12 19:14:00.9580,0.07,-0.09,-0.02
2020-08-12 19:14:01.0570,0.14,-0.26,0.11
2020-08-12 19:14:01.1570,0.66,-0.52,0.2
2020-08-12 19:14:01.2560,0.36,-0.29,0.24
2020-08-12 19:14:01.3550,0.61,0.32,-0.25
2020-08-12 19:14:01.4550,0.3,0.28,0.01
2020-08-12 19:14:01.5540,-0.04,-0.15,-0.0
2020-08-12 19:14:01.6530,-0.58,-0.51,0.08
2020-08-12 19:14:01.7520,-0.94,-0.13,0.05
2020-08-12 19:14:01.8520,0.24,-0.08,-0.57
2020-08-12 19:14:01.9520,-0.28,-0.09,-0.14
2020-08-12 19:14:02.0500,0.07,-0.07,-0.1
2020-08-12 19:14:02.1490,-0.11,0.04,0.15
2020-08-12 19:14:02.2490,-0.04,0.03,-0.04
2020-08-12 19:14:02.3480,-0.05,-0.01,-0.09
2020-08-12 19:14:02.4470,-0.01,0.0,-0.04
2020-08-12 19:14:02.5470,0.09,-0.06,0.1
2020-08-12 19:14:02.6460,0.14,-0.27,0.19
2020-08-12 19:14:02.7450,0.41,-0.63,0.03
2020-08-12 19:14:02.8440,0.13,-0.27,0.17
2020-08-12 19:14:02.9440,0.72,0.15,0.12
2020-08-12 19:14:03.0430,0.49,0.22,0.0
2020-08-12 19:14:03.1420,-0.04,-0.07,0.06
2020-08-12 19:14:03.2410,-0.34,-0.8,-0.06
2020-08-12 19:14:03.3410,-1.47,0.01,0.42
2020-08-12 19:14:03.4400,0.49,-0.08,-0.56
2020-08-12 19:14:03.5390,-0.44,0.2,-0.43
2020-08-12 19:14:03.6380,0.09,-0.11,-0.05
2020-08-12 19:14:03.7380,-0.14,0.04,0.06
2020-08-12 19:14:03.8370,-0.03,-0.0,0.09
2020-08-12 19:14:03.9360,-0.01,-0.01,0.06
2020-08-12 19:14:04.0360,0.02,-0.02,0.0
2020-08-12 19:14:04.1350,0.09,-0.01,0.11
2020-08-12 19:14:04.2340,0.12,-0.17,0.02
2020-08-12 19:14:04.3330,0.46,-0.4,0.1
2020-08-12 19:14:04.4330,0.13,-0.36,0.19
2020-08-12 19:14:04.5320,0.57,0.04,-0.07
2020-08-12 19:14:04.6310,0.51,0.26,-0.13
2020-08-12 19:14:04.7310,0.11,-0.01,0.09
2020-08-12 19:14:04.8300,-0.39,-0.48,0.05
2020-08-12 19:14:04.9290,-1.01,-0.27,0.33
2020-08-12 19:14:05.0280,-0.44,-0.18,-0.35
2020-08-12 19:14:05.1280,-0.31,0.12,0.08
2020-08-12 19:14:05.2270,-0.2,0.09,-0.06
2020-08-12 19:14:05.3260,-0.18,0.09,0.31
2020-08-12 19:14:05.4250,0.02,-0.04,0.1
2020-08-12 19:14:05.5250,0.01,-0.01,0.02
2020-08-12 19:14:05.6240,-0.07,0.02,-0.02
2020-08-12 19:14:05.7230,0.08,-0.08,-0.01
2020-08-12 19:14:05.8230,0.15,-0.16,0.07
2020-08-12 19:14:05.9220,0.4,-0.44,0.01
2020-08-12 19:14:06.0210,0.12,-0.47,0.24
2020-08-12 19:14:06.1200,0.16,-0.0,0.03
2020-08-12 19:14:06.2200,0.43,0.21,-0.03
2020-08-12 19:14:06.3190,0.11,0.12,-0.02
2020-08-12 19:14:06.4180,-0.33,-0.43,0.11
2020-08-12 19:14:06.5180,-1.26,-0.27,0.09
2020-08-12 19:14:06.6170,-0.35,-0.03,0.05
2020-08-12 19:14:06.7160,-0.28,0.02,-0.19
2020-08-12 19:14:06.8150,0.07,-0.06,-0.04
2020-08-12 19:14:06.9140,-0.12,0.03,0.1
2020-08-12 19:14:07.0140,0.0,-0.01,0.05
2020-08-12 19:14:07.1130,0.01,-0.0,0.02
2020-08-12 19:14:07.2120,0.01,-0.05,-0.09
2020-08-12 19:14:07.3120,0.09,-0.05,0.04
2020-08-12 19:14:07.4110,0.27,-0.4,-0.12
2020-08-12 19:14:07.5100,0.63,-0.39,0.22
2020-08-12 19:14:07.6090,0.51,-0.23,0.18
2020-08-12 19:14:07.7090,0.62,0.3,-0.11
2020-08-12 19:14:07.8080,0.47,0.29,-0.09
2020-08-12 19:14:07.9070,-0.09,-0.22,-0.04
2020-08-12 19:14:08.0060,-0.67,-0.48,0.17
2020-08-12 19:14:08.1060,-0.96,-0.07,0.37
2020-08-12 19:14:08.2050,0.2,-0.02,-0.98
2020-08-12 19:14:08.3040,-0.3,0.11,-0.36
2020-08-12 19:14:08.4030,0.0,-0.07,-0.24
2020-08-12 19:14:08.5030,-0.13,0.07,0.16
2020-08-12 19:14:08.6020,-0.08,0.03,0.03
2020-08-12 19:14:08.7010,-0.03,-0.0,0.01
2020-08-12 19:14:08.8010,-0.01,-0.01,0.01
2020-08-12 19:14:08.9000,0.06,-0.06,0.05
2020-08-12 19:14:08.9990,0.12,-0.18,0.07
2020-08-12 19:14:09.0990,0.49,-0.5,0.14
2020-08-12 19:14:09.1980,0.21,-0.41,0.14
2020-08-12 19:14:09.2970,0.53,0.14,0.06
2020-08-12 19:14:09.3960,0.42,0.38,-0.11
2020-08-12 19:14:09.4960,0.18,0.03,-0.08
2020-08-12 19:14:09.5950,-0.45,-0.79,0.07
2020-08-12 19:14:09.6940,-1.22,-0.18,0.22
2020-08-12 19:14:09.7930,0.21,-0.19,-0.06
2020-08-12 19:14:09.8930,-0.34,0.12,-0.37
2020-08-12 19:14:09.9920,0.12,-0.13,-0.05
2020-08-12 19:14:10.0910,-0.1,0.04,0.1
2020-08-12 19:14:10.1900,-0.04,0.02,-0.01
2020-08-12 19:14:10.2900,-0.02,-0.02,-0.02
2020-08-12 19:14:10.3890,0.03,-0.04,-0.04
2020-08-12 19:14:10.4880,0.07,-0.05,-0.01
2020-08-12 19:14:10.5870,0.19,-0.25,0.08
2020-08-12 19:14:10.6870,0.6,-0.38,0.14
2020-08-12 19:14:10.7860,0.47,-0.28,0.18
2020-08-12 19:14:10.8850,0.78,0.4,-0.11
2020-08-12 19:14:10.9850,0.47,0.05,-0.14
2020-08-12 19:14:11.0840,-0.08,-0.1,0.12
2020-08-12 19:14:11.1830,-0.81,-0.6,0.25
2020-08-12 19:14:11.2830,-1.25,-0.09,0.17
2020-08-12 19:14:11.3820,0.36,-1.07,-0.69
2020-08-12 19:14:11.4810,-0.2,0.05,0.09
2020-08-12 19:14:11.5800,-0.0,-0.04,-0.12
2020-08-12 19:14:11.6790,-0.05,0.03,0.1
2020-08-12 19:14:11.7790,-0.0,-0.01,0.06
2020-08-12 19:14:11.8780,0.0,-0.02,0.01
2020-08-12 19:14:11.9770,-0.02,-0.02,-0.03
2020-08-12 19:14:12.0770,0.08,-0.05,0.08
2020-08-12 19:14:12.1760,0.26,-0.43,-0.06
2020-08-12 19:14:12.2750,0.59,-0.29,0.1
2020-08-12 19:14:12.3740,0.66,-0.15,0.18
2020-08-12 19:14:12.4740,0.69,0.21,-0.16
2020-08-12 19:14:12.5730,0.15,0.11,0.03
2020-08-12 19:14:12.6720,-0.11,-0.32,0.01
2020-08-12 19:14:12.7720,-0.9,-0.7,0.13
2020-08-12 19:14:12.8710,-1.23,-0.19,0.18
2020-08-12 19:14:12.9700,-0.1,-0.34,0.14
2020-08-12 19:14:13.0690,-0.29,0.18,0.46
2020-08-12 19:14:13.1680,0.06,-0.04,0.0
2020-08-12 19:14:13.2680,-0.11,0.02,0.08
2020-08-12 19:14:13.3670,-0.09,0.03,0.01
2020-08-12 19:14:13.4660,-0.03,0.01,0.04
2020-08-12 19:14:13.5660,0.2,-0.15,-0.12
2020-08-12 19:14:13.6650,0.17,-0.19,0.08
2020-08-12 19:14:13.7640,0.62,-0.59,0.05
2020-08-12 19:14:13.8630,0.28,-0.14,0.39
2020-08-12 19:14:13.9630,0.87,0.24,-0.06
2020-08-12 19:14:14.0620,0.57,0.24,-0.11
2020-08-12 19:14:14.1610,-0.1,-0.15,0.08
2020-08-12 19:14:14.2600,-0.91,-0.81,0.24
2020-08-12 19:14:14.3600,-1.23,-0.02,0.2
2020-08-12 19:14:14.4590,-0.05,-0.93,-0.12
2020-08-12 19:14:14.5580,-0.15,0.09,0.25
2020-08-12 19:14:14.6570,0.05,-0.0,-0.08
2020-08-12 19:14:14.7570,-0.1,0.03,0.1
2020-08-12 19:14:14.8560,-0.05,0.01,0.07
2020-08-12 19:14:14.9550,-0.06,0.03,-0.06
2020-08-12 19:14:15.0550,0.01,-0.03,0.1
2020-08-12 19:14:15.1540,0.17,-0.29,0.08
2020-08-12 19:14:15.2530,0.47,-0.63,0.05
2020-08-12 19:14:15.3520,0.13,-0.26,0.15
2020-08-12 19:14:15.4520,0.49,0.04,0.17
2020-08-12 19:14:15.5510,0.54,0.26,-0.03
2020-08-12 19:14:15.6500,0.13,0.07,-0.3
2020-08-12 19:14:15.7500,-1.0,-0.73,0.22
2020-08-12 19:14:15.8490,-1.18,-0.03,0.53
2020-08-12 19:14:15.9480,0.38,-1.65,-0.13
2020-08-12 19:14:16.0480,-0.21,0.15,0.29
2020-08-12 19:14:16.1470,0.14,-0.11,-0.06
2020-08-12 19:14:16.2460,-0.06,0.0,-0.06
2020-08-12 19:14:16.3450,0.0,-0.04,-0.03
2020-08-12 19:14:16.4450,0.0,-0.02,-0.02
2020-08-12 19:14:16.5440,0.01,-0.02,0.01
2020-08-12 19:14:16.6430,0.04,-0.07,-0.06
2020-08-12 19:14:16.7420,0.3,-0.42,-0.0
2020-08-12 19:14:16.8410,0.46,-0.36,0.11
2020-08-12 19:14:16.9410,0.59,-0.08,0.26
2020-08-12 19:14:17.0400,0.55,0.21,-0.17
2020-08-12 19:14:17.1390,0.22,0.14,-0.02
2020-08-12 19:14:17.2390,-0.21,-0.35,0.17
2020-08-12 19:14:17.3380,-0.93,-0.46,0.07
2020-08-12 19:14:17.4370,-1.11,-0.05,0.3
2020-08-12 19:14:17.5360,-0.11,-0.29,0.23
2020-08-12 19:14:17.6360,-0.35,0.21,0.38
2020-08-12 19:14:17.7350,0.11,-0.06,0.0
2020-08-12 19:14:17.8340,0.01,-0.03,0.03
2020-08-12 19:14:17.9330,-0.02,-0.0,0.05
2020-08-12 19:14:18.0330,-0.03,-0.0,-0.03
2020-08-12 19:14:18.1320,-0.01,-0.01,0.04
2020-08-12 19:14:18.2310,0.1,-0.19,-0.02
2020-08-12 19:14:18.3310,0.53,-0.52,0.09
2020-08-12 19:14:18.4300,0.08,-0.45,0.21
2020-08-12 19:14:18.5290,0.47,0.2,0.04
2020-08-12 19:14:18.6280,0.5,0.37,-0.12
2020-08-12 19:14:18.7280,0.18,0.01,-0.03
2020-08-12 19:14:18.8270,-0.3,-0.52,0.02
2020-08-12 19:14:18.9260,-1.19,-0.15,0.37
2020-08-12 19:14:19.0260,0.08,-0.28,-0.39
2020-08-12 19:14:19.1250,-0.32,0.17,0.07
2020-08-12 19:14:19.2240,-0.01,-0.04,-0.04
2020-08-12 19:14:19.3230,-0.08,0.03,0.06
2020-08-12 19:14:19.4230,-0.0,-0.02,-0.11
2020-08-12 19:14:19.5220,-0.04,0.0,0.04
2020-08-12 19:14:19.6210,-0.01,-0.01,0.01
2020-08-12 19:14:19.7200,0.04,-0.05,0.01
2020-08-12 19:14:19.8200,0.13,-0.15,0.05
2020-08-12 19:14:19.9190,0.5,-0.53,0.07
2020-08-12 19:14:20.0180,0.21,-0.37,0.23
2020-08-12 19:14:20.1170,0.73,0.24,-0.08
2020-08-12 19:14:20.2160,0.48,0.33,-0.08
2020-08-12 19:14:20.3160,-0.05,0.08,0.1
2020-08-12 19:14:20.4150,-0.42,-0.75,-0.0
2020-08-12 19:14:20.5140,-1.06,-0.02,0.32
2020-08-12 19:14:20.6140,-0.24,-0.11,-0.01
2020-08-12 19:14:20.7130,-0.22,0.21,0.05
2020-08-12 19:14:20.8120,-0.08,-0.04,0.06
2020-08-12 19:14:20.9120,-0.03,-0.01,0.03
2020-08-12 19:14:21.0110,-0.08,0.0,-0.07
2020-08-12 19:14:21.1100,-0.01,-0.02,0.01
2020-08-12 19:14:21.2090,0.02,-0.02,-0.01
2020-08-12 19:14:21.3090,-0.03,-0.01,0.0
2020-08-12 19:14:21.4080,0.05,-0.08,0.0
2020-08-12 19:14:21.5070,0.25,-0.33,-0.0
2020-08-12 19:14:21.6060,0.54,-0.41,0.04
2020-08-12 19:14:21.7060,0.39,-0.37,0.34
2020-08-12 19:14:21.8050,0.59,0.41,-0.15
2020-08-12 19:14:21.9040,0.11,0.19,0.07
2020-08-12 19:14:22.0040,-0.05,-0.33,0.04
2020-08-12 19:14:22.1030,-0.73,-0.64,0.27
2020-08-12 19:14:22.2020,-1.01,-0.08,0.11
2020-08-12 19:14:22.3010,0.6,-0.88,-0.43
2020-08-12 19:14:22.4010,-0.3,0.1,0.18
2020-08-12 19:14:22.5000,0.01,-0.05,-0.16
2020-08-12 19:14:22.5990,-0.16,0.04,0.17
2020-08-12 19:14:22.6990,-0.1,0.04,0.07
2020-08-12 19:14:22.7980,-0.03,-0.0,-0.03
2020-08-12 19:14:22.8970,-0.01,-0.0,0.03
2020-08-12 19:14:22.9960,0.2,-0.13,-0.01
2020-08-12 19:14:23.0960,0.15,-0.21,0.05
2020-08-12 19:14:23.1950,0.49,-0.45,0.22
2020-08-12 19:14:23.2940,-0.02,-0.3,0.13
2020-08-12 19:14:23.3930,0.79,0.2,-0.0
2020-08-12 19:14:23.4930,0.43,0.17,-0.09
2020-08-12 19:14:23.5920,0.1,0.0,0.03
2020-08-12 19:14:23.6910,-0.55,-0.62,0.12
2020-08-12 19:14:23.7910,-1.13,-0.19,0.11
2020-08-12 19:14:23.8900,0.24,-0.18,-0.16
2020-08-12 19:14:23.9890,-0.44,0.15,-0.17
2020-08-12 19:14:24.0880,0.0,-0.05,0.0
2020-08-12 19:14:24.1880,-0.13,0.05,0.14
2020-08-12 19:14:24.2870,-0.01,-0.01,0.01
2020-08-12 19:14:24.3860,0.01,-0.04,-0.04
2020-08-12 19:14:24.4850,-0.04,0.01,0.05
2020-08-12 19:14:24.5850,0.06,-0.06,0.03
2020-08-12 19:14:24.6840,0.13,-0.14,0.01
2020-08-12 19:14:24.7830,0.37,-0.46,0.08
2020-08-12 19:14:24.8820,0.13,-0.49,0.26
2020-08-12 19:14:24.9820,0.13,0.08,0.05
2020-08-12 19:14:25.0810,0.41,0.36,-0.08
2020-08-12 19:14:25.1800,0.19,0.09,-0.06
2020-08-12 19:14:25.2790,-0.23,-0.44,0.06
2020-08-12 19:14:25.3790,-1.02,-0.59,0.24
2020-08-12 19:14:25.4780,-0.32,0.37,0.24
2020-08-12 19:14:25.5770,-0.29,-0.33,-0.04
2020-08-12 19:14:25.6770,-0.08,-0.01,0.01
2020-08-12 19:14:25.7760,-0.05,0.0,0.11
2020-08-12 19:14:25.8750,0.02,-0.03,0.07
2020-08-12 19:14:25.9740,0.0,-0.0,-0.08
2020-08-12 19:14:26.0740,0.03,0.01,0.03
2020-08-12 19:14:26.1730,0.02,-0.05,0.1
2020-08-12 19:14:26.2720,0.18,-0.3,-0.03
2020-08-12 19:14:26.3710,0.65,-0.57,0.05
2020-08-12 19:14:26.4710,0.75,-0.12,0.14
2020-08-12 19:14:26.5700,0.57,0.26,-0.18
2020-08-12 19:14:26.6690,0.36,0.19,-0.05
2020-08-12 19:14:26.7690,0.02,-0.22,0.08
2020-08-12 19:14:26.8680,-0.73,-0.53,-0.06
2020-08-12 19:14:26.9670,-1.26,0.03,0.26
2020-08-12 19:14:27.0660,0.19,-0.95,-0.12
2020-08-12 19:14:27.1660,-0.29,0.14,0.12
2020-08-12 19:14:27.2650,0.12,-0.08,-0.02
2020-08-12 19:14:27.3640,-0.09,0.0,-0.08
2020-08-12 19:14:27.4640,-0.04,0.01,0.07
2020-08-12 19:14:27.5630,-0.06,0.02,0.02
2020-08-12 19:14:27.6620,0.03,-0.02,0.09
2020-08-12 19:14:27.7610,0.03,-0.03,0.1
2020-08-12 19:14:27.8610,0.21,-0.23,-0.03
2020-08-12 19:14:27.9600,0.6,-0.53,0.04
2020-08-12 19:14:28.0590,0.67,-0.12,0.2
2020-08-12 19:14:28.1580,0.66,0.27,-0.18
2020-08-12 19:14:28.2580,0.39,0.06,-0.04
2020-08-12 19:14:28.3570,-0.04,-0.19,0.01
2020-08-12 19:14:28.4560,-0.89,-0.8,0.33
2020-08-12 19:14:28.5550,-1.23,-0.09,0.08
2020-08-12 19:14:28.6550,-0.26,-0.2,0.65
2020-08-12 19:14:28.7540,-0.45,0.21,0.22
2020-08-12 19:14:28.8530,0.08,-0.05,0.03
2020-08-12 19:14:28.9520,-0.06,0.0,-0.06
2020-08-12 19:14:29.0520,-0.05,0.01,0.06
2020-08-12 19:14:29.1510,-0.03,0.0,0.03
2020-08-12 19:14:29.2500,0.11,-0.09,0.02
2020-08-12 19:14:29.3500,0.08,-0.11,0.01
2020-08-12 19:14:29.4490,0.32,-0.51,0.06
2020-08-12 19:14:29.5480,0.14,-0.54,0.27
2020-08-12 19:14:29.6480,0.8,0.11,0.02
2020-08-12 19:14:29.7470,0.43,0.26,-0.07
2020-08-12 19:14:29.8460,0.14,-0.03,-0.16
2020-08-12 19:14:29.9450,-0.49,-0.62,0.21
2020-08-12 19:14:30.0450,-1.02,0.06,0.48
2020-08-12 19:14:30.1440,-0.28,0.07,-0.19
2020-08-12 19:14:30.2430,-0.37,0.08,0.1
2020-08-12 19:14:30.3420,-0.01,-0.05,-0.16
2020-08-12 19:14:30.4420,-0.11,0.05,0.15
2020-08-12 19:14:30.5410,0.02,-0.02,-0.02
2020-08-12 19:14:30.6400,-0.05,0.0,0.0
2020-08-12 19:14:30.7390,0.06,-0.06,-0.05
2020-08-12 19:14:30.8390,0.06,-0.07,0.04
2020-08-12 19:14:30.9380,0.22,-0.4,-0.06
2020-08-12 19:14:31.0370,0.57,-0.37,0.08
2020-08-12 19:14:31.1360,0.59,-0.21,0.26
2020-08-12 19:14:31.2360,0.62,0.15,-0.2
2020-08-12 19:14:31.3350,0.21,0.14,-0.02
2020-08-12 19:14:31.4340,-0.11,-0.24,0.1
2020-08-12 19:14:31.5340,-1.11,-0.68,0.21
2020-08-12 19:14:31.6330,-1.15,-0.35,0.09
2020-08-12 19:14:31.7320,-0.14,-0.1,-0.18
2020-08-12 19:14:31.8320,-0.14,0.08,0.29
2020-08-12 19:14:31.9310,-0.01,-0.01,-0.05
2020-08-12 19:14:32.0300,-0.08,0.02,-0.02
2020-08-12 19:14:32.1290,-0.03,0.0,0.04
2020-08-12 19:14:32.2290,-0.02,-0.02,-0.01
2020-08-12 19:14:32.3280,0.02,-0.03,-0.04
2020-08-12 19:14:32.4270,0.05,-0.09,-0.01
2020-08-12 19:14:32.5260,0.19,-0.38,0.01
2020-08-12 19:14:32.6260,0.48,-0.39,-0.02
2020-08-12 19:14:32.7250,0.69,-0.19,0.13
2020-08-12 19:14:32.8240,0.6,0.15,-0.13
2020-08-12 19:14:32.9230,0.27,0.06,0.0
2020-08-12 19:14:33.0230,0.01,-0.23,-0.13
2020-08-12 19:14:33.1220,-0.85,-0.68,0.21
2020-08-12 19:14:33.2210,-1.27,-0.16,0.21
2020-08-12 19:14:33.3210,0.33,-0.68,-0.44
2020-08-12 19:14:33.4200,-0.26,0.05,0.18
2020-08-12 19:14:33.5190,0.01,-0.05,-0.18
2020-08-12 19:14:33.6180,-0.11,0.04,0.14
2020-08-12 19:14:33.7170,-0.01,-0.0,0.01
2020-08-12 19:14:33.8170,-0.01,-0.0,-0.1
2020-08-12 19:14:33.9160,0.0,-0.02,0.01
2020-08-12 19:14:34.0150,0.07,-0.22,0.06
2020-08-12 19:14:34.1150,0.3,-0.47,0.06
2020-08-12 19:14:34.2140,0.45,-0.49,0.23
2020-08-12 19:14:34.3130,0.11,0.03,0.25
2020-08-12 19:14:34.4130,0.58,0.22,-0.17
2020-08-12 19:14:34.5120,-0.05,-0.05,0.03
2020-08-12 19:14:34.6110,-0.49,-0.45,0.13
2020-08-12 19:14:34.7100,-1.02,-0.22,0.14
2020-08-12 19:14:34.8090,-0.55,0.27,0.14
2020-08-12 19:14:34.9090,-0.26,-0.23,-0.09
2020-08-12 19:14:35.0080,-0.14,0.02,0.1
2020-08-12 19:14:35.1070,-0.07,0.02,0.01
2020-08-12 19:14:35.2070,-0.03,0.0,0.03
2020-08-12 19:14:35.3060,0.01,-0.02,0.03
2020-08-12 19:14:35.4050,0.01,-0.01,-0.06
2020-08-12 19:14:35.5040,0.05,-0.06,0.06
2020-08-12 19:14:35.6040,0.15,-0.22,0.02
2020-08-12 19:14:35.7030,0.55,-0.52,0.07
2020-08-12 19:14:35.8020,0.25,-0.21,0.2
2020-08-12 19:14:35.9010,0.81,0.38,0.09
2020-08-12 19:14:36.0010,0.6,0.28,-0.1
2020-08-12 19:14:36.1000,-0.23,-0.17,0.1
2020-08-12 19:14:36.1990,-0.61,-0.58,-0.02
2020-08-12 19:14:36.2990,-1.31,-0.17,0.28
2020-08-12 19:14:36.3980,1.29,-0.4,-0.42
2020-08-12 19:14:36.4970,-0.17,0.18,0.17
2020-08-12 19:14:36.5960,-0.08,-0.0,-0.08
2020-08-12 19:14:36.6960,-0.12,0.05,0.12
2020-08-12 19:14:36.7950,0.02,-0.03,-0.04
2020-08-12 19:14:36.8940,-0.02,-0.04,-0.02
2020-08-12 19:14:36.9930,0.09,-0.06,-0.03
2020-08-12 19:14:37.0930,0.08,-0.15,0.05
2020-08-12 19:14:37.1920,0.29,-0.6,0.06
2020-08-12 19:14:37.2920,0.29,-0.51,0.22
2020-08-12 19:14:37.3910,0.02,-0.23,0.19
2020-08-12 19:14:37.4900,0.49,0.41,-0.09
2020-08-12 19:14:37.5890,0.25,0.16,-0.13
2020-08-12 19:14:37.6880,-0.45,-0.64,0.05
2020-08-12 19:14:37.7880,-1.17,-0.14,0.48
2020-08-12 19:14:37.8870,0.54,-0.57,-0.46
2020-08-12 19:14:37.9860,-0.34,0.04,-0.21
2020-08-12 19:14:38.0850,0.04,-0.08,0.0
2020-08-12 19:14:38.1850,-0.17,0.06,0.11
2020-08-12 19:14:38.2840,0.02,-0.03,0.0
2020-08-12 19:14:38.3830,-0.08,0.01,-0.04
2020-08-12 19:14:38.4830,-0.02,-0.01,0.02
2020-08-12 19:14:38.5820,0.02,-0.05,0.04
2020-08-12 19:14:38.6810,0.13,-0.28,0.12
2020-08-12 19:14:38.7800,0.69,-0.61,0.11
2020-08-12 19:14:38.8800,0.76,-0.21,0.29
2020-08-12 19:14:38.9790,0.72,0.27,-0.26
2020-08-12 19:14:39.0780,0.38,0.24,-0.05
2020-08-12 19:14:39.1770,-0.18,-0.26,0.06
2020-08-12 19:14:39.2770,-0.85,-0.73,0.19
2020-08-12 19:14:39.3760,-1.25,-0.16,0.12
2020-08-12 19:14:39.4750,0.0,-0.67,-0.56
2020-08-12 19:14:39.5740,-0.2,0.08,0.14
2020-08-12 19:14:39.6740,-0.02,-0.03,-0.11
2020-08-12 19:14:39.7730,-0.11,0.05,0.1
2020-08-12 19:14:39.8720,-0.04,0.0,0.09
2020-08-12 19:14:39.9720,-0.08,0.04,0.02
2020-08-12 19:14:40.0710,0.01,-0.01,-0.02
2020-08-12 19:14:40.1700,0.07,-0.15,0.04
2020-08-12 19:14:40.2690,0.2,-0.38,0.13
2020-08-12 19:14:40.3690,0.51,-0.44,0.08
2020-08-12 19:14:40.4680,0.48,-0.34,0.1
2020-08-12 19:14:40.5670,0.63,0.33,-0.28
2020-08-12 19:14:40.6670,0.35,0.15,-0.14
2020-08-12 19:14:40.7660,-0.19,-0.35,-0.04
2020-08-12 19:14:40.8650,-1.12,-0.73,0.27
2020-08-12 19:14:40.9640,-1.24,-0.12,0.22
2020-08-12 19:14:41.0640,-0.55,-0.22,-0.04
2020-08-12 19:14:41.1630,-0.18,0.04,0.08
2020-08-12 19:14:41.2620,-0.07,0.01,0.05
2020-08-12 19:14:41.3610,0.0,-0.03,0.02
2020-08-12 19:14:41.4610,0.02,-0.02,-0.03
2020-08-12 19:14:41.5600,-0.05,-0.0,-0.01
2020-08-12 19:14:41.6590,0.05,-0.06,-0.01
2020-08-12 19:14:41.7590,0.1,-0.15,0.05
2020-08-12 19:14:41.8580,0.42,-0.54,0.1
2020-08-12 19:14:41.9570,0.07,-0.55,0.18
2020-08-12 19:14:42.0560,0.33,0.19,0.1
2020-08-12 19:14:42.1550,0.55,0.37,-0.08
2020-08-12 19:14:42.2550,-0.12,-0.0,0.05
2020-08-12 19:14:42.3540,-0.41,-0.44,0.08
2020-08-12 19:14:42.4530,-0.91,-0.33,0.28
2020-08-12 19:14:42.5530,-0.67,-0.25,0.13
2020-08-12 19:14:42.6520,-0.46,-0.22,0.08
2020-08-12 19:14:42.7510,-0.19,0.07,0.11
2020-08-12 19:14:42.8500,0.02,0.0,0.12
2020-08-12 19:14:42.9500,0.0,-0.04,-0.07
2020-08-12 19:14:43.0490,-0.07,-0.01,-0.08
2020-08-12 19:14:43.1480,-0.06,0.01,0.01
2020-08-12 19:14:43.2480,0.05,-0.04,0.01
2020-08-12 19:14:43.3470,0.07,-0.31,0.12
2020-08-12 19:14:43.4460,0.28,-0.51,0.02
2020-08-12 19:14:43.5450,0.26,-0.45,0.28
2020-08-12 19:14:43.6450,0.05,-0.05,0.34
2020-08-12 19:14:43.7440,0.55,0.29,-0.06
2020-08-12 19:14:43.8430,-0.05,-0.04,0.09
2020-08-12 19:14:43.9420,-0.24,-0.34,0.06
2020-08-12 19:14:44.0420,-1.11,-0.63,0.17
2020-08-12 19:14:44.1410,-0.9,-0.04,0.16
2020-08-12 19:14:44.2400,-0.34,-0.05,0.06
2020-08-12 19:14:44.3390,-0.25,0.1,0.24
2020-08-12 19:14:44.4390,-0.05,0.0,-0.04
2020-08-12 19:14:44.5380,-0.05,0.0,0.01
2020-08-12 19:14:44.6370,-0.0,-0.01,0.09
2020-08-12 19:14:44.7370,-0.06,0.01,0.01
2020-08-12 19:14:44.8360,0.03,-0.04,-0.01
2020-08-12 19:14:44.9350,0.16,-0.25,0.15
2020-08-12 19:14:45.0350,0.36,-0.55,0.08
2020-08-12 19:14:45.1340,0.12,-0.69,0.31
2020-08-12 19:14:45.2330,0.44,0.21,0.21
2020-08-12 19:14:45.3320,0.48,0.27,-0.15
2020-08-12 19:14:45.4310,-0.18,-0.08,-0.03
2020-08-12 19:14:45.5310,-0.74,-0.59,0.19
2020-08-12 19:14:45.6300,-0.98,-0.03,0.15
2020-08-12 19:14:45.7290,0.02,-0.2,-0.21
2020-08-12 19:14:45.8280,-0.22,0.26,0.09
2020-08-12 19:14:45.9280,-0.08,-0.0,-0.1
2020-08-12 19:14:46.0270,-0.14,0.05,0.09
2020-08-12 19:14:46.1260,-0.02,-0.01,-0.11
2020-08-12 19:14:46.2260,-0.06,0.01,-0.02
2020-08-12 19:14:46.3250,-0.05,0.02,0.0
2020-08-12 19:14:46.4240,0.05,-0.08,0.05
2020-08-12 19:14:46.5230,0.13,-0.29,0.06
2020-08-12 19:14:46.6230,0.69,-0.54,0.06
2020-08-12 19:14:46.7220,0.55,-0.13,0.28
2020-08-12 19:14:46.8210,0.68,0.27,-0.11
2020-08-12 19:14:46.9200,0.35,0.17,-0.05
2020-08-12 19:14:47.0200,-0.11,-0.17,-0.09
2020-08-12 19:14:47.1190,-0.57,-0.74,0.05
2020-08-12 19:14:47.2180,-1.37,-0.06,0.33
2020-08-12 19:14:47.3180,0.76,-0.92,-0.44
2020-08-12 19:14:47.4170,-0.32,0.18,0.17
2020-08-12 19:14:47.5160,0.07,-0.05,-0.1
2020-08-12 19:14:47.6150,-0.05,0.0,-0.05
2020-08-12 19:14:47.7150,-0.03,-0.01,-0.04
2020-08-12 19:14:47.8140,-0.07,0.01,0.03
2020-08-12 19:14:47.9130,0.02,-0.04,-0.0
2020-08-12 19:14:48.0120,0.14,-0.12,0.1
2020-08-12 19:14:48.1120,0.15,-0.29,-0.01
2020-08-12 19:14:48.2110,0.49,-0.46,0.17
2020-08-12 19:14:48.3100,0.66,-0.24,0.31
2020-08-12 19:14:48.4100,0.63,0.21,-0.23
2020-08-12 19:14:48.5090,0.18,0.03,-0.06
2020-08-12 19:14:48.6080,-0.09,-0.23,0.03
2020-08-12 19:14:48.7070,-1.15,-0.71,0.25
2020-08-12 19:14:48.8070,-1.3,-0.36,0.01
2020-08-12 19:14:48.9060,-0.33,0.03,0.26
2020-08-12 19:14:49.0050,-0.33,0.11,0.04
2020-08-12 19:14:49.1050,-0.08,0.04,0.1
2020-08-12 19:14:49.2040,-0.02,-0.03,0.01
2020-08-12 19:14:49.3030,0.08,-0.06,-0.08
2020-08-12 19:14:49.4020,-0.04,-0.01,-0.03
2020-08-12 19:14:49.5010,-0.04,-0.01,-0.02
2020-08-12 19:14:49.6010,0.08,-0.19,0.1
2020-08-12 19:14:49.7000,0.3,-0.54,0.04
2020-08-12 19:14:49.7990,0.4,-0.3,0.2
2020-08-12 19:14:49.8990,0.09,-0.04,0.3
2020-08-12 19:14:49.9980,0.54,0.2,-0.12
2020-08-12 19:14:50.0970,0.19,0.07,0.12
2020-08-12 19:14:50.1960,-0.04,-0.15,-0.01
2020-08-12 19:14:50.2960,-1.41,-0.82,0.44
2020-08-12 19:14:50.3950,-0.82,0.02,-0.51
2020-08-12 19:14:50.4940,-0.26,0.55,0.27
2020-08-12 19:14:50.5940,-0.19,0.03,-0.14
2020-08-12 19:14:50.6930,-0.05,0.01,0.2
2020-08-12 19:14:50.7920,0.03,-0.03,0.03
2020-08-12 19:14:50.8920,0.01,-0.06,-0.09
2020-08-12 19:14:50.9910,-0.11,0.1,0.01
2020-08-12 19:14:51.0900,0.04,-0.06,0.02
2020-08-12 19:14:51.1890,0.09,-0.19,-0.01
2020-08-12 19:14:51.2880,0.66,-0.52,0.14
2020-08-12 19:14:51.3880,0.46,-0.24,0.21
2020-08-12 19:14:51.4870,0.84,0.29,0.01
2020-08-12 19:14:51.5860,0.5,0.2,-0.07
2020-08-12 19:14:51.6860,-0.05,-0.14,-0.02
2020-08-12 19:14:51.7850,-0.77,-0.86,0.13
2020-08-12 19:14:51.8840,-1.49,-0.01,0.3
2020-08-12 19:14:51.9830,-0.16,-0.62,-0.33
2020-08-12 19:14:52.0820,-0.22,0.16,0.24
2020-08-12 19:14:52.1820,0.02,-0.03,-0.07
2020-08-12 19:14:52.2810,-0.06,-0.0,-0.09
2020-08-12 19:14:52.3800,-0.08,0.02,-0.02
2020-08-12 19:14:52.4800,-0.05,-0.01,0.03
2020-08-12 19:14:52.5790,0.08,-0.09,-0.01
2020-08-12 19:14:52.6780,0.05,-0.09,0.06
2020-08-12 19:14:52.7770,0.19,-0.37,0.13
2020-08-12 19:14:52.8770,0.58,-0.45,0.01
2020-08-12 19:14:52.9760,0.69,-0.26,0.07
2020-08-12 19:14:53.0750,0.55,0.26,-0.1
2020-08-12 19:14:53.1750,0.19,0.04,-0.13
2020-08-12 19:14:53.2740,-0.26,-0.59,-0.08
2020-08-12 19:14:53.3730,-1.34,-0.23,0.61
2020-08-12 19:14:53.4720,-0.29,0.19,-0.14
2020-08-12 19:14:53.5720,-0.3,-0.08,0.08
2020-08-12 19:14:53.6710,-0.14,0.05,0.02
2020-08-12 19:14:53.7700,-0.17,0.05,-0.04
2020-08-12 19:14:53.8690,-0.05,0.01,-0.02
2020-08-12 19:14:53.9690,-0.03,0.0,0.05
2020-08-12 19:14:54.0680,-0.02,-0.01,0.01
2020-08-12 19:14:54.1670,-0.0,-0.02,0.04
2020-08-12 19:14:54.2660,0.11,-0.11,0.11
2020-08-12 19:14:54.3660,0.32,-0.55,0.04
2020-08-12 19:14:54.4650,0.19,-0.76,0.32
2020-08-12 19:14:54.5640,0.39,0.09,0.12
2020-08-12 19:14:54.6640,0.59,0.3,-0.06
2020-08-12 19:14:54.7630,-0.06,-0.01,-0.16
2020-08-12 19:14:54.8620,-0.44,-0.59,0.02
2020-08-12 19:14:54.9610,-1.5,0.12,0.61
2020-08-12 19:14:55.0610,0.45,-0.86,-0.22
2020-08-12 19:14:55.1600,-0.19,0.06,0.12
2020-08-12 19:14:55.2590,0.01,-0.03,0.0
2020-08-12 19:14:55.3590,-0.14,0.05,0.01
2020-08-12 19:14:55.4580,-0.06,0.02,-0.01
2020-08-12 19:14:55.5570,-0.06,0.02,0.01
2020-08-12 19:14:55.6570,0.06,-0.08,0.02
2020-08-12 19:14:55.7560,0.09,-0.17,0.09
2020-08-12 19:14:55.8550,0.37,-0.56,-0.01
2020-08-12 19:14:55.9540,0.09,-0.55,0.17
2020-08-12 19:14:56.0530,0.83,0.2,0.12
2020-08-12 19:14:56.1530,0.42,0.17,-0.06
2020-08-12 19:14:56.2520,-0.11,-0.09,-0.03
2020-08-12 19:14:56.3510,-0.48,-0.65,-0.04
2020-08-12 19:14:56.4510,-1.22,0.08,0.32
2020-08-12 19:14:56.5500,0.66,-0.67,-0.48
2020-08-12 19:14:56.6490,-0.4,0.26,0.33
2020-08-12 19:14:56.7480,-0.05,-0.03,-0.17
2020-08-12 19:14:56.8470,-0.07,0.03,0.23
2020-08-12 19:14:56.9470,-0.07,0.01,-0.07
2020-08-12 19:14:57.0460,-0.03,0.01,0.01
2020-08-12 19:14:57.1450,-0.07,0.02,0.04
2020-08-12 19:14:57.2450,0.04,-0.08,0.09
2020-08-12 19:14:57.3440,0.13,-0.31,0.02
2020-08-12 19:14:57.4430,0.66,-0.49,0.04
2020-08-12 19:14:57.5430,0.51,-0.4,0.29
2020-08-12 19:14:57.6420,0.64,0.32,-0.17
2020-08-12 19:14:57.7410,0.33,0.15,0.03
2020-08-12 19:14:57.8400,-0.1,-0.29,0.04
2020-08-12 19:14:57.9390,-0.87,-0.55,0.06
2020-08-12 19:14:58.0390,-1.2,-0.4,0.21
2020-08-12 19:14:58.1380,-0.2,-0.19,0.37
2020-08-12 19:14:58.2370,-0.29,0.16,0.33
2020-08-12 19:14:58.3370,-0.01,-0.0,0.08
2020-08-12 19:14:58.4360,-0.05,0.01,-0.02
2020-08-12 19:14:58.5350,-0.05,0.01,-0.01
2020-08-12 19:14:58.6340,-0.04,0.02,0.05
2020-08-12 19:14:58.7340,0.01,0.0,0.03
2020-08-12 19:14:58.8330,0.04,-0.19,0.09
2020-08-12 19:14:58.9320,0.23,-0.49,0.01
2020-08-12 19:14:59.0320,0.33,-0.44,0.34
2020-08-12 19:14:59.1310,0.24,0.15,0.22
2020-08-12 19:14:59.2300,0.46,0.31,-0.13
2020-08-12 19:14:59.3290,0.13,0.04,0.04
2020-08-12 19:14:59.4290,-0.29,-0.44,0.19
2020-08-12 19:14:59.5280,-0.84,-0.4,0.07
2020-08-12 19:14:59.6270,-1.08,-0.42,0.03
2020-08-12 19:14:59.7260,-0.44,-0.09,0.32
2020-08-12 19:14:59.8260,-0.29,0.12,0.2
2020-08-12 19:14:59.9250,0.0,-0.02,0.09
2020-08-12 19:15:00.0240,-0.0,-0.03,-0.02
2020-08-12 19:15:00.1240,-0.06,-0.0,-0.08
2020-08-12 19:15:00.2230,-0.05,0.01,0.01
2020-08-12 19:15:00.3220,0.09,-0.05,-0.01
2020-08-12 19:15:00.4210,-0.0,-0.4,0.04
2020-08-12 19:15:00.5210,0.36,-0.55,0.09
2020-08-12 19:15:00.6200,0.09,-0.5,0.21
2020-08-12 19:15:00.7190,0.58,0.04,0.18
2020-08-12 19:15:00.8180,0.57,0.31,-0.03
2020-08-12 19:15:00.9180,-0.02,0.04,0.09
2020-08-12 19:15:01.0170,-0.51,-0.67,0.1
2020-08-12 19:15:01.1160,-1.37,0.11,0.44
2020-08-12 19:15:01.2150,1.43,-0.59,-1.07
2020-08-12 19:15:01.3150,-0.47,0.05,0.03
2020-08-12 19:15:01.4140,0.01,-0.04,-0.1
2020-08-12 19:15:01.5130,-0.16,0.06,0.03
2020-08-12 19:15:01.6130,0.02,-0.02,0.01
2020-08-12 19:15:01.7120,-0.03,0.01,0.04
2020-08-12 19:15:01.8110,-0.01,0.0,0.04
2020-08-12 19:15:01.9110,0.08,-0.14,0.03
2020-08-12 19:15:02.0100,0.22,-0.44,0.05
2020-08-12 19:15:02.1090,0.34,-0.42,0.22
2020-08-12 19:15:02.2080,0.27,0.05,0.29
2020-08-12 19:15:02.3080,0.6,0.18,-0.09
2020-08-12 19:15:02.4070,0.22,0.17,0.06
2020-08-12 19:15:02.5060,-0.06,-0.35,-0.05
2020-08-12 19:15:02.6050,-1.01,-0.52,0.22
2020-08-12 19:15:02.7040,-1.27,-0.0,0.22
2020-08-12 19:15:02.8040,-0.16,-0.18,0.32
2020-08-12 19:15:02.9030,-0.27,0.14,0.3
2020-08-12 19:15:03.0020,0.02,-0.03,-0.03
2020-08-12 19:15:03.1020,-0.09,0.02,-0.02
2020-08-12 19:15:03.2010,-0.06,0.01,0.08
2020-08-12 19:15:03.3000,-0.07,0.02,0.04
2020-08-12 19:15:03.3990,0.05,-0.02,0.08
2020-08-12 19:15:03.4990,0.1,-0.1,0.07
2020-08-12 19:15:03.5980,0.36,-0.57,-0.03
2020-08-12 19:15:03.6970,0.04,-0.67,0.42
2020-08-12 19:15:03.7970,0.62,-0.03,0.14
2020-08-12 19:15:03.8960,0.53,0.25,-0.13
2020-08-12 19:15:03.9950,-0.06,0.07,0.09
2020-08-12 19:15:04.0940,-0.34,-0.41,0.01
2020-08-12 19:15:04.1940,-1.07,-0.29,0.35
2020-08-12 19:15:04.2930,0.25,-0.36,-0.33
2020-08-12 19:15:04.3920,-0.34,0.05,0.36
2020-08-12 19:15:04.4920,-0.08,0.0,-0.11
2020-08-12 19:15:04.5910,-0.05,0.03,0.18
2020-08-12 19:15:04.6900,0.11,-0.08,-0.07
2020-08-12 19:15:04.7890,-0.04,-0.0,-0.03
2020-08-12 19:15:04.8880,-0.04,-0.0,0.05
2020-08-12 19:15:04.9880,0.08,-0.12,0.03
2020-08-12 19:15:05.0870,0.07,-0.25,0.12
2020-08-12 19:15:05.1860,0.63,-0.82,0.23
2020-08-12 19:15:05.2860,0.81,0.16,0.5
2020-08-12 19:15:05.3850,0.67,0.08,-0.09
2020-08-12 19:15:05.4840,0.36,0.16,-0.06
2020-08-12 19:15:05.5830,-0.03,-0.26,-0.06
2020-08-12 19:15:05.6820,-1.12,-0.86,0.37
2020-08-12 19:15:05.7820,-1.35,-0.59,0.04
2020-08-12 19:15:05.8810,-0.52,-0.11,0.36
2020-08-12 19:15:05.9820,-0.3,0.1,-0.21
2020-08-12 19:15:06.0790,-0.24,0.11,0.11
2020-08-12 19:15:06.1800,-0.04,0.01,0.04
2020-08-12 19:15:06.2800,-0.07,0.01,-0.06
2020-08-12 19:15:06.3780,-0.0,0.01,0.11
2020-08-12 19:15:06.4770,0.1,-0.1,0.05
2020-08-12 19:15:06.5780,0.14,-0.34,0.11
2020-08-12 19:15:06.6750,0.68,-0.66,0.08
2020-08-12 19:15:06.7830,0.58,0.19,0.41
2020-08-12 19:15:06.8740,0.55,0.19,-0.16
2020-08-12 19:15:06.9730,0.27,0.18,0.04
2020-08-12 19:15:07.0720,-0.13,-0.3,0.06
2020-08-12 19:15:07.1720,-1.22,-0.6,0.32
2020-08-12 19:15:07.2710,-1.01,-0.23,0.08
2020-08-12 19:15:07.3700,-0.44,-0.19,0.19
2020-08-12 19:15:07.4700,-0.35,0.16,0.41
2020-08-12 19:15:07.5690,-0.0,-0.0,0.04
2020-08-12 19:15:07.6680,-0.09,0.02,-0.04
2020-08-12 19:15:07.7670,-0.04,-0.0,0.04
2020-08-12 19:15:07.8670,-0.01,0.01,0.12
2020-08-12 19:15:07.9660,0.09,-0.16,-0.05
2020-08-12 19:15:08.0650,0.18,-0.38,0.15
2020-08-12 19:15:08.1640,0.6,-0.72,-0.0
2020-08-12 19:15:08.2640,0.75,-0.3,0.21
2020-08-12 19:15:08.3630,0.67,0.2,-0.18
2020-08-12 19:15:08.4620,0.4,0.16,0.07
2020-08-12 19:15:08.5620,-0.13,-0.32,-0.0
2020-08-12 19:15:08.6610,-1.19,-0.77,0.24
2020-08-12 19:15:08.7600,-1.13,-0.11,0.21
2020-08-12 19:15:08.8590,-0.27,-0.28,0.22
2020-08-12 19:15:08.9580,-0.2,0.12,0.24
2020-08-12 19:15:09.0580,-0.02,-0.01,-0.02
2020-08-12 19:15:09.1570,-0.08,0.02,0.09
2020-08-12 19:15:09.2560,-0.05,0.0,0.02
2020-08-12 19:15:09.3560,-0.01,-0.0,0.02
2020-08-12 19:15:09.4550,0.09,-0.08,0.06
2020-08-12 19:15:09.5540,0.11,-0.2,0.04
2020-08-12 19:15:09.6540,0.6,-0.67,0.07
2020-08-12 19:15:09.7530,0.79,-0.33,0.22
2020-08-12 19:15:09.8520,0.64,0.3,-0.11
2020-08-12 19:15:09.9510,0.49,0.21,-0.1
2020-08-12 19:15:10.0510,-0.14,-0.32,0.07
2020-08-12 19:15:10.1500,-1.18,-0.58,0.34
2020-08-12 19:15:10.2490,-1.28,-0.79,-0.13
2020-08-12 19:15:10.3490,-0.5,-0.04,-0.12
2020-08-12 19:15:10.4480,-0.36,0.11,0.26
2020-08-12 19:15:10.5470,0.03,-0.03,0.06
2020-08-12 19:15:10.6460,-0.0,-0.01,0.03
2020-08-12 19:15:10.7460,-0.14,0.06,-0.07
2020-08-12 19:15:10.8450,-0.1,0.04,0.01
2020-08-12 19:15:10.9440,0.03,-0.04,0.12
2020-08-12 19:15:11.0430,0.13,-0.27,0.07
2020-08-12 19:15:11.1430,0.6,-0.68,0.03
2020-08-12 19:15:11.2420,0.77,-0.42,0.39
2020-08-12 19:15:11.3410,0.62,0.4,-0.03
2020-08-12 19:15:11.4410,0.5,0.11,-0.13
2020-08-12 19:15:11.5400,-0.08,-0.48,-0.03
2020-08-12 19:15:11.6390,-0.96,-0.57,0.14
2020-08-12 19:15:11.7380,-1.35,-0.05,0.26
2020-08-12 19:15:11.8380,-0.5,-0.03,0.52
2020-08-12 19:15:11.9370,-0.4,0.21,0.51
2020-08-12 19:15:12.0360,0.08,-0.06,0.05
2020-08-12 19:15:12.1350,-0.05,-0.0,-0.07
2020-08-12 19:15:12.2350,-0.07,0.01,0.02
2020-08-12 19:15:12.3340,-0.01,-0.02,-0.02
2020-08-12 19:15:12.4330,0.06,-0.06,0.05
2020-08-12 19:15:12.5320,0.06,-0.38,-0.0
2020-08-12 19:15:12.6320,0.48,-0.57,-0.02
2020-08-12 19:15:12.7310,0.84,-1.04,0.11
2020-08-12 19:15:12.8300,0.89,0.32,-0.01
2020-08-12 19:15:12.9300,0.59,0.31,-0.1
2020-08-12 19:15:13.0290,-0.08,-0.18,0.06
2020-08-12 19:15:13.1280,-1.07,-0.82,0.31
2020-08-12 19:15:13.2270,-1.46,-0.1,0.22
2020-08-12 19:15:13.3270,-0.22,-0.45,0.18
2020-08-12 19:15:13.4260,-0.29,0.13,0.11
2020-08-12 19:15:13.5250,-0.02,-0.01,0.02
2020-08-12 19:15:13.6240,-0.14,0.04,0.02
2020-08-12 19:15:13.7240,-0.05,0.0,0.01
2020-08-12 19:15:13.8230,-0.04,0.0,0.03
2020-08-12 19:15:13.9220,-0.01,0.0,0.01
2020-08-12 19:15:14.0210,0.03,-0.08,-0.01
2020-08-12 19:15:14.1210,0.2,-0.41,-0.05
2020-08-12 19:15:14.2200,0.6,-0.6,0.14
2020-08-12 19:15:14.3190,0.16,-0.32,0.42
2020-08-12 19:15:14.4190,0.59,0.35,-0.05
2020-08-12 19:15:14.5180,0.3,0.22,-0.15
2020-08-12 19:15:14.6170,-0.26,-0.5,0.07
2020-08-12 19:15:14.7170,-1.35,-0.57,0.29
2020-08-12 19:15:14.8160,-0.31,0.16,-0.22
2020-08-12 19:15:14.9150,-0.35,-0.03,-0.01
2020-08-12 19:15:15.0140,-0.25,0.07,0.11
2020-08-12 19:15:15.1140,-0.05,0.01,0.04
2020-08-12 19:15:15.2130,-0.03,0.0,0.01
2020-08-12 19:15:15.3120,-0.03,-0.01,0.02
2020-08-12 19:15:15.4110,-0.05,0.01,0.02
2020-08-12 19:15:15.5110,0.05,-0.06,0.05
2020-08-12 19:15:15.6100,-0.0,-0.11,-0.07
2020-08-12 19:15:15.7090,0.3,-0.3,-0.03
2020-08-12 19:15:15.8090,0.25,-0.7,0.09
2020-08-12 19:15:15.9080,0.2,0.2,0.16
2020-08-12 19:15:16.0070,0.59,0.23,-0.05
2020-08-12 19:15:16.1060,0.25,0.13,0.05
2020-08-12 19:15:16.2060,-0.18,-0.35,0.11
2020-08-12 19:15:16.3050,-1.18,-0.59,0.49
2020-08-12 19:15:16.4040,-0.21,0.1,-0.15
2020-08-12 19:15:16.5030,-0.57,0.07,0.38
2020-08-12 19:15:16.6030,-0.21,0.07,-0.03
2020-08-12 19:15:16.7020,-0.08,0.03,0.14
2020-08-12 19:15:16.8010,-0.05,-0.0,-0.1
2020-08-12 19:15:16.9010,-0.04,0.01,0.1
2020-08-12 19:15:17.0000,-0.02,0.02,0.05
2020-08-12 19:15:17.0990,0.02,-0.02,0.02
2020-08-12 19:15:17.1980,0.18,-0.26,0.14
2020-08-12 19:15:17.2980,0.34,-0.33,0.03
2020-08-12 19:15:17.3970,0.38,-0.32,0.29
2020-08-12 19:15:17.4960,0.9,-0.06,-0.12
2020-08-12 19:15:17.5950,0.44,0.3,-0.0
2020-08-12 19:15:17.6950,0.28,0.04,-0.03
2020-08-12 19:15:17.7940,-0.35,-0.65,0.06
2020-08-12 19:15:17.8930,-1.17,-0.22,0.27
2020-08-12 19:15:17.9920,0.04,0.46,-0.08
2020-08-12 19:15:18.0920,-0.47,0.1,-0.11
2020-08-12 19:15:18.1910,-0.12,0.02,0.21
2020-08-12 19:15:18.2900,-0.09,0.01,-0.08
2020-08-12 19:15:18.3890,-0.04,-0.01,0.06
2020-08-12 19:15:18.4890,-0.01,-0.02,0.08
2020-08-12 19:15:18.5880,0.03,-0.04,0.03
2020-08-12 19:15:18.6880,0.1,-0.05,-0.04
2020-08-12 19:15:18.7870,0.02,-0.11,0.06
2020-08-12 19:15:18.8860,0.19,-0.43,0.1
2020-08-12 19:15:18.9850,0.49,-0.66,-0.07
2020-08-12 19:15:19.0850,0.19,0.56,0.34
2020-08-12 19:15:19.1840,0.6,0.25,-0.08
2020-08-12 19:15:19.2830,0.23,0.0,-0.05
2020-08-12 19:15:19.3820,-0.28,-0.53,-0.04
2020-08-12 19:15:19.4820,-1.17,-0.31,0.31
2020-08-12 19:15:19.5810,-0.09,0.69,-0.04
2020-08-12 19:15:19.6800,-0.38,-0.25,0.12
2020-08-12 19:15:19.7790,-0.19,0.06,0.03
2020-08-12 19:15:19.8790,-0.03,-0.0,0.09
2020-08-12 19:15:19.9780,-0.06,-0.01,-0.11
2020-08-12 19:15:20.0770,-0.04,-0.01,-0.01
2020-08-12 19:15:20.1760,-0.05,0.0,0.0
2020-08-12 19:15:20.2760,0.03,-0.04,-0.02
2020-08-12 19:15:20.3750,0.01,-0.07,0.0
2020-08-12 19:15:20.4740,0.09,-0.24,0.03
2020-08-12 19:15:20.5730,0.46,-0.41,-0.03
2020-08-12 19:15:20.6730,0.12,-0.01,0.54
2020-08-12 19:15:20.7720,0.62,0.26,-0.22
2020-08-12 19:15:20.8710,0.22,0.14,0.01
2020-08-12 19:15:20.9710,-0.04,-0.14,0.05
2020-08-12 19:15:21.0700,-0.49,-0.34,0.09
2020-08-12 19:15:21.1690,-0.86,-0.08,0.14
2020-08-12 19:15:21.2690,-0.67,-0.02,0.11
2020-08-12 19:15:21.3680,-0.14,-0.58,0.27
2020-08-12 19:15:21.4670,-0.13,0.08,-0.06
2020-08-12 19:15:21.5660,-0.0,-0.04,-0.0
2020-08-12 19:15:21.6660,-0.12,0.02,0.05
2020-08-12 19:15:21.7650,-0.1,0.02,0.01
2020-08-12 19:15:21.8640,-0.06,0.0,0.02
2020-08-12 19:15:21.9630,0.02,-0.02,-0.02
2020-08-12 19:15:22.0630,-0.08,0.01,0.05
2020-08-12 19:15:22.1620,-0.03,-0.01,-0.0
2020-08-12 19:15:22.2610,-0.05,-0.0,-0.0
2020-08-12 19:15:22.3610,-0.03,-0.0,0.01
2020-08-12 19:15:22.4600,-0.06,0.0,-0.02
2020-08-12 19:15:22.5590,-0.02,0.0,-0.01
2020-08-12 19:15:22.6580,-0.05,0.01,0.02
2020-08-12 19:15:22.7570,-0.05,0.01,-0.0
2020-08-12 19:15:22.8570,-0.01,-0.01,-0.0
2020-08-12 19:15:22.9560,-0.02,0.0,0.01
2020-08-12 19:15:23.0550,-0.02,0.0,-0.02
2020-08-12 19:15:23.1550,-0.05,0.02,0.01
2020-08-12 19:15:23.2540,-0.0,-0.01,-0.02
2020-08-12 19:15:23.3530,-0.01,-0.01,0.01
2020-08-12 19:15:23.4550,0.02,-0.02,0.01
2020-08-12 19:15:23.5520,-0.01,-0.01,-0.0
2020-08-12 19:15:23.6510,-0.0,-0.0,-0.06
2020-08-12 19:15:23.7500,0.03,-0.02,0.0
2020-08-12 19:15:23.8490,-0.03,0.01,-0.0
2020-08-12 19:15:23.9490,-0.0,-0.01,-0.03
2020-08-12 19:15:24.0480,0.0,0.0,-0.02
2020-08-12 19:15:24.1470,0.01,-0.01,0.03
2020-08-12 19:15:24.2470,-0.04,0.04,-0.02
2020-08-12 19:15:24.3460,-0.02,0.01,0.02
2020-08-12 19:15:24.4450,-0.01,0.0,-0.0
2020-08-12 19:15:24.5440,-0.01,-0.0,-0.01
2020-08-12 19:15:24.6440,-0.01,0.0,0.02
2020-08-12 19:15:24.7430,0.02,0.01,-0.05
2020-08-12 19:15:24.8420,-0.14,0.09,0.03
2020-08-12 19:15:24.9410,-0.03,0.04,0.04
2020-08-12 19:15:25.0410,-0.05,-0.01,-0.03
