time,ax,ay,az
2020-08-10 16:3:34.0870,0.01,-0.01,0.0
2020-08-10 16:3:34.1970,-0.0,0.01,-0.03
2020-08-10 16:3:34.2850,0.02,-0.0,0.01
2020-08-10 16:3:34.3900,-0.03,0.01,0.02
2020-08-10 16:3:34.4840,-0.04,-0.0,0.01
2020-08-10 16:3:34.5920,-0.0,-0.01,-0.02
2020-08-10 16:3:34.6820,-0.03,0.01,0.01
2020-08-10 16:3:34.7920,-0.02,0.02,0.01
2020-08-10 16:3:34.8810,-0.01,-0.0,0.01
2020-08-10 16:3:34.9910,-0.02,-0.01,-0.03
2020-08-10 16:3:35.0790,0.01,-0.02,-0.02
2020-08-10 16:3:35.1890,0.01,-0.01,0.01
2020-08-10 16:3:35.2780,-0.01,0.03,0.03
2020-08-10 16:3:35.3870,0.0,0.03,-0.01
2020-08-10 16:3:35.4770,0.01,0.02,0.01
2020-08-10 16:3:35.5910,0.06,-0.01,-0.03
2020-08-10 16:3:35.6750,-0.01,0.01,0.0
2020-08-10 16:3:35.7790,0.01,0.01,-0.0
2020-08-10 16:3:35.8740,0.02,0.01,-0.02
2020-08-10 16:3:35.9830,-0.01,-0.0,0.01
2020-08-10 16:3:36.0720,-0.01,0.0,-0.0
2020-08-10 16:3:36.1810,-0.0,0.0,-0.02
2020-08-10 16:3:36.2710,-0.01,0.0,-0.0
2020-08-10 16:3:36.3820,-0.0,-0.0,-0.01
2020-08-10 16:3:36.4690,0.0,0.01,0.0
2020-08-10 16:3:36.5770,0.0,0.0,-0.01
2020-08-10 16:3:36.6680,0.01,0.0,-0.0
2020-08-10 16:3:36.7770,-0.0,0.0,0.01
2020-08-10 16:3:36.8660,0.01,0.0,-0.01
2020-08-10 16:3:36.9750,-0.01,-0.01,-0.01
2020-08-10 16:3:37.0650,0.0,0.0,-0.01
2020-08-10 16:3:37.1760,0.04,0.07,-0.02
2020-08-10 16:3:37.2630,-0.03,0.01,0.07
2020-08-10 16:3:37.3770,-0.01,-0.02,-0.02
2020-08-10 16:3:37.4620,0.0,0.02,-0.01
2020-08-10 16:3:37.5610,-0.05,0.01,0.0
2020-08-10 16:3:37.6770,0.01,0.0,-0.0
2020-08-10 16:3:37.7600,-0.02,0.01,-0.03
2020-08-10 16:3:37.8590,0.03,-0.01,-0.01
2020-08-10 16:3:37.9710,-0.02,0.07,-0.07
2020-08-10 16:3:38.0580,-0.08,0.02,0.01
2020-08-10 16:3:38.1660,0.03,-0.02,-0.02
2020-08-10 16:3:38.2560,0.0,0.04,0.04
2020-08-10 16:3:38.3620,-0.03,0.01,-0.01
2020-08-10 16:3:38.4540,0.0,0.01,-0.04
2020-08-10 16:3:38.5600,-0.0,0.01,0.0
2020-08-10 16:3:38.6530,-0.04,-0.01,-0.03
2020-08-10 16:3:38.7580,-0.03,-0.01,-0.01
2020-08-10 16:3:38.8520,-0.02,0.0,-0.01
2020-08-10 16:3:38.9600,0.0,-0.01,-0.02
2020-08-10 16:3:39.0500,-0.0,-0.01,0.04
2020-08-10 16:3:39.1580,-0.01,-0.0,0.03
2020-08-10 16:3:39.2490,-0.24,-0.08,0.09
2020-08-10 16:3:39.3580,-0.06,-0.31,0.4
2020-08-10 16:3:39.4470,-0.89,0.3,-0.12
2020-08-10 16:3:39.5580,-0.22,-0.11,-0.23
2020-08-10 16:3:39.6460,0.32,-0.28,-0.1
2020-08-10 16:3:39.7540,0.53,0.07,-0.02
2020-08-10 16:3:39.8440,0.46,0.04,-0.01
2020-08-10 16:3:39.9520,-1.15,-0.25,-0.2
2020-08-10 16:3:40.0430,0.2,-0.03,-0.2
2020-08-10 16:3:40.1500,0.25,-0.07,0.04
2020-08-10 16:3:40.2420,0.07,0.03,0.04
2020-08-10 16:3:40.3540,0.02,0.01,-0.0
2020-08-10 16:3:40.4400,-0.01,-0.01,0.0
2020-08-10 16:3:40.5470,-0.02,0.0,-0.04
2020-08-10 16:3:40.6380,-0.02,0.02,-0.02
2020-08-10 16:3:40.7440,-0.05,-0.03,-0.01
2020-08-10 16:3:40.8370,-0.07,-0.18,-0.05
2020-08-10 16:3:40.9440,-0.32,-0.59,-0.04
2020-08-10 16:3:41.0350,-0.64,-0.44,0.32
2020-08-10 16:3:41.1420,-0.75,0.07,0.07
2020-08-10 16:3:41.2340,-0.68,0.11,0.04
2020-08-10 16:3:41.3450,0.26,-0.46,-0.14
2020-08-10 16:3:41.4330,0.17,-0.25,-0.03
2020-08-10 16:3:41.5400,0.71,-0.37,0.07
2020-08-10 16:3:41.6310,1.08,-0.02,0.1
2020-08-10 16:3:41.7420,-1.74,-0.01,-0.33
2020-08-10 16:3:41.8300,0.12,-0.08,-0.06
2020-08-10 16:3:41.9410,0.03,-0.03,-0.17
2020-08-10 16:3:42.0280,-0.05,0.04,0.05
2020-08-10 16:3:42.1380,-0.04,0.01,0.0
2020-08-10 16:3:42.2270,-0.01,-0.0,0.01
2020-08-10 16:3:42.3340,-0.06,0.02,0.02
2020-08-10 16:3:42.4250,-0.04,-0.02,-0.02
2020-08-10 16:3:42.5350,-0.07,-0.11,-0.03
2020-08-10 16:3:42.6240,-0.18,-0.26,0.01
2020-08-10 16:3:42.7310,-0.53,-0.64,-0.04
2020-08-10 16:3:42.8220,-0.27,-0.21,0.06
2020-08-10 16:3:42.9310,-0.87,0.3,0.11
2020-08-10 16:3:43.0210,-0.62,0.13,-0.09
2020-08-10 16:3:43.1320,0.18,-0.46,0.01
2020-08-10 16:3:43.2190,0.59,-0.5,0.05
2020-08-10 16:3:43.3280,0.81,-0.04,0.11
2020-08-10 16:3:43.4180,0.9,0.01,0.05
2020-08-10 16:3:43.5360,-2.6,-0.03,-0.53
2020-08-10 16:3:43.6160,0.14,-0.12,0.25
2020-08-10 16:3:43.7200,-0.05,-0.04,-0.15
2020-08-10 16:3:43.8150,-0.06,0.01,0.04
2020-08-10 16:3:43.9260,-0.04,0.04,0.03
2020-08-10 16:3:44.0140,0.02,-0.02,-0.06
2020-08-10 16:3:44.1240,-0.02,0.0,0.01
2020-08-10 16:3:44.2120,-0.03,-0.05,-0.04
2020-08-10 16:3:44.3200,-0.04,-0.08,0.03
2020-08-10 16:3:44.4110,-0.17,-0.25,0.0
2020-08-10 16:3:44.5270,-0.44,-0.76,-0.04
2020-08-10 16:3:44.6090,-0.3,-0.15,0.2
2020-08-10 16:3:44.7190,-1.01,0.27,0.04
2020-08-10 16:3:44.8070,-0.63,0.08,-0.08
2020-08-10 16:3:44.9230,0.2,-0.4,-0.1
2020-08-10 16:3:45.0060,0.51,-0.44,-0.01
2020-08-10 16:3:45.1120,1.17,-0.11,0.14
2020-08-10 16:3:45.2050,0.67,-0.17,0.09
2020-08-10 16:3:45.3160,0.47,-0.24,-0.15
2020-08-10 16:3:45.4030,0.14,-0.01,-0.08
2020-08-10 16:3:45.5090,-0.02,0.01,0.07
2020-08-10 16:3:45.6020,-0.05,0.01,-0.01
2020-08-10 16:3:45.7110,-0.02,0.03,0.02
2020-08-10 16:3:45.8000,-0.02,-0.02,-0.03
2020-08-10 16:3:45.9080,-0.06,0.0,-0.01
2020-08-10 16:3:45.9990,-0.04,-0.05,-0.02
2020-08-10 16:3:46.1070,-0.02,-0.15,-0.05
2020-08-10 16:3:46.1970,-0.23,-0.37,-0.04
2020-08-10 16:3:46.3040,-0.7,-0.28,0.3
2020-08-10 16:3:46.3960,-0.16,-0.23,-0.05
2020-08-10 16:3:46.5060,-0.78,0.18,0.1
2020-08-10 16:3:46.5940,-0.22,-0.22,-0.21
2020-08-10 16:3:46.7060,0.32,-0.33,-0.08
2020-08-10 16:3:46.7930,0.62,-0.3,-0.03
2020-08-10 16:3:46.9000,1.05,-0.06,0.13
2020-08-10 16:3:46.9910,0.32,-0.29,-0.1
2020-08-10 16:3:47.0960,0.43,-0.25,-0.01
2020-08-10 16:3:47.1900,0.09,-0.02,-0.06
2020-08-10 16:3:47.2950,0.06,-0.0,-0.04
2020-08-10 16:3:47.3890,-0.01,-0.04,-0.09
2020-08-10 16:3:47.4930,-0.01,0.01,0.02
2020-08-10 16:3:47.5870,-0.05,0.05,0.02
2020-08-10 16:3:47.7020,-0.0,0.01,-0.08
2020-08-10 16:3:47.7860,-0.04,-0.09,-0.03
2020-08-10 16:3:47.8930,-0.14,-0.23,-0.02
2020-08-10 16:3:47.9840,-0.27,-0.74,-0.16
2020-08-10 16:3:48.0930,-0.21,-0.29,0.23
2020-08-10 16:3:48.1830,-0.98,0.21,0.06
2020-08-10 16:3:48.2930,-0.62,0.14,-0.1
2020-08-10 16:3:48.3810,0.03,-0.54,-0.04
2020-08-10 16:3:48.4930,0.44,-0.33,-0.06
2020-08-10 16:3:48.5800,0.64,-0.1,0.01
2020-08-10 16:3:48.6890,0.88,0.01,0.07
2020-08-10 16:3:48.7780,-1.15,-0.07,-0.09
2020-08-10 16:3:48.8950,0.3,-0.23,-0.03
2020-08-10 16:3:48.9770,-0.05,-0.01,-0.06
2020-08-10 16:3:49.0760,0.01,-0.02,-0.01
2020-08-10 16:3:49.1890,-0.02,-0.0,-0.01
2020-08-10 16:3:49.2740,-0.01,-0.0,-0.01
2020-08-10 16:3:49.3850,-0.05,-0.0,-0.0
2020-08-10 16:3:49.4730,-0.05,-0.01,-0.03
2020-08-10 16:3:49.5810,-0.06,-0.05,-0.0
2020-08-10 16:3:49.6720,-0.15,-0.34,-0.01
2020-08-10 16:3:49.7810,-0.5,-0.5,0.08
2020-08-10 16:3:49.8700,-0.42,-0.07,0.21
2020-08-10 16:3:49.9870,-1.21,0.36,0.1
2020-08-10 16:3:50.0690,-0.48,0.07,-0.17
2020-08-10 16:3:50.1680,0.04,-0.43,-0.03
2020-08-10 16:3:50.2680,0.47,-0.3,0.06
2020-08-10 16:3:50.3700,0.71,-0.14,0.02
2020-08-10 16:3:50.4660,1.09,0.05,0.17
2020-08-10 16:3:50.5750,0.51,-0.24,-0.16
2020-08-10 16:3:50.6640,0.32,0.14,0.34
2020-08-10 16:3:50.7730,-0.17,-0.02,0.04
2020-08-10 16:3:50.8630,-0.03,-0.01,-0.01
2020-08-10 16:3:50.9760,-0.03,0.0,0.01
2020-08-10 16:3:51.0610,0.02,-0.01,-0.09
2020-08-10 16:3:51.1660,-0.01,0.01,-0.08
2020-08-10 16:3:51.2600,-0.02,-0.04,-0.0
2020-08-10 16:3:51.3640,-0.12,-0.09,0.06
2020-08-10 16:3:51.4590,-0.14,-0.22,-0.02
2020-08-10 16:3:51.5650,-0.39,-0.48,-0.01
2020-08-10 16:3:51.6570,-0.64,-0.41,0.28
2020-08-10 16:3:51.7640,-0.82,-0.01,0.01
2020-08-10 16:3:51.8560,-0.61,0.22,-0.06
2020-08-10 16:3:51.9730,0.12,-0.48,-0.15
2020-08-10 16:3:52.0540,0.32,-0.27,0.07
2020-08-10 16:3:52.1590,0.68,-0.19,0.04
2020-08-10 16:3:52.2530,0.97,0.02,0.04
2020-08-10 16:3:52.3610,-1.83,-0.07,-0.5
2020-08-10 16:3:52.4510,0.09,-0.12,-0.13
2020-08-10 16:3:52.5610,0.18,-0.05,-0.15
2020-08-10 16:3:52.6500,-0.01,0.01,-0.0
2020-08-10 16:3:52.7560,-0.01,0.0,-0.05
2020-08-10 16:3:52.8480,0.03,-0.01,-0.03
2020-08-10 16:3:52.9600,0.01,-0.0,-0.04
2020-08-10 16:3:53.0470,-0.04,-0.01,-0.01
2020-08-10 16:3:53.1590,-0.03,-0.0,-0.02
2020-08-10 16:3:53.2450,-0.04,-0.08,-0.02
2020-08-10 16:3:53.3500,-0.13,-0.38,-0.08
2020-08-10 16:3:53.4440,-0.4,-0.43,-0.04
2020-08-10 16:3:53.5530,-0.42,-0.22,0.14
2020-08-10 16:3:53.6420,-0.87,0.28,0.03
2020-08-10 16:3:53.7510,-0.64,0.2,-0.11
2020-08-10 16:3:53.8410,0.16,-0.42,-0.04
2020-08-10 16:3:53.9500,0.41,-0.33,-0.02
2020-08-10 16:3:54.0390,0.69,-0.11,0.03
2020-08-10 16:3:54.1480,1.01,0.07,0.01
2020-08-10 16:3:54.2380,0.13,-0.31,0.04
2020-08-10 16:3:54.3440,0.26,-0.01,0.03
2020-08-10 16:3:54.4360,0.01,-0.04,-0.04
2020-08-10 16:3:54.5450,-0.04,0.01,0.01
2020-08-10 16:3:54.6350,-0.04,0.01,-0.02
2020-08-10 16:3:54.7450,0.02,-0.01,-0.03
2020-08-10 16:3:54.8340,-0.01,-0.02,-0.04
2020-08-10 16:3:54.9390,-0.07,-0.02,-0.04
2020-08-10 16:3:55.0320,0.01,-0.03,-0.05
2020-08-10 16:3:55.1420,-0.06,-0.17,-0.03
2020-08-10 16:3:55.2300,-0.27,-0.39,-0.05
2020-08-10 16:3:55.3390,-0.62,-0.43,0.31
2020-08-10 16:3:55.4290,-0.27,-0.14,0.07
2020-08-10 16:3:55.5370,-0.64,0.19,0.07
2020-08-10 16:3:55.6280,-0.06,-0.25,-0.1
2020-08-10 16:3:55.7320,0.31,-0.32,-0.06
2020-08-10 16:3:55.8260,0.59,-0.28,-0.0
2020-08-10 16:3:55.9370,1.0,-0.03,0.03
2020-08-10 16:3:56.0250,0.34,-0.27,0.06
2020-08-10 16:3:56.1330,0.21,-0.23,-0.11
2020-08-10 16:3:56.2230,0.09,-0.04,-0.06
2020-08-10 16:3:56.3290,0.04,0.03,-0.07
2020-08-10 16:3:56.4220,0.0,-0.01,-0.07
2020-08-10 16:3:56.5310,0.0,-0.01,-0.04
2020-08-10 16:3:56.6200,-0.03,0.02,0.0
2020-08-10 16:3:56.7300,-0.02,0.01,-0.04
2020-08-10 16:3:56.8190,-0.06,-0.03,-0.03
2020-08-10 16:3:56.9180,-0.09,-0.18,-0.01
2020-08-10 16:3:57.0210,-0.33,-0.54,0.02
2020-08-10 16:3:57.1170,-0.6,-0.47,0.38
2020-08-10 16:3:57.2220,-0.61,-0.17,-0.1
2020-08-10 16:3:57.3150,-0.6,0.13,-0.02
2020-08-10 16:3:57.4200,0.08,-0.33,0.01
2020-08-10 16:3:57.5140,0.2,-0.32,-0.04
2020-08-10 16:3:57.6220,0.61,-0.28,0.03
2020-08-10 16:3:57.7120,1.17,-0.0,0.15
2020-08-10 16:3:57.8230,-0.67,-0.19,0.27
2020-08-10 16:3:57.9110,0.06,0.03,0.21
2020-08-10 16:3:58.0190,-0.08,-0.01,-0.01
2020-08-10 16:3:58.1090,-0.09,0.0,0.03
2020-08-10 16:3:58.2180,0.01,0.01,-0.01
2020-08-10 16:3:58.3080,0.02,-0.01,-0.06
2020-08-10 16:3:58.4190,-0.04,-0.0,-0.04
2020-08-10 16:3:58.5060,-0.07,-0.03,-0.02
2020-08-10 16:3:58.6050,-0.03,-0.07,-0.04
2020-08-10 16:3:58.7130,-0.09,-0.28,-0.14
2020-08-10 16:3:58.8040,-0.43,-0.63,-0.05
2020-08-10 16:3:58.9150,-0.31,-0.17,0.16
2020-08-10 16:3:59.0030,-0.93,0.29,-0.01
2020-08-10 16:3:59.1100,-0.61,0.08,-0.12
2020-08-10 16:3:59.2010,0.1,-0.35,-0.04
2020-08-10 16:3:59.3080,0.42,-0.3,0.01
2020-08-10 16:3:59.4000,0.72,-0.09,0.01
2020-08-10 16:3:59.5080,0.99,-0.03,-0.0
2020-08-10 16:3:59.5980,-0.87,-0.16,0.25
2020-08-10 16:3:59.7080,0.18,0.0,0.1
2020-08-10 16:3:59.7970,0.07,-0.04,-0.16
2020-08-10 16:3:59.9060,0.08,-0.05,-0.05
2020-08-10 16:3:59.9950,-0.01,0.01,-0.02
2020-08-10 16:4:00.1050,0.01,-0.0,-0.03
2020-08-10 16:4:00.1940,-0.02,0.01,-0.04
2020-08-10 16:4:00.3040,-0.01,-0.02,-0.04
2020-08-10 16:4:00.3920,-0.01,-0.1,-0.06
2020-08-10 16:4:00.5030,-0.08,-0.25,-0.1
2020-08-10 16:4:00.5910,-0.48,-0.56,-0.11
2020-08-10 16:4:00.7000,-0.49,-0.27,0.29
2020-08-10 16:4:00.7890,-0.89,0.09,-0.08
2020-08-10 16:4:00.8990,-0.54,0.12,-0.08
2020-08-10 16:4:00.9880,0.05,-0.42,-0.05
2020-08-10 16:4:01.1050,0.33,-0.28,0.01
2020-08-10 16:4:01.1870,0.7,-0.24,0.03
2020-08-10 16:4:01.2860,1.02,0.03,0.02
2020-08-10 16:4:01.3980,-0.15,-0.29,0.22
2020-08-10 16:4:01.4840,0.21,-0.06,0.14
2020-08-10 16:4:01.5960,-0.05,-0.01,-0.07
2020-08-10 16:4:01.6830,-0.05,-0.02,0.02
2020-08-10 16:4:01.7820,-0.0,0.01,-0.03
2020-08-10 16:4:01.8920,-0.02,-0.01,-0.04
2020-08-10 16:4:01.9810,-0.03,-0.0,-0.03
2020-08-10 16:4:02.0890,-0.06,-0.03,-0.03
2020-08-10 16:4:02.1790,-0.11,-0.07,-0.01
2020-08-10 16:4:02.2880,-0.16,-0.3,-0.0
2020-08-10 16:4:02.3780,-0.43,-0.6,-0.11
2020-08-10 16:4:02.4890,-0.39,-0.16,0.15
2020-08-10 16:4:02.5760,-0.96,0.19,-0.02
2020-08-10 16:4:02.6910,-0.5,0.18,-0.07
2020-08-10 16:4:02.7750,0.16,-0.43,-0.01
2020-08-10 16:4:02.8850,0.34,-0.37,0.02
2020-08-10 16:4:02.9730,0.71,-0.11,-0.01
2020-08-10 16:4:03.0850,0.69,0.15,0.03
2020-08-10 16:4:03.1720,-1.01,-0.35,-0.43
2020-08-10 16:4:03.2770,0.35,-0.36,-0.12
2020-08-10 16:4:03.3700,0.03,-0.01,-0.15
2020-08-10 16:4:03.4760,0.01,0.01,0.04
2020-08-10 16:4:03.5690,-0.05,0.02,-0.03
2020-08-10 16:4:03.6810,-0.01,0.01,-0.03
2020-08-10 16:4:03.7670,-0.05,-0.01,-0.04
2020-08-10 16:4:03.8740,-0.03,-0.0,-0.02
2020-08-10 16:4:03.9660,-0.03,-0.02,-0.07
2020-08-10 16:4:04.0770,-0.06,-0.12,-0.1
2020-08-10 16:4:04.1640,-0.26,-0.45,-0.06
2020-08-10 16:4:04.2740,-0.52,-0.5,0.3
2020-08-10 16:4:04.3630,-0.01,0.02,0.02
2020-08-10 16:4:04.4720,-0.45,0.07,-0.04
2020-08-10 16:4:04.5610,-0.09,-0.14,-0.21
2020-08-10 16:4:04.6680,0.35,-0.34,-0.06
2020-08-10 16:4:04.7600,0.57,-0.29,-0.02
2020-08-10 16:4:04.8660,0.91,-0.01,-0.01
2020-08-10 16:4:04.9590,0.86,-0.06,0.18
2020-08-10 16:4:05.0680,0.64,-0.1,-0.28
2020-08-10 16:4:05.1570,-0.0,0.01,0.19
2020-08-10 16:4:05.2600,0.02,-0.03,-0.07
2020-08-10 16:4:05.3560,-0.02,-0.0,-0.05
2020-08-10 16:4:05.4620,-0.03,-0.01,-0.01
2020-08-10 16:4:05.5540,-0.04,0.01,-0.02
2020-08-10 16:4:05.6660,-0.01,-0.01,-0.06
2020-08-10 16:4:05.7530,0.02,-0.02,-0.05
2020-08-10 16:4:05.8610,-0.01,-0.12,-0.08
2020-08-10 16:4:05.9510,-0.21,-0.31,-0.05
2020-08-10 16:4:06.0570,-0.66,-0.51,-0.0
2020-08-10 16:4:06.1500,-0.11,-0.25,-0.02
2020-08-10 16:4:06.2580,-0.71,0.27,0.14
2020-08-10 16:4:06.3480,-0.46,0.05,-0.12
2020-08-10 16:4:06.4550,0.13,-0.32,-0.06
2020-08-10 16:4:06.5470,0.42,-0.33,0.0
2020-08-10 16:4:06.6570,0.67,-0.17,0.15
2020-08-10 16:4:06.7450,1.01,-0.04,0.07
2020-08-10 16:4:06.8520,-0.03,-0.3,-0.11
2020-08-10 16:4:06.9440,0.03,0.01,0.21
2020-08-10 16:4:07.0540,0.06,-0.03,-0.08
2020-08-10 16:4:07.1420,0.03,-0.02,-0.05
2020-08-10 16:4:07.2490,-0.02,0.01,-0.03
2020-08-10 16:4:07.3410,0.01,-0.01,-0.06
2020-08-10 16:4:07.4510,-0.03,0.01,-0.04
2020-08-10 16:4:07.5400,-0.02,-0.01,-0.05
2020-08-10 16:4:07.6500,-0.0,-0.07,-0.04
2020-08-10 16:4:07.7380,-0.12,-0.27,-0.04
2020-08-10 16:4:07.8490,-0.41,-0.67,-0.01
2020-08-10 16:4:07.9370,-0.46,-0.12,0.23
2020-08-10 16:4:08.0430,-0.97,0.28,0.06
2020-08-10 16:4:08.1350,-0.59,0.05,-0.07
2020-08-10 16:4:08.2380,0.06,-0.34,-0.04
2020-08-10 16:4:08.3340,0.39,-0.28,0.08
2020-08-10 16:4:08.4400,0.68,-0.16,-0.01
2020-08-10 16:4:08.5320,1.04,0.04,0.03
2020-08-10 16:4:08.6380,-0.57,-0.03,0.26
2020-08-10 16:4:08.7310,0.15,-0.0,0.35
2020-08-10 16:4:08.8300,-0.11,-0.05,-0.1
2020-08-10 16:4:08.9380,-0.05,-0.0,0.0
2020-08-10 16:4:09.0280,-0.02,0.0,-0.04
2020-08-10 16:4:09.1410,-0.01,-0.0,-0.06
2020-08-10 16:4:09.2270,-0.04,0.01,-0.06
2020-08-10 16:4:09.3280,-0.05,-0.0,-0.03
2020-08-10 16:4:09.4360,-0.05,-0.07,-0.06
2020-08-10 16:4:09.5250,-0.1,-0.21,-0.06
2020-08-10 16:4:09.6360,-0.37,-0.54,-0.11
2020-08-10 16:4:09.7240,-0.6,-0.32,0.28
2020-08-10 16:4:09.8340,-0.85,0.09,-0.04
2020-08-10 16:4:09.9220,-0.58,0.18,-0.06
2020-08-10 16:4:10.0320,0.0,-0.41,-0.05
2020-08-10 16:4:10.1200,0.31,-0.34,-0.03
2020-08-10 16:4:10.2260,0.65,-0.3,0.0
2020-08-10 16:4:10.3190,1.01,-0.02,0.11
2020-08-10 16:4:10.4260,-2.18,-0.04,-0.49
2020-08-10 16:4:10.5170,-0.07,-0.18,0.09
2020-08-10 16:4:10.6240,0.08,-0.04,-0.1
2020-08-10 16:4:10.7160,0.08,-0.05,-0.06
2020-08-10 16:4:10.8250,-0.03,0.0,-0.04
2020-08-10 16:4:10.9140,0.01,-0.04,-0.07
2020-08-10 16:4:11.0270,-0.04,0.01,-0.02
2020-08-10 16:4:11.1130,0.03,-0.04,-0.13
2020-08-10 16:4:11.2120,0.01,-0.08,-0.08
2020-08-10 16:4:11.3220,-0.05,-0.2,-0.08
2020-08-10 16:4:11.4110,-0.53,-0.58,0.04
2020-08-10 16:4:11.5200,-0.64,-0.28,0.34
2020-08-10 16:4:11.6100,-0.97,0.26,-0.01
2020-08-10 16:4:11.7160,-0.55,0.11,-0.1
2020-08-10 16:4:11.8080,0.04,-0.41,-0.07
2020-08-10 16:4:11.9200,0.36,-0.28,-0.03
2020-08-10 16:4:12.0060,0.67,-0.19,-0.0
2020-08-10 16:4:12.1120,0.99,0.0,0.0
2020-08-10 16:4:12.2050,-0.85,-0.16,0.29
2020-08-10 16:4:12.3150,0.08,0.01,0.23
2020-08-10 16:4:12.4030,-0.01,-0.03,-0.17
2020-08-10 16:4:12.5120,-0.03,-0.01,0.06
2020-08-10 16:4:12.6020,-0.1,0.02,-0.02
2020-08-10 16:4:12.7110,-0.01,-0.01,-0.04
2020-08-10 16:4:12.8000,-0.04,0.01,-0.03
2020-08-10 16:4:12.9090,-0.02,-0.04,-0.07
2020-08-10 16:4:12.9990,-0.06,-0.1,-0.09
2020-08-10 16:4:13.1100,-0.12,-0.22,-0.06
2020-08-10 16:4:13.1980,-0.52,-0.58,-0.01
2020-08-10 16:4:13.3080,-0.13,-0.11,0.04
2020-08-10 16:4:13.3960,-0.69,0.18,-0.01
2020-08-10 16:4:13.5100,-0.44,0.07,-0.1
2020-08-10 16:4:13.5950,0.07,-0.33,-0.07
2020-08-10 16:4:13.7010,0.27,-0.31,0.04
2020-08-10 16:4:13.7940,0.59,-0.14,0.06
2020-08-10 16:4:13.9050,0.8,0.03,0.05
2020-08-10 16:4:13.9920,-0.05,-0.39,-0.44
2020-08-10 16:4:14.0990,0.17,-0.12,-0.1
2020-08-10 16:4:14.1900,-0.01,0.01,-0.16
2020-08-10 16:4:14.2890,0.15,-0.03,-0.03
2020-08-10 16:4:14.3970,0.0,-0.02,-0.05
2020-08-10 16:4:14.4880,0.0,0.0,-0.04
2020-08-10 16:4:14.5940,0.02,-0.01,-0.06
2020-08-10 16:4:14.6870,-0.04,-0.01,-0.03
2020-08-10 16:4:14.7920,-0.05,-0.02,-0.05
2020-08-10 16:4:14.8850,-0.02,-0.09,-0.03
2020-08-10 16:4:14.9960,-0.1,-0.19,-0.08
2020-08-10 16:4:15.0840,-0.51,-0.59,-0.01
2020-08-10 16:4:15.1960,-0.43,-0.21,0.21
2020-08-10 16:4:15.2820,-0.99,0.14,-0.01
2020-08-10 16:4:15.3930,-0.61,0.11,-0.03
2020-08-10 16:4:15.4810,0.01,-0.42,-0.04
2020-08-10 16:4:15.5940,0.31,-0.35,-0.01
2020-08-10 16:4:15.6790,0.61,-0.2,-0.09
2020-08-10 16:4:15.7900,0.87,-0.02,-0.03
2020-08-10 16:4:15.8780,0.14,-0.26,-0.07
2020-08-10 16:4:15.9850,0.39,-0.24,0.0
2020-08-10 16:4:16.0770,0.07,-0.06,-0.17
2020-08-10 16:4:16.1830,0.08,-0.01,0.0
2020-08-10 16:4:16.2750,-0.01,-0.0,-0.05
2020-08-10 16:4:16.3810,-0.02,0.02,-0.02
2020-08-10 16:4:16.4730,0.0,-0.02,-0.08
2020-08-10 16:4:16.5790,-0.01,-0.0,-0.03
2020-08-10 16:4:16.6720,-0.01,-0.05,-0.07
2020-08-10 16:4:16.7780,-0.11,-0.15,-0.01
2020-08-10 16:4:16.8700,-0.3,-0.45,-0.13
2020-08-10 16:4:16.9770,-0.66,-0.43,0.53
2020-08-10 16:4:17.0690,-0.55,0.0,0.03
2020-08-10 16:4:17.1790,-0.53,0.19,-0.1
2020-08-10 16:4:17.2670,-0.13,-0.22,-0.17
2020-08-10 16:4:17.3740,0.22,-0.27,-0.08
2020-08-10 16:4:17.4660,0.63,-0.32,-0.06
2020-08-10 16:4:17.5740,0.82,-0.02,-0.0
2020-08-10 16:4:17.6650,0.94,0.03,0.08
2020-08-10 16:4:17.7750,0.77,-0.1,-0.16
2020-08-10 16:4:17.8630,-0.08,0.06,0.18
2020-08-10 16:4:17.9790,0.04,-0.05,-0.05
2020-08-10 16:4:18.0620,0.03,-0.03,-0.09
2020-08-10 16:4:18.1610,0.01,-0.01,-0.02
2020-08-10 16:4:18.2690,-0.02,0.0,-0.07
2020-08-10 16:4:18.3600,0.02,-0.03,-0.08
2020-08-10 16:4:18.4650,-0.02,-0.06,-0.04
2020-08-10 16:4:18.5580,-0.07,-0.11,-0.04
2020-08-10 16:4:18.6670,-0.23,-0.39,-0.05
2020-08-10 16:4:18.7560,-0.62,-0.62,0.06
2020-08-10 16:4:18.8630,-0.06,-0.19,-0.07
2020-08-10 16:4:18.9550,-0.56,0.29,0.07
2020-08-10 16:4:19.0620,-0.35,-0.05,-0.13
2020-08-10 16:4:19.1530,0.47,-0.38,-0.04
2020-08-10 16:4:19.2620,0.61,-0.36,-0.08
2020-08-10 16:4:19.3520,0.62,-0.02,0.05
2020-08-10 16:4:19.4590,0.75,0.07,-0.03
2020-08-10 16:4:19.5500,-0.22,-0.32,0.2
2020-08-10 16:4:19.6610,0.62,-0.13,0.27
2020-08-10 16:4:19.7490,0.01,-0.03,-0.16
2020-08-10 16:4:19.8600,-0.04,0.0,-0.04
2020-08-10 16:4:19.9480,-0.01,-0.0,-0.05
2020-08-10 16:4:20.0510,0.02,0.03,-0.06
2020-08-10 16:4:20.1460,-0.04,0.01,-0.06
2020-08-10 16:4:20.2560,-0.11,-0.0,-0.03
2020-08-10 16:4:20.3450,-0.08,-0.07,-0.06
2020-08-10 16:4:20.4560,-0.1,-0.22,-0.06
2020-08-10 16:4:20.5430,-0.39,-0.6,-0.08
2020-08-10 16:4:20.6490,-0.43,-0.23,0.31
2020-08-10 16:4:20.7420,-1.05,0.2,-0.0
2020-08-10 16:4:20.8520,-0.6,0.12,-0.03
2020-08-10 16:4:20.9400,0.04,-0.45,-0.07
2020-08-10 16:4:21.0510,0.34,-0.27,-0.0
2020-08-10 16:4:21.1390,0.63,-0.15,-0.04
2020-08-10 16:4:21.2470,0.91,0.04,0.04
2020-08-10 16:4:21.3370,-1.28,-0.01,-0.14
2020-08-10 16:4:21.4460,0.11,-0.07,-0.0
2020-08-10 16:4:21.5360,0.07,-0.02,-0.15
2020-08-10 16:4:21.6500,0.09,-0.05,0.02
2020-08-10 16:4:21.7340,-0.04,0.02,-0.03
2020-08-10 16:4:21.8440,-0.0,-0.01,-0.06
2020-08-10 16:4:21.9330,-0.03,0.0,-0.06
2020-08-10 16:4:22.0500,-0.02,-0.02,-0.06
2020-08-10 16:4:22.1320,-0.03,-0.05,-0.03
2020-08-10 16:4:22.2310,-0.08,-0.22,-0.2
2020-08-10 16:4:22.3380,-0.32,-0.76,-0.19
2020-08-10 16:4:22.4290,-0.38,-0.08,0.28
2020-08-10 16:4:22.5360,-0.91,0.26,0.02
2020-08-10 16:4:22.6280,-0.61,0.13,-0.05
2020-08-10 16:4:22.7350,0.15,-0.37,-0.03
2020-08-10 16:4:22.8260,0.41,-0.32,-0.04
2020-08-10 16:4:22.9260,0.84,-0.1,0.03
2020-08-10 16:4:23.0310,0.83,0.03,-0.0
2020-08-10 16:4:23.1240,0.37,-0.42,-0.18
2020-08-10 16:4:23.2330,0.29,-0.1,0.1
2020-08-10 16:4:23.3230,-0.01,-0.03,-0.14
2020-08-10 16:4:23.4250,-0.0,-0.04,-0.05
2020-08-10 16:4:23.5210,-0.01,-0.01,-0.04
2020-08-10 16:4:23.6300,-0.02,-0.02,-0.07
2020-08-10 16:4:23.7200,-0.01,-0.0,-0.06
2020-08-10 16:4:23.8350,-0.04,-0.03,-0.05
2020-08-10 16:4:23.9180,-0.02,-0.15,-0.11
2020-08-10 16:4:24.0180,-0.25,-0.45,-0.06
2020-08-10 16:4:24.1290,-0.5,-0.41,0.21
2020-08-10 16:4:24.2160,-0.26,-0.16,-0.02
2020-08-10 16:4:24.3150,-0.64,0.16,0.02
2020-08-10 16:4:24.4240,-0.44,-0.1,-0.15
2020-08-10 16:4:24.5140,0.29,-0.38,-0.06
2020-08-10 16:4:24.6270,0.65,-0.35,0.03
2020-08-10 16:4:24.7120,1.08,-0.03,0.04
2020-08-10 16:4:24.8120,0.61,-0.19,-0.06
2020-08-10 16:4:24.9150,0.44,-0.26,-0.19
2020-08-10 16:4:25.0100,0.2,-0.11,-0.15
2020-08-10 16:4:25.1220,0.07,0.01,0.05
2020-08-10 16:4:25.2090,0.02,-0.05,-0.1
2020-08-10 16:4:25.3150,0.02,-0.0,-0.07
2020-08-10 16:4:25.4070,-0.05,0.03,-0.03
2020-08-10 16:4:25.5130,-0.0,-0.01,-0.07
2020-08-10 16:4:25.6060,-0.02,-0.09,-0.08
2020-08-10 16:4:25.7080,-0.09,-0.28,-0.09
2020-08-10 16:4:25.8040,-0.55,-0.63,-0.09
2020-08-10 16:4:25.9130,-0.31,-0.21,0.21
2020-08-10 16:4:26.0030,-0.99,0.15,-0.0
2020-08-10 16:4:26.1120,-0.53,0.12,-0.07
2020-08-10 16:4:26.2010,0.05,-0.44,-0.08
2020-08-10 16:4:26.3150,0.44,-0.28,-0.07
2020-08-10 16:4:26.4000,0.7,-0.12,-0.04
2020-08-10 16:4:26.5100,1.0,-0.02,0.07
2020-08-10 16:4:26.5990,-0.83,-0.19,0.03
2020-08-10 16:4:26.7090,0.19,-0.16,0.41
2020-08-10 16:4:26.7970,-0.05,-0.02,-0.18
2020-08-10 16:4:26.9060,-0.05,-0.02,-0.04
2020-08-10 16:4:26.9960,-0.02,0.02,-0.02
2020-08-10 16:4:27.1060,0.02,-0.02,-0.06
2020-08-10 16:4:27.1940,-0.02,-0.0,-0.06
2020-08-10 16:4:27.3000,-0.04,-0.05,-0.02
2020-08-10 16:4:27.3930,-0.09,-0.12,-0.03
2020-08-10 16:4:27.4990,-0.25,-0.47,-0.06
2020-08-10 16:4:27.5910,-0.48,-0.59,0.14
2020-08-10 16:4:27.7010,-0.19,-0.02,-0.04
2020-08-10 16:4:27.7900,-0.74,0.19,-0.05
2020-08-10 16:4:27.9000,-0.25,-0.21,-0.22
2020-08-10 16:4:27.9880,0.54,-0.42,-0.11
2020-08-10 16:4:28.1020,0.81,-0.31,0.07
2020-08-10 16:4:28.1870,1.18,0.03,0.12
2020-08-10 16:4:28.2860,-0.09,-0.15,0.15
2020-08-10 16:4:28.3930,0.06,0.09,0.25
2020-08-10 16:4:28.4850,-0.11,-0.01,-0.15
2020-08-10 16:4:28.5840,-0.06,-0.01,-0.02
2020-08-10 16:4:28.6900,-0.01,0.01,-0.05
2020-08-10 16:4:28.7830,-0.02,0.03,-0.05
2020-08-10 16:4:28.8950,-0.02,0.01,-0.06
2020-08-10 16:4:28.9810,-0.04,-0.02,-0.07
2020-08-10 16:4:29.0900,-0.08,-0.11,-0.05
2020-08-10 16:4:29.1790,-0.2,-0.38,-0.05
2020-08-10 16:4:29.2870,-0.51,-0.54,-0.17
2020-08-10 16:4:29.3780,-0.23,-0.14,0.06
2020-08-10 16:4:29.4890,-0.93,0.24,0.11
2020-08-10 16:4:29.5760,-0.41,-0.08,-0.16
2020-08-10 16:4:29.6870,0.39,-0.44,-0.07
2020-08-10 16:4:29.7750,0.62,-0.32,-0.05
2020-08-10 16:4:29.8830,1.05,-0.06,-0.01
2020-08-10 16:4:29.9740,1.03,0.02,0.08
2020-08-10 16:4:30.0880,0.45,-0.27,-0.57
2020-08-10 16:4:30.1720,0.15,-0.09,-0.04
2020-08-10 16:4:30.2710,0.08,-0.01,-0.03
2020-08-10 16:4:30.3780,0.03,-0.05,-0.12
2020-08-10 16:4:30.4700,-0.0,-0.01,-0.05
2020-08-10 16:4:30.5690,-0.02,-0.0,-0.07
2020-08-10 16:4:30.6760,-0.03,-0.03,-0.07
2020-08-10 16:4:30.7680,-0.05,-0.08,-0.05
2020-08-10 16:4:30.8790,-0.16,-0.19,-0.09
2020-08-10 16:4:30.9660,-0.56,-0.84,-0.07
2020-08-10 16:4:31.0660,-0.58,-0.19,0.27
2020-08-10 16:4:31.1650,-1.14,0.24,-0.02
2020-08-10 16:4:31.2640,-0.56,0.14,-0.08
2020-08-10 16:4:31.3630,0.28,-0.54,-0.11
2020-08-10 16:4:31.4660,0.57,-0.45,0.08
2020-08-10 16:4:31.5620,0.85,-0.08,0.05
2020-08-10 16:4:31.6670,1.03,-0.0,0.1
2020-08-10 16:4:31.7600,1.03,-0.35,-0.45
2020-08-10 16:4:31.8600,0.28,-0.08,-0.11
2020-08-10 16:4:31.9720,0.04,-0.01,0.01
2020-08-10 16:4:32.0580,0.02,-0.01,-0.08
2020-08-10 16:4:32.1610,0.03,-0.02,-0.08
2020-08-10 16:4:32.2570,-0.02,-0.03,-0.06
2020-08-10 16:4:32.3560,-0.05,-0.04,-0.06
2020-08-10 16:4:32.4700,-0.08,-0.22,-0.12
2020-08-10 16:4:32.5540,-0.34,-0.68,-0.15
2020-08-10 16:4:32.6540,-0.85,-0.53,0.34
2020-08-10 16:4:32.7530,-1.0,0.16,0.14
2020-08-10 16:4:32.8660,-0.65,0.18,-0.08
2020-08-10 16:4:32.9520,0.28,-0.52,-0.13
2020-08-10 16:4:33.0500,0.5,-0.21,-0.0
2020-08-10 16:4:33.1580,0.75,-0.15,-0.04
2020-08-10 16:4:33.2490,1.23,0.05,0.14
2020-08-10 16:4:33.3500,0.93,-0.61,-0.2
2020-08-10 16:4:33.4490,0.1,-0.07,0.02
2020-08-10 16:4:33.5480,-0.07,0.01,0.04
2020-08-10 16:4:33.6460,-0.02,-0.01,-0.05
2020-08-10 16:4:33.7510,0.01,0.0,-0.06
2020-08-10 16:4:33.8450,-0.0,0.0,-0.07
2020-08-10 16:4:33.9450,-0.04,-0.01,-0.06
2020-08-10 16:4:34.0430,-0.07,-0.07,-0.03
2020-08-10 16:4:34.1530,-0.13,-0.19,-0.08
2020-08-10 16:4:34.2420,-0.46,-0.84,-0.1
2020-08-10 16:4:34.3410,-0.14,-0.38,0.02
2020-08-10 16:4:34.4520,-0.77,0.31,-0.02
2020-08-10 16:4:34.5400,-0.46,-0.02,-0.2
2020-08-10 16:4:34.6390,0.14,-0.4,-0.08
2020-08-10 16:4:34.7440,0.62,-0.39,0.0
2020-08-10 16:4:34.8380,0.73,-0.12,0.04
2020-08-10 16:4:34.9370,1.01,0.02,0.01
2020-08-10 16:4:35.0430,-0.5,-0.25,0.08
2020-08-10 16:4:35.1360,0.34,-0.23,0.05
2020-08-10 16:4:35.2430,-0.02,-0.01,-0.04
2020-08-10 16:4:35.3340,0.01,0.0,-0.05
2020-08-10 16:4:35.4340,0.04,-0.02,-0.08
2020-08-10 16:4:35.5440,-0.1,0.06,0.02
2020-08-10 16:4:35.6320,-0.08,-0.01,-0.08
2020-08-10 16:4:35.7310,-0.05,-0.05,-0.08
2020-08-10 16:4:35.8390,-0.09,-0.16,-0.06
2020-08-10 16:4:35.9290,-0.42,-0.68,-0.11
2020-08-10 16:4:36.0290,-0.66,-0.45,0.33
2020-08-10 16:4:36.1370,-0.8,0.03,-0.07
2020-08-10 16:4:36.2270,-0.5,0.11,-0.07
2020-08-10 16:4:36.3260,0.2,-0.48,-0.05
2020-08-10 16:4:36.4270,0.37,-0.33,0.04
2020-08-10 16:4:36.5260,0.86,-0.17,0.02
2020-08-10 16:4:36.6250,1.31,0.03,0.08
2020-08-10 16:4:36.7240,0.8,-0.4,-0.4
2020-08-10 16:4:36.8250,-0.04,0.03,0.27
2020-08-10 16:4:36.9220,-0.13,-0.01,-0.03
2020-08-10 16:4:37.0250,-0.02,0.01,-0.07
2020-08-10 16:4:37.1210,-0.02,-0.01,-0.06
2020-08-10 16:4:37.2210,-0.01,-0.03,-0.07
2020-08-10 16:4:37.3310,-0.03,-0.01,-0.04
2020-08-10 16:4:37.4180,-0.01,-0.06,-0.09
2020-08-10 16:4:37.5180,-0.07,-0.2,-0.07
2020-08-10 16:4:37.6170,-0.4,-0.52,-0.07
2020-08-10 16:4:37.7240,-0.58,-0.45,0.41
2020-08-10 16:4:37.8160,-0.31,-0.06,0.05
2020-08-10 16:4:37.9150,-0.61,0.1,-0.09
2020-08-10 16:4:38.0230,0.09,-0.43,-0.04
2020-08-10 16:4:38.1130,0.3,-0.35,-0.0
2020-08-10 16:4:38.2190,0.8,-0.31,0.05
2020-08-10 16:4:38.3120,1.28,0.06,0.1
2020-08-10 16:4:38.4140,0.73,-0.53,-0.23
2020-08-10 16:4:38.5100,-0.12,0.03,0.18
2020-08-10 16:4:38.6100,-0.03,-0.04,-0.05
2020-08-10 16:4:38.7180,0.0,-0.03,-0.04
2020-08-10 16:4:38.8080,0.01,0.02,-0.03
2020-08-10 16:4:38.9160,0.0,-0.01,-0.09
2020-08-10 16:4:39.0070,0.04,-0.03,-0.12
2020-08-10 16:4:39.1180,0.02,-0.08,-0.11
2020-08-10 16:4:39.2060,-0.01,-0.13,-0.05
2020-08-10 16:4:39.3040,-0.26,-0.49,-0.1
2020-08-10 16:4:39.4040,-0.52,-0.43,0.1
2020-08-10 16:4:39.5030,-0.4,-0.21,0.05
2020-08-10 16:4:39.6110,-0.74,0.24,-0.02
2020-08-10 16:4:39.7020,-0.37,-0.22,-0.19
2020-08-10 16:4:39.8010,0.34,-0.41,-0.0
2020-08-10 16:4:39.9030,0.86,-0.34,0.09
2020-08-10 16:4:39.9990,1.41,0.07,0.17
2020-08-10 16:4:40.1080,0.87,-0.49,-0.38
2020-08-10 16:4:40.1980,0.27,-0.07,0.1
2020-08-10 16:4:40.2990,-0.03,-0.01,-0.01
2020-08-10 16:4:40.3960,0.02,-0.04,-0.03
2020-08-10 16:4:40.5070,0.02,-0.01,-0.04
2020-08-10 16:4:40.5950,-0.01,-0.0,-0.07
2020-08-10 16:4:40.6950,-0.0,-0.02,-0.08
2020-08-10 16:4:40.8040,-0.04,-0.12,-0.09
2020-08-10 16:4:40.8930,-0.12,-0.23,-0.05
2020-08-10 16:4:41.0030,-0.46,-0.61,-0.14
2020-08-10 16:4:41.0910,-0.64,-0.32,0.37
2020-08-10 16:4:41.2020,-1.0,0.17,-0.01
2020-08-10 16:4:41.2900,-0.6,0.17,-0.07
2020-08-10 16:4:41.3910,0.02,-0.39,-0.05
2020-08-10 16:4:41.4880,0.39,-0.31,-0.04
2020-08-10 16:4:41.5880,0.75,-0.21,-0.01
2020-08-10 16:4:41.6890,1.17,0.02,0.06
2020-08-10 16:4:41.7940,0.25,-0.33,-0.03
2020-08-10 16:4:41.8850,0.19,-0.06,0.11
2020-08-10 16:4:41.9850,-0.15,-0.0,-0.02
2020-08-10 16:4:42.0840,-0.04,-0.01,-0.02
2020-08-10 16:4:42.1830,-0.0,-0.0,-0.04
2020-08-10 16:4:42.2920,-0.0,0.01,-0.06
2020-08-10 16:4:42.3820,-0.01,-0.02,-0.11
2020-08-10 16:4:42.4890,-0.03,-0.07,-0.06
2020-08-10 16:4:42.5800,-0.09,-0.16,-0.05
2020-08-10 16:4:42.6810,-0.29,-0.47,-0.05
2020-08-10 16:4:42.7810,-0.66,-0.67,0.41
2020-08-10 16:4:42.8800,-0.05,-0.1,-0.03
2020-08-10 16:4:42.9800,-0.48,0.13,-0.11
2020-08-10 16:4:43.0770,0.01,-0.26,-0.01
2020-08-10 16:4:43.1880,0.38,-0.3,-0.09
2020-08-10 16:4:43.2750,0.71,-0.36,-0.07
2020-08-10 16:4:43.3880,1.24,-0.02,0.13
2020-08-10 16:4:43.4740,-1.25,0.01,0.11
2020-08-10 16:4:43.5730,0.22,-0.05,0.1
2020-08-10 16:4:43.6850,-0.15,0.02,-0.07
2020-08-10 16:4:43.7710,-0.1,-0.03,-0.01
2020-08-10 16:4:43.8710,-0.02,-0.01,-0.07
2020-08-10 16:4:43.9750,0.02,-0.01,-0.06
2020-08-10 16:4:44.0690,-0.04,-0.01,-0.1
2020-08-10 16:4:44.1680,-0.05,-0.04,-0.05
2020-08-10 16:4:44.2680,-0.07,-0.17,-0.08
2020-08-10 16:4:44.3730,-0.35,-0.56,-0.02
2020-08-10 16:4:44.4660,-0.81,-0.59,0.43
2020-08-10 16:4:44.5660,-0.85,-0.04,-0.14
2020-08-10 16:4:44.6740,-0.52,0.16,-0.06
2020-08-10 16:4:44.7640,0.14,-0.37,-0.13
2020-08-10 16:4:44.8640,0.34,-0.34,-0.06
2020-08-10 16:4:44.9630,0.74,-0.27,-0.05
2020-08-10 16:4:45.0730,1.1,0.01,0.06
2020-08-10 16:4:45.1610,-1.35,-0.04,-0.13
2020-08-10 16:4:45.2600,0.17,-0.08,0.03
2020-08-10 16:4:45.3720,0.02,-0.0,-0.14
2020-08-10 16:4:45.4590,-0.01,-0.03,-0.02
2020-08-10 16:4:45.5680,0.02,0.04,0.01
2020-08-10 16:4:45.6580,0.04,-0.06,-0.12
2020-08-10 16:4:45.7650,-0.0,-0.03,-0.07
2020-08-10 16:4:45.8560,-0.04,-0.04,-0.03
2020-08-10 16:4:45.9600,-0.05,-0.07,-0.06
2020-08-10 16:4:46.0540,-0.19,-0.43,-0.08
2020-08-10 16:4:46.1640,-0.6,-0.44,-0.03
2020-08-10 16:4:46.2530,-0.31,-0.25,0.07
2020-08-10 16:4:46.3520,-1.1,0.32,0.04
2020-08-10 16:4:46.4550,-0.56,0.04,-0.09
2020-08-10 16:4:46.5510,0.43,-0.41,-0.16
2020-08-10 16:4:46.6500,0.65,-0.47,0.0
2020-08-10 16:4:46.7590,1.28,-0.1,0.18
2020-08-10 16:4:46.8490,-0.78,-0.46,-0.57
2020-08-10 16:4:46.9480,0.12,-0.31,0.04
2020-08-10 16:4:47.0570,0.1,-0.07,-0.18
2020-08-10 16:4:47.1470,-0.06,0.0,-0.0
2020-08-10 16:4:47.2460,-0.0,-0.02,-0.07
2020-08-10 16:4:47.3450,0.01,0.02,-0.05
2020-08-10 16:4:47.4500,0.02,-0.03,-0.11
2020-08-10 16:4:47.5430,-0.01,-0.01,-0.06
2020-08-10 16:4:47.6530,-0.05,-0.12,-0.07
2020-08-10 16:4:47.7420,-0.18,-0.4,-0.09
2020-08-10 16:4:47.8520,-0.63,-0.64,0.02
2020-08-10 16:4:47.9410,-0.2,-0.11,0.01
2020-08-10 16:4:48.0400,-0.56,0.19,0.03
2020-08-10 16:4:48.1470,-0.36,-0.11,-0.13
2020-08-10 16:4:48.2380,0.41,-0.32,-0.03
2020-08-10 16:4:48.3380,0.54,-0.28,-0.05
2020-08-10 16:4:48.4370,1.0,-0.09,0.03
2020-08-10 16:4:48.5360,0.56,-0.32,-0.06
2020-08-10 16:4:48.6440,0.27,-0.25,-0.08
2020-08-10 16:4:48.7350,0.26,-0.07,-0.23
2020-08-10 16:4:48.8340,0.06,0.01,-0.04
2020-08-10 16:4:48.9440,0.02,-0.04,-0.11
2020-08-10 16:4:49.0320,0.03,-0.0,-0.06
2020-08-10 16:4:49.1320,-0.02,-0.01,-0.06
2020-08-10 16:4:49.2310,0.0,0.0,-0.06
2020-08-10 16:4:49.3370,-0.03,-0.09,-0.07
2020-08-10 16:4:49.4300,-0.09,-0.26,-0.07
2020-08-10 16:4:49.5410,-0.44,-0.83,-0.15
2020-08-10 16:4:49.6280,-0.37,-0.18,0.06
2020-08-10 16:4:49.7280,-0.98,0.26,0.03
2020-08-10 16:4:49.8280,-0.65,0.15,-0.07
2020-08-10 16:4:49.9340,0.16,-0.49,0.03
2020-08-10 16:4:50.0250,0.44,-0.29,0.06
2020-08-10 16:4:50.1240,0.7,-0.18,-0.08
2020-08-10 16:4:50.2240,1.11,0.03,0.1
2020-08-10 16:4:50.3240,-0.51,-0.24,0.03
2020-08-10 16:4:50.4350,0.19,0.05,0.26
2020-08-10 16:4:50.5220,-0.06,-0.03,-0.05
2020-08-10 16:4:50.6210,0.04,-0.04,-0.12
2020-08-10 16:4:50.7280,0.01,-0.01,-0.04
2020-08-10 16:4:50.8190,-0.02,-0.02,-0.07
2020-08-10 16:4:50.9180,-0.02,-0.0,-0.08
2020-08-10 16:4:51.0280,0.02,-0.09,-0.12
2020-08-10 16:4:51.1170,-0.1,-0.22,-0.03
2020-08-10 16:4:51.2160,-0.53,-0.89,-0.15
2020-08-10 16:4:51.3160,-0.67,-0.29,0.33
2020-08-10 16:4:51.4150,-1.03,0.38,-0.14
2020-08-10 16:4:51.5170,-0.56,0.09,-0.09
2020-08-10 16:4:51.6140,0.13,-0.44,0.03
2020-08-10 16:4:51.7160,0.54,-0.32,-0.0
2020-08-10 16:4:51.8120,0.94,-0.18,0.02
2020-08-10 16:4:51.9110,1.1,-0.09,0.08
2020-08-10 16:4:52.0190,0.7,-0.41,-0.26
2020-08-10 16:4:52.1100,0.03,0.01,0.02
2020-08-10 16:4:52.2090,-0.0,-0.03,-0.04
2020-08-10 16:4:52.3180,0.02,-0.02,-0.09
2020-08-10 16:4:52.4070,0.01,-0.04,-0.06
2020-08-10 16:4:52.5170,0.03,-0.04,-0.1
2020-08-10 16:4:52.6060,-0.03,-0.03,-0.09
2020-08-10 16:4:52.7050,-0.08,-0.13,-0.08
2020-08-10 16:4:52.8050,-0.28,-0.36,-0.05
2020-08-10 16:4:52.9150,-0.67,-0.54,0.25
2020-08-10 16:4:53.0030,-0.11,-0.08,0.04
2020-08-10 16:4:53.1030,-0.69,0.22,0.03
2020-08-10 16:4:53.2020,-0.29,-0.2,-0.16
2020-08-10 16:4:53.3050,0.41,-0.4,-0.09
2020-08-10 16:4:53.4000,0.77,-0.4,-0.03
2020-08-10 16:4:53.5050,1.28,-0.02,0.03
2020-08-10 16:4:53.5990,-2.06,-0.11,-0.45
2020-08-10 16:4:53.6980,0.15,-0.26,0.04
2020-08-10 16:4:53.8080,0.18,-0.11,-0.26
2020-08-10 16:4:53.8970,-0.05,-0.02,0.01
2020-08-10 16:4:53.9980,-0.06,0.01,-0.02
2020-08-10 16:4:54.0970,0.01,0.01,-0.05
2020-08-10 16:4:54.1940,-0.05,-0.01,-0.06
2020-08-10 16:4:54.2990,-0.04,-0.05,-0.05
2020-08-10 16:4:54.3930,-0.08,-0.13,-0.07
2020-08-10 16:4:54.5020,-0.28,-0.45,-0.04
2020-08-10 16:4:54.5910,-0.62,-0.49,0.15
2020-08-10 16:4:54.6960,-0.09,0.07,0.04
2020-08-10 16:4:54.7900,-0.47,0.08,-0.08
2020-08-10 16:4:54.8920,-0.24,-0.22,-0.2
2020-08-10 16:4:54.9880,0.25,-0.36,-0.06
2020-08-10 16:4:55.0970,0.64,-0.29,-0.03
2020-08-10 16:4:55.1870,1.31,-0.04,0.07
2020-08-10 16:4:55.2880,-2.1,-0.13,-0.56
2020-08-10 16:4:55.3860,0.14,-0.06,0.14
2020-08-10 16:4:55.5000,-0.04,-0.04,-0.06
2020-08-10 16:4:55.5840,-0.07,-0.01,0.01
2020-08-10 16:4:55.6910,-0.0,-0.01,-0.05
2020-08-10 16:4:55.7830,-0.0,0.01,-0.07
2020-08-10 16:4:55.8940,-0.05,0.01,-0.07
2020-08-10 16:4:55.9810,-0.08,-0.05,-0.04
2020-08-10 16:4:56.0800,-0.11,-0.18,-0.05
2020-08-10 16:4:56.1870,-0.32,-0.67,-0.08
2020-08-10 16:4:56.2790,-0.94,-0.59,0.58
2020-08-10 16:4:56.3840,-0.67,-0.06,-0.22
2020-08-10 16:4:56.4770,-0.4,0.17,-0.13
2020-08-10 16:4:56.5870,-0.07,-0.36,-0.09
2020-08-10 16:4:56.6760,0.39,-0.32,0.07
2020-08-10 16:4:56.7850,0.69,-0.17,-0.07
2020-08-10 16:4:56.8740,1.05,-0.06,-0.03
2020-08-10 16:4:56.9820,-2.44,-0.15,-0.78
2020-08-10 16:4:57.0730,0.0,-0.13,0.09
2020-08-10 16:4:57.1810,0.05,-0.0,-0.15
2020-08-10 16:4:57.2720,-0.07,0.01,-0.03
2020-08-10 16:4:57.3710,-0.0,0.01,-0.05
2020-08-10 16:4:57.4810,0.05,-0.01,-0.12
2020-08-10 16:4:57.5690,-0.03,-0.01,-0.11
2020-08-10 16:4:57.6770,-0.0,-0.07,-0.08
2020-08-10 16:4:57.7680,-0.06,-0.14,-0.06
2020-08-10 16:4:57.8790,-0.21,-0.62,-0.18
2020-08-10 16:4:57.9670,-0.76,-0.56,0.56
2020-08-10 16:4:58.0670,-0.54,0.06,-0.18
2020-08-10 16:4:58.1650,-0.53,0.09,-0.09
2020-08-10 16:4:58.2640,-0.17,-0.28,-0.09
2020-08-10 16:4:58.3720,0.29,-0.31,-0.08
2020-08-10 16:4:58.4630,0.78,-0.36,-0.03
2020-08-10 16:4:58.5720,1.25,0.02,0.06
2020-08-10 16:4:58.6610,-0.11,-0.3,0.11
2020-08-10 16:4:58.7600,0.1,0.0,0.19
2020-08-10 16:4:58.8680,-0.08,-0.01,-0.07
2020-08-10 16:4:58.9590,-0.04,0.0,-0.04
2020-08-10 16:4:59.0700,-0.04,0.01,-0.04
2020-08-10 16:4:59.1580,-0.01,-0.0,-0.07
2020-08-10 16:4:59.2570,-0.01,-0.0,-0.07
2020-08-10 16:4:59.3630,-0.02,-0.05,-0.04
2020-08-10 16:4:59.4550,-0.12,-0.17,-0.09
2020-08-10 16:4:59.5640,-0.34,-0.58,-0.17
2020-08-10 16:4:59.6540,-0.57,-0.47,0.3
2020-08-10 16:4:59.7630,-0.68,-0.17,-0.12
2020-08-10 16:4:59.8520,-0.55,0.15,-0.05
2020-08-10 16:4:59.9610,-0.03,-0.36,-0.07
2020-08-10 16:5:00.0510,0.35,-0.23,-0.04
2020-08-10 16:5:00.1570,0.69,-0.31,-0.03
2020-08-10 16:5:00.2500,1.15,-0.04,0.09
2020-08-10 16:5:00.3570,-1.46,-0.07,-0.18
2020-08-10 16:5:00.4480,0.09,-0.01,0.01
2020-08-10 16:5:00.5470,0.14,-0.1,-0.19
2020-08-10 16:5:00.6470,0.01,-0.03,-0.03
2020-08-10 16:5:00.7520,-0.02,-0.02,-0.06
2020-08-10 16:5:00.8450,0.0,-0.01,-0.07
2020-08-10 16:5:00.9440,-0.01,-0.0,-0.11
2020-08-10 16:5:01.0550,-0.08,-0.03,-0.06
2020-08-10 16:5:01.1430,-0.09,-0.15,-0.09
2020-08-10 16:5:01.2420,-0.31,-0.55,-0.05
2020-08-10 16:5:01.3510,-0.76,-0.67,0.29
2020-08-10 16:5:01.4410,-0.33,-0.09,-0.05
2020-08-10 16:5:01.5410,-0.41,0.09,-0.14
2020-08-10 16:5:01.6390,-0.01,-0.29,-0.1
2020-08-10 16:5:01.7410,0.31,-0.32,-0.06
2020-08-10 16:5:01.8400,0.7,-0.36,-0.06
2020-08-10 16:5:01.9370,1.19,-0.05,0.07
2020-08-10 16:5:02.0480,-2.2,-0.13,-0.54
2020-08-10 16:5:02.1360,0.07,-0.11,-0.0
2020-08-10 16:5:02.2350,0.11,-0.02,-0.1
2020-08-10 16:5:02.3480,-0.07,-0.01,-0.03
2020-08-10 16:5:02.4340,-0.01,0.0,-0.08
2020-08-10 16:5:02.5330,0.02,-0.04,-0.08
2020-08-10 16:5:02.6440,-0.09,0.02,-0.03
2020-08-10 16:5:02.7310,-0.05,-0.07,-0.09
2020-08-10 16:5:02.8390,-0.06,-0.13,-0.09
2020-08-10 16:5:02.9300,-0.28,-0.39,-0.07
2020-08-10 16:5:03.0290,-0.64,-0.51,0.24
2020-08-10 16:5:03.1360,-0.06,0.09,-0.0
2020-08-10 16:5:03.2270,-0.5,0.15,-0.08
2020-08-10 16:5:03.3350,-0.16,-0.12,-0.2
2020-08-10 16:5:03.4260,0.38,-0.31,-0.07
2020-08-10 16:5:03.5250,0.53,-0.26,-0.08
2020-08-10 16:5:03.6250,1.04,-0.08,0.01
2020-08-10 16:5:03.7340,0.41,-0.62,-0.26
2020-08-10 16:5:03.8230,0.1,-0.02,-0.04
2020-08-10 16:5:03.9220,-0.02,-0.0,-0.19
2020-08-10 16:5:04.0320,-0.04,-0.01,-0.06
2020-08-10 16:5:04.1210,-0.02,-0.01,-0.08
2020-08-10 16:5:04.2300,0.03,-0.02,-0.08
2020-08-10 16:5:04.3190,-0.0,-0.01,-0.08
2020-08-10 16:5:04.4290,-0.01,-0.02,-0.09
2020-08-10 16:5:04.5180,-0.06,-0.12,-0.16
2020-08-10 16:5:04.6250,-0.19,-0.34,-0.1
2020-08-10 16:5:04.7170,-0.53,-0.55,0.11
2020-08-10 16:5:04.8160,-0.28,-0.1,0.04
2020-08-10 16:5:04.9190,-0.68,0.2,0.0
2020-08-10 16:5:05.0140,-0.49,0.03,-0.13
2020-08-10 16:5:05.1210,0.22,-0.46,-0.03
2020-08-10 16:5:05.2130,0.45,-0.35,-0.07
2020-08-10 16:5:05.3250,0.85,-0.07,0.02
2020-08-10 16:5:05.4110,0.95,0.04,0.11
2020-08-10 16:5:05.5180,0.68,-0.41,-0.48
2020-08-10 16:5:05.6100,0.32,-0.06,-0.16
2020-08-10 16:5:05.7200,0.1,-0.0,0.01
2020-08-10 16:5:05.8080,0.01,-0.05,-0.09
2020-08-10 16:5:05.9180,-0.01,0.03,-0.02
2020-08-10 16:5:06.0070,-0.02,0.01,-0.07
2020-08-10 16:5:06.1140,-0.06,-0.02,-0.06
2020-08-10 16:5:06.2050,-0.02,-0.08,-0.07
2020-08-10 16:5:06.3160,-0.05,-0.15,-0.12
2020-08-10 16:5:06.4040,-0.31,-0.55,-0.03
2020-08-10 16:5:06.5030,-0.64,-0.49,0.4
2020-08-10 16:5:06.6120,-0.43,-0.15,-0.1
2020-08-10 16:5:06.7020,-0.52,0.16,-0.09
2020-08-10 16:5:06.8130,-0.14,-0.21,-0.19
2020-08-10 16:5:06.9000,0.34,-0.3,-0.07
2020-08-10 16:5:07.0070,0.73,-0.35,-0.05
2020-08-10 16:5:07.0990,1.11,-0.04,0.02
2020-08-10 16:5:07.2060,-0.54,-0.46,-0.5
2020-08-10 16:5:07.2970,0.11,-0.04,-0.04
2020-08-10 16:5:07.4050,0.07,-0.04,-0.21
2020-08-10 16:5:07.4960,0.04,-0.02,-0.12
2020-08-10 16:5:07.6030,-0.03,0.01,-0.07
2020-08-10 16:5:07.6940,-0.01,-0.01,-0.07
2020-08-10 16:5:07.7990,-0.06,0.02,-0.06
2020-08-10 16:5:07.8930,-0.06,-0.03,-0.03
2020-08-10 16:5:07.9940,-0.02,-0.09,-0.07
2020-08-10 16:5:08.0910,-0.15,-0.31,-0.05
2020-08-10 16:5:08.2010,-0.54,-0.56,-0.02
2020-08-10 16:5:08.2900,-0.25,-0.15,-0.02
2020-08-10 16:5:08.4000,-0.84,0.22,0.05
2020-08-10 16:5:08.4890,-0.51,0.05,-0.09
2020-08-10 16:5:08.5880,0.13,-0.47,-0.13
2020-08-10 16:5:08.6870,0.47,-0.28,-0.08
2020-08-10 16:5:08.7960,0.9,-0.1,0.01
2020-08-10 16:5:08.8860,1.03,0.02,0.1
2020-08-10 16:5:08.9940,0.49,-0.38,-0.42
2020-08-10 16:5:09.0850,0.44,-0.21,-0.1
2020-08-10 16:5:09.1830,0.01,-0.02,-0.0
2020-08-10 16:5:09.2870,0.01,-0.0,-0.08
2020-08-10 16:5:09.3820,-0.04,-0.01,-0.02
2020-08-10 16:5:09.4850,0.01,-0.02,-0.07
2020-08-10 16:5:09.5800,-0.03,-0.03,-0.05
2020-08-10 16:5:09.6800,-0.01,-0.07,-0.04
2020-08-10 16:5:09.7870,-0.09,-0.19,-0.1
2020-08-10 16:5:09.8780,-0.5,-0.65,-0.02
2020-08-10 16:5:09.9880,-0.43,-0.15,0.28
2020-08-10 16:5:10.0770,-0.95,0.19,0.01
2020-08-10 16:5:10.1860,-0.64,0.14,-0.12
2020-08-10 16:5:10.2750,0.11,-0.41,-0.08
2020-08-10 16:5:10.3890,0.37,-0.28,-0.09
2020-08-10 16:5:10.4740,0.78,-0.16,0.03
2020-08-10 16:5:10.5730,1.14,0.02,0.13
2020-08-10 16:5:10.6850,0.26,-0.46,-0.19
2020-08-10 16:5:10.7720,0.19,-0.02,0.07
2020-08-10 16:5:10.8820,0.03,-0.05,-0.03
2020-08-10 16:5:10.9700,-0.01,-0.0,-0.06
2020-08-10 16:5:11.0690,0.03,-0.01,-0.05
2020-08-10 16:5:11.1690,0.0,-0.02,-0.06
2020-08-10 16:5:11.2750,-0.06,0.04,-0.03
2020-08-10 16:5:11.3670,-0.1,-0.0,-0.07
2020-08-10 16:5:11.4730,-0.06,-0.19,-0.1
2020-08-10 16:5:11.5660,-0.44,-0.7,-0.1
2020-08-10 16:5:11.6670,-0.62,-0.48,0.35
2020-08-10 16:5:11.7650,-0.62,-0.04,-0.08
2020-08-10 16:5:11.8640,-0.51,0.19,-0.09
2020-08-10 16:5:11.9700,0.03,-0.33,-0.1
2020-08-10 16:5:12.0620,0.4,-0.33,-0.03
2020-08-10 16:5:12.1610,0.67,-0.27,0.02
2020-08-10 16:5:12.2680,1.05,-0.02,0.08
2020-08-10 16:5:12.3600,-1.05,-0.35,-0.56
2020-08-10 16:5:12.4710,0.38,-0.36,-0.0
2020-08-10 16:5:12.5580,0.01,-0.04,-0.24
2020-08-10 16:5:12.6690,-0.04,-0.0,0.01
2020-08-10 16:5:12.7570,-0.01,0.02,-0.06
2020-08-10 16:5:12.8690,-0.0,0.04,-0.07
2020-08-10 16:5:12.9560,-0.04,-0.0,-0.1
2020-08-10 16:5:13.0590,-0.06,-0.06,-0.05
2020-08-10 16:5:13.1540,-0.06,-0.17,-0.13
2020-08-10 16:5:13.2600,-0.26,-0.46,-0.03
2020-08-10 16:5:13.3530,-0.64,-0.66,0.24
2020-08-10 16:5:13.4620,-0.05,0.11,0.03
2020-08-10 16:5:13.5510,-0.54,0.15,-0.03
2020-08-10 16:5:13.6580,-0.19,-0.18,-0.19
2020-08-10 16:5:13.7500,0.3,-0.31,-0.07
2020-08-10 16:5:13.8570,0.59,-0.31,-0.02
2020-08-10 16:5:13.9480,1.13,-0.06,0.05
2020-08-10 16:5:14.0470,-0.91,-0.38,-0.5
2020-08-10 16:5:14.1570,0.22,-0.31,-0.14
2020-08-10 16:5:14.2460,0.26,-0.1,-0.14
2020-08-10 16:5:14.3510,-0.01,0.02,-0.02
2020-08-10 16:5:14.4440,-0.02,-0.01,-0.06
2020-08-10 16:5:14.5510,0.06,-0.04,-0.11
2020-08-10 16:5:14.6430,0.02,0.0,-0.1
2020-08-10 16:5:14.7500,-0.01,-0.02,-0.06
2020-08-10 16:5:14.8420,-0.01,-0.05,-0.09
2020-08-10 16:5:14.9530,-0.04,-0.12,-0.15
2020-08-10 16:5:15.0400,-0.25,-0.65,-0.12
2020-08-10 16:5:15.1500,-0.48,-0.35,0.24
2020-08-10 16:5:15.2390,-1.01,-0.02,0.02
2020-08-10 16:5:15.3450,-0.72,0.1,-0.1
2020-08-10 16:5:15.4370,0.02,-0.42,-0.06
2020-08-10 16:5:15.5470,0.36,-0.24,-0.01
2020-08-10 16:5:15.6360,0.71,-0.3,-0.04
2020-08-10 16:5:15.7350,1.03,-0.07,0.02
2020-08-10 16:5:15.8430,-1.44,-0.11,-0.38
2020-08-10 16:5:15.9330,0.21,-0.1,-0.01
2020-08-10 16:5:16.0410,0.14,-0.04,-0.18
2020-08-10 16:5:16.1320,0.07,-0.02,-0.07
2020-08-10 16:5:16.2390,-0.02,-0.02,-0.06
2020-08-10 16:5:16.3310,0.03,-0.02,-0.08
2020-08-10 16:5:16.4370,0.01,0.0,-0.09
2020-08-10 16:5:16.5290,-0.03,-0.04,-0.05
2020-08-10 16:5:16.6390,-0.06,-0.11,-0.07
2020-08-10 16:5:16.7280,-0.13,-0.39,-0.08
2020-08-10 16:5:16.8370,-0.58,-0.53,-0.15
2020-08-10 16:5:16.9260,-0.2,-0.18,-0.03
2020-08-10 16:5:17.0360,-0.79,0.21,0.09
2020-08-10 16:5:17.1250,-0.61,0.05,-0.16
2020-08-10 16:5:17.2240,0.36,-0.4,-0.11
2020-08-10 16:5:17.3320,0.45,-0.29,-0.05
2020-08-10 16:5:17.4230,0.9,-0.05,0.03
2020-08-10 16:5:17.5280,1.17,-0.03,0.02
2020-08-10 16:5:17.6210,0.41,-0.62,-0.55
2020-08-10 16:5:17.7300,-0.0,-0.04,0.13
2020-08-10 16:5:17.8190,0.02,-0.02,-0.08
2020-08-10 16:5:17.9260,-0.02,-0.02,-0.07
2020-08-10 16:5:18.0180,0.01,0.01,-0.07
2020-08-10 16:5:18.1240,-0.06,0.02,-0.05
2020-08-10 16:5:18.2170,-0.07,-0.03,-0.08
2020-08-10 16:5:18.3160,0.01,-0.07,-0.08
2020-08-10 16:5:18.4250,-0.09,-0.16,-0.1
2020-08-10 16:5:18.5140,-0.45,-0.71,-0.08
2020-08-10 16:5:18.6210,-0.75,-0.31,0.21
2020-08-10 16:5:18.7130,-0.87,0.11,-0.12
2020-08-10 16:5:18.8220,-0.51,0.15,-0.07
2020-08-10 16:5:18.9110,0.08,-0.45,-0.1
2020-08-10 16:5:19.0120,0.47,-0.23,-0.05
2020-08-10 16:5:19.1100,0.67,-0.14,-0.05
2020-08-10 16:5:19.2130,0.95,-0.03,0.02
2020-08-10 16:5:19.3080,-1.55,-0.07,-0.07
2020-08-10 16:5:19.4150,0.09,-0.07,0.11
2020-08-10 16:5:19.5070,0.0,-0.04,-0.14
2020-08-10 16:5:19.6190,-0.02,-0.03,-0.0
2020-08-10 16:5:19.7060,0.02,-0.04,-0.1
2020-08-10 16:5:19.8050,0.04,-0.05,-0.07
2020-08-10 16:5:19.9110,-0.05,-0.0,-0.08
2020-08-10 16:5:20.0030,-0.05,-0.02,-0.06
2020-08-10 16:5:20.1030,-0.05,-0.15,-0.12
2020-08-10 16:5:20.2020,-0.19,-0.41,-0.06
2020-08-10 16:5:20.3010,-0.84,-0.59,0.24
2020-08-10 16:5:20.4070,-0.09,-0.07,-0.05
2020-08-10 16:5:20.5000,-0.61,0.18,0.04
2020-08-10 16:5:20.6060,-0.24,-0.11,-0.15
2020-08-10 16:5:20.6980,0.36,-0.33,-0.08
2020-08-10 16:5:20.7970,0.58,-0.29,-0.06
2020-08-10 16:5:20.9060,0.92,-0.11,-0.02
2020-08-10 16:5:20.9960,0.27,-0.4,-0.04
2020-08-10 16:5:21.1020,0.24,-0.21,-0.21
2020-08-10 16:5:21.1950,0.22,-0.05,-0.12
2020-08-10 16:5:21.3050,-0.05,0.01,-0.05
2020-08-10 16:5:21.3930,-0.01,-0.02,-0.08
2020-08-10 16:5:21.4990,-0.02,-0.03,-0.05
2020-08-10 16:5:21.5920,-0.05,-0.02,-0.06
2020-08-10 16:5:21.7030,-0.04,-0.02,-0.05
2020-08-10 16:5:21.7900,-0.01,-0.09,-0.12
2020-08-10 16:5:21.9010,-0.17,-0.24,-0.05
2020-08-10 16:5:21.9880,-0.6,-0.61,-0.18
2020-08-10 16:5:22.0880,-0.34,-0.17,0.14
2020-08-10 16:5:22.1940,-0.96,0.18,-0.05
2020-08-10 16:5:22.2860,-0.56,0.17,-0.13
2020-08-10 16:5:22.3860,0.16,-0.47,-0.06
2020-08-10 16:5:22.4920,0.42,-0.3,-0.04
2020-08-10 16:5:22.5840,0.9,-0.12,0.02
2020-08-10 16:5:22.6910,0.96,-0.05,0.05
2020-08-10 16:5:22.7830,0.6,-0.19,-0.27
2020-08-10 16:5:22.8900,0.04,0.03,0.02
2020-08-10 16:5:22.9810,-0.04,-0.01,-0.06
2020-08-10 16:5:23.0810,-0.05,-0.04,-0.06
2020-08-10 16:5:23.1910,0.01,0.0,-0.04
2020-08-10 16:5:23.2790,0.05,-0.02,-0.11
2020-08-10 16:5:23.3780,-0.02,-0.03,-0.04
2020-08-10 16:5:23.4900,-0.01,-0.06,-0.08
2020-08-10 16:5:23.5770,-0.1,-0.16,-0.05
2020-08-10 16:5:23.6760,-0.25,-0.43,-0.08
2020-08-10 16:5:23.7770,-0.35,-0.35,0.14
2020-08-10 16:5:23.8850,-0.15,-0.11,0.02
2020-08-10 16:5:23.9740,-0.75,0.08,-0.01
2020-08-10 16:5:24.0850,-0.42,-0.14,-0.11
2020-08-10 16:5:24.1720,0.35,-0.37,-0.11
2020-08-10 16:5:24.2790,0.55,-0.31,-0.07
2020-08-10 16:5:24.3710,1.08,-0.1,0.05
2020-08-10 16:5:24.4700,0.41,-0.37,-0.2
2020-08-10 16:5:24.5770,0.3,-0.2,-0.08
2020-08-10 16:5:24.6690,0.21,-0.05,-0.14
2020-08-10 16:5:24.7780,0.14,-0.01,-0.06
2020-08-10 16:5:24.8670,0.05,-0.03,-0.11
2020-08-10 16:5:24.9660,0.03,-0.02,-0.05
2020-08-10 16:5:25.0690,-0.01,0.01,-0.07
2020-08-10 16:5:25.1650,-0.04,-0.02,-0.05
2020-08-10 16:5:25.2700,-0.06,-0.09,-0.09
2020-08-10 16:5:25.3640,-0.11,-0.21,-0.1
2020-08-10 16:5:25.4710,-0.39,-0.74,-0.31
2020-08-10 16:5:25.5620,-0.39,-0.15,0.22
2020-08-10 16:5:25.6700,-0.91,0.15,-0.05
2020-08-10 16:5:25.7610,-0.59,0.19,-0.05
2020-08-10 16:5:25.8670,0.14,-0.5,-0.05
2020-08-10 16:5:25.9590,0.44,-0.22,-0.01
2020-08-10 16:5:26.0700,0.64,-0.26,-0.08
2020-08-10 16:5:26.1580,1.1,0.03,0.04
2020-08-10 16:5:26.2660,-0.31,-0.23,-0.04
2020-08-10 16:5:26.3560,0.07,0.04,0.24
2020-08-10 16:5:26.4550,-0.01,-0.04,-0.09
2020-08-10 16:5:26.5550,-0.02,-0.03,-0.03
2020-08-10 16:5:26.6600,0.01,0.02,-0.07
2020-08-10 16:5:26.7530,0.01,-0.01,-0.04
2020-08-10 16:5:26.8610,-0.02,0.0,-0.08
2020-08-10 16:5:26.9520,-0.02,-0.09,-0.07
2020-08-10 16:5:27.0630,-0.1,-0.18,-0.05
2020-08-10 16:5:27.1500,-0.29,-0.6,-0.05
2020-08-10 16:5:27.2500,-0.81,-0.23,0.35
2020-08-10 16:5:27.3490,-0.74,-0.11,-0.05
2020-08-10 16:5:27.4550,-0.46,0.11,-0.13
2020-08-10 16:5:27.5470,0.07,-0.38,-0.12
2020-08-10 16:5:27.6510,0.43,-0.2,-0.11
2020-08-10 16:5:27.7460,0.59,-0.25,-0.06
2020-08-10 16:5:27.8510,1.05,-0.04,0.02
2020-08-10 16:5:27.9450,-1.31,-0.1,0.07
2020-08-10 16:5:28.0500,0.03,-0.1,0.2
2020-08-10 16:5:28.1430,-0.03,-0.03,-0.1
2020-08-10 16:5:28.2570,0.03,-0.03,-0.05
2020-08-10 16:5:28.3410,-0.05,0.01,-0.01
2020-08-10 16:5:28.4450,-0.03,-0.02,-0.05
2020-08-10 16:5:28.5400,-0.04,0.02,-0.06
2020-08-10 16:5:28.6440,-0.07,-0.02,-0.07
2020-08-10 16:5:28.7390,-0.05,-0.11,-0.11
2020-08-10 16:5:28.8440,-0.16,-0.3,-0.08
2020-08-10 16:5:28.9370,-0.56,-0.57,-0.01
2020-08-10 16:5:29.0500,-0.37,-0.12,0.08
2020-08-10 16:5:29.1360,-0.82,0.24,0.05
2020-08-10 16:5:29.2350,-0.55,0.03,-0.1
2020-08-10 16:5:29.3340,0.26,-0.35,-0.08
2020-08-10 16:5:29.4420,0.43,-0.27,-0.09
2020-08-10 16:5:29.5330,0.69,-0.08,0.01
2020-08-10 16:5:29.6440,0.95,0.01,0.06
2020-08-10 16:5:29.7310,-0.2,-0.22,0.03
2020-08-10 16:5:29.8350,0.13,-0.03,0.2
2020-08-10 16:5:29.9300,0.01,-0.05,-0.12
2020-08-10 16:5:30.0330,-0.02,-0.03,-0.03
2020-08-10 16:5:30.1280,-0.05,0.01,-0.02
2020-08-10 16:5:30.2340,0.02,-0.02,-0.09
2020-08-10 16:5:30.3270,0.01,0.0,-0.07
2020-08-10 16:5:30.4260,-0.0,-0.03,-0.08
2020-08-10 16:5:30.5350,-0.03,-0.08,-0.05
2020-08-10 16:5:30.6250,-0.18,-0.3,-0.06
2020-08-10 16:5:30.7240,-0.3,-0.65,-0.19
2020-08-10 16:5:30.8230,-0.03,-0.28,-0.01
2020-08-10 16:5:30.9310,-0.76,0.25,0.11
2020-08-10 16:5:31.0220,-0.53,0.08,-0.13
2020-08-10 16:5:31.1320,0.18,-0.37,-0.04
2020-08-10 16:5:31.2200,0.42,-0.31,-0.07
2020-08-10 16:5:31.3200,0.89,-0.08,-0.01
2020-08-10 16:5:31.4300,0.94,0.0,0.01
2020-08-10 16:5:31.5180,-0.02,-0.4,-0.08
2020-08-10 16:5:31.6260,0.17,0.01,0.23
2020-08-10 16:5:31.7160,0.1,-0.06,-0.08
2020-08-10 16:5:31.8250,0.03,-0.03,-0.09
2020-08-10 16:5:31.9150,0.04,-0.0,-0.04
2020-08-10 16:5:32.0250,0.01,-0.01,-0.08
2020-08-10 16:5:32.1140,-0.04,-0.02,-0.07
2020-08-10 16:5:32.2240,-0.05,-0.04,-0.04
2020-08-10 16:5:32.3120,0.01,-0.09,-0.07
2020-08-10 16:5:32.4220,-0.17,-0.38,-0.03
2020-08-10 16:5:32.5110,-0.47,-0.55,-0.05
2020-08-10 16:5:32.6210,-0.08,-0.15,-0.05
2020-08-10 16:5:32.7090,-0.71,0.17,0.13
2020-08-10 16:5:32.8090,-0.47,-0.04,-0.12
2020-08-10 16:5:32.9160,0.2,-0.39,-0.1
2020-08-10 16:5:33.0070,0.49,-0.34,-0.02
2020-08-10 16:5:33.1060,0.93,-0.14,0.04
2020-08-10 16:5:33.2090,1.06,0.03,0.08
2020-08-10 16:5:33.3050,0.6,-0.41,-0.28
2020-08-10 16:5:33.4110,0.66,-0.43,0.54
2020-08-10 16:5:33.5030,0.19,-0.04,-0.07
2020-08-10 16:5:33.6030,-0.01,-0.02,-0.08
2020-08-10 16:5:33.7100,-0.02,0.02,-0.01
2020-08-10 16:5:33.8010,0.01,0.01,-0.07
2020-08-10 16:5:33.9030,-0.06,0.03,-0.08
2020-08-10 16:5:34.0000,-0.03,-0.04,-0.05
2020-08-10 16:5:34.0990,-0.17,-0.2,-0.08
2020-08-10 16:5:34.1980,-0.41,-0.61,0.01
2020-08-10 16:5:34.2970,-0.47,-0.64,0.37
2020-08-10 16:5:34.4040,-0.5,-0.09,-0.02
2020-08-10 16:5:34.4960,-0.51,0.18,-0.05
2020-08-10 16:5:34.5950,-0.14,-0.29,-0.24
2020-08-10 16:5:34.6980,0.3,-0.37,-0.05
2020-08-10 16:5:34.7940,0.59,-0.27,-0.09
2020-08-10 16:5:34.9050,1.04,-0.11,0.08
2020-08-10 16:5:34.9920,0.74,-0.17,0.05
2020-08-10 16:5:35.1040,0.74,-0.22,-0.07
2020-08-10 16:5:35.1910,0.13,-0.13,-0.16
2020-08-10 16:5:35.2900,0.05,-0.02,-0.04
2020-08-10 16:5:35.3890,0.03,-0.04,-0.07
2020-08-10 16:5:35.5030,-0.04,0.02,-0.02
2020-08-10 16:5:35.5880,-0.05,0.05,-0.05
2020-08-10 16:5:35.6950,-0.09,0.03,-0.0
2020-08-10 16:5:35.7860,-0.03,-0.05,-0.13
2020-08-10 16:5:35.9040,-0.12,-0.24,-0.06
2020-08-10 16:5:35.9850,-0.46,-0.65,-0.17
2020-08-10 16:5:36.0840,-0.49,-0.28,0.24
2020-08-10 16:5:36.1920,-1.11,0.18,-0.05
2020-08-10 16:5:36.2830,-0.68,0.14,-0.07
2020-08-10 16:5:36.3900,0.03,-0.45,-0.04
2020-08-10 16:5:36.4810,0.31,-0.27,-0.03
2020-08-10 16:5:36.5810,0.66,-0.3,-0.02
2020-08-10 16:5:36.6810,1.23,0.0,0.09
2020-08-10 16:5:36.7810,0.32,-0.34,-0.09
2020-08-10 16:5:36.8780,0.19,-0.1,0.13
2020-08-10 16:5:36.9860,0.07,-0.04,-0.13
2020-08-10 16:5:37.0770,-0.03,-0.03,-0.03
2020-08-10 16:5:37.1840,0.0,0.02,-0.04
2020-08-10 16:5:37.2750,-0.01,0.01,-0.06
2020-08-10 16:5:37.3830,-0.04,0.02,-0.04
2020-08-10 16:5:37.4740,-0.12,0.02,0.01
2020-08-10 16:5:37.5730,-0.11,-0.15,-0.11
2020-08-10 16:5:37.6800,-0.24,-0.43,-0.05
2020-08-10 16:5:37.7720,-0.44,-0.38,-0.03
2020-08-10 16:5:37.8710,-0.1,-0.25,0.03
2020-08-10 16:5:37.9800,-0.73,0.16,0.04
2020-08-10 16:5:38.0700,-0.51,0.01,-0.07
2020-08-10 16:5:38.1770,0.18,-0.33,-0.03
2020-08-10 16:5:38.2680,0.49,-0.36,-0.03
2020-08-10 16:5:38.3800,0.97,-0.09,0.02
2020-08-10 16:5:38.4670,1.07,-0.01,0.1
2020-08-10 16:5:38.5660,0.54,-0.21,-0.41
2020-08-10 16:5:38.6750,0.22,-0.11,0.1
2020-08-10 16:5:38.7640,0.04,0.02,0.0
2020-08-10 16:5:38.8640,0.0,-0.02,-0.05
2020-08-10 16:5:38.9730,0.02,0.0,-0.07
2020-08-10 16:5:39.0620,0.01,0.0,-0.07
2020-08-10 16:5:39.1670,-0.06,-0.0,-0.08
2020-08-10 16:5:39.2610,-0.03,-0.08,-0.06
2020-08-10 16:5:39.3610,-0.09,-0.23,-0.09
2020-08-10 16:5:39.4610,-0.26,-0.63,-0.13
2020-08-10 16:5:39.5580,-0.69,-0.3,0.3
2020-08-10 16:5:39.6700,-0.77,-0.05,-0.07
2020-08-10 16:5:39.7570,-0.65,0.15,-0.1
2020-08-10 16:5:39.8600,-0.12,-0.32,-0.05
2020-08-10 16:5:39.9550,0.38,-0.29,-0.0
2020-08-10 16:5:40.0550,0.64,-0.29,-0.05
2020-08-10 16:5:40.1590,1.17,-0.05,0.01
2020-08-10 16:5:40.2530,-1.37,-0.08,-0.33
2020-08-10 16:5:40.3620,0.1,-0.13,0.14
2020-08-10 16:5:40.4520,-0.12,-0.02,-0.13
2020-08-10 16:5:40.5530,-0.1,-0.02,-0.02
2020-08-10 16:5:40.6500,-0.02,0.02,-0.06
2020-08-10 16:5:40.7620,-0.02,-0.01,-0.06
2020-08-10 16:5:40.8490,-0.04,-0.0,-0.08
2020-08-10 16:5:40.9510,0.1,-0.04,-0.12
2020-08-10 16:5:41.0470,0.01,-0.11,-0.08
2020-08-10 16:5:41.1540,-0.06,-0.24,-0.09
2020-08-10 16:5:41.2460,-0.33,-0.62,-0.2
2020-08-10 16:5:41.3530,-0.56,-0.3,0.26
2020-08-10 16:5:41.4440,-0.87,-0.13,-0.05
2020-08-10 16:5:41.5520,-0.66,0.15,-0.04
2020-08-10 16:5:41.6430,0.02,-0.35,-0.01
2020-08-10 16:5:41.7520,0.3,-0.24,-0.02
2020-08-10 16:5:41.8420,0.57,-0.26,-0.13
2020-08-10 16:5:41.9410,1.23,-0.15,-0.02
2020-08-10 16:5:42.0400,-1.38,-0.21,-0.32
2020-08-10 16:5:42.1470,0.07,-0.12,-0.04
2020-08-10 16:5:42.2390,0.03,-0.01,-0.2
2020-08-10 16:5:42.3480,-0.01,0.02,0.02
2020-08-10 16:5:42.4370,0.03,-0.01,-0.11
2020-08-10 16:5:42.5480,0.0,-0.01,-0.06
2020-08-10 16:5:42.6360,0.0,0.03,-0.09
2020-08-10 16:5:42.7440,-0.05,-0.0,-0.06
2020-08-10 16:5:42.8340,-0.02,-0.12,-0.07
2020-08-10 16:5:42.9350,-0.15,-0.27,-0.08
2020-08-10 16:5:43.0340,-0.45,-0.78,-0.15
2020-08-10 16:5:43.1340,-0.1,-0.09,0.09
2020-08-10 16:5:43.2360,-0.81,0.19,0.09
2020-08-10 16:5:43.3300,-0.62,0.15,-0.06
2020-08-10 16:5:43.4360,0.13,-0.39,-0.08
2020-08-10 16:5:43.5290,0.35,-0.3,-0.05
2020-08-10 16:5:43.6280,0.73,-0.16,-0.03
2020-08-10 16:5:43.7380,0.87,0.03,-0.0
2020-08-10 16:5:43.8270,-0.71,-0.23,0.3
2020-08-10 16:5:43.9290,-0.05,-0.14,0.31
2020-08-10 16:5:44.0250,-0.11,-0.04,-0.14
2020-08-10 16:5:44.1370,0.03,-0.04,-0.09
2020-08-10 16:5:44.2240,-0.07,0.03,0.04
2020-08-10 16:5:44.3290,-0.05,0.01,-0.08
2020-08-10 16:5:44.4220,-0.06,0.02,-0.05
2020-08-10 16:5:44.5320,-0.02,-0.08,-0.06
2020-08-10 16:5:44.6210,-0.04,-0.18,-0.07
2020-08-10 16:5:44.7320,-0.25,-0.36,-0.03
2020-08-10 16:5:44.8200,-0.89,-0.66,0.47
2020-08-10 16:5:44.9330,-0.04,-0.11,0.01
2020-08-10 16:5:45.0180,-0.5,0.2,-0.16
2020-08-10 16:5:45.1170,-0.0,-0.46,-0.23
2020-08-10 16:5:45.2250,0.54,-0.59,0.01
2020-08-10 16:5:45.3160,1.03,-0.22,0.07
2020-08-10 16:5:45.4150,1.1,0.04,0.16
2020-08-10 16:5:45.5230,-0.79,-0.2,0.16
2020-08-10 16:5:45.6140,-0.14,0.13,0.24
2020-08-10 16:5:45.7250,-0.01,-0.04,-0.21
2020-08-10 16:5:45.8120,0.04,-0.04,-0.08
2020-08-10 16:5:45.9120,-0.03,0.01,0.01
2020-08-10 16:5:46.0120,-0.02,-0.0,-0.04
2020-08-10 16:5:46.1110,-0.02,0.0,-0.06
2020-08-10 16:5:46.2100,-0.06,-0.03,-0.02
2020-08-10 16:5:46.3210,0.01,-0.1,-0.09
2020-08-10 16:5:46.4080,-0.19,-0.37,-0.06
2020-08-10 16:5:46.5200,-0.59,-0.5,0.15
2020-08-10 16:5:46.6070,-0.06,-0.2,0.05
2020-08-10 16:5:46.7060,-0.69,0.02,-0.03
2020-08-10 16:5:46.8150,-0.4,-0.14,-0.05
2020-08-10 16:5:46.9040,0.3,-0.38,0.0
2020-08-10 16:5:47.0030,0.6,-0.29,0.01
2020-08-10 16:5:47.1130,1.04,-0.07,0.04
2020-08-10 16:5:47.2020,0.86,-0.2,0.08
2020-08-10 16:5:47.3010,0.7,-0.32,-0.33
2020-08-10 16:5:47.4180,0.2,-0.06,-0.06
2020-08-10 16:5:47.5000,0.03,0.01,0.02
2020-08-10 16:5:47.6000,-0.02,-0.02,-0.09
2020-08-10 16:5:47.6980,0.02,-0.01,-0.06
2020-08-10 16:5:47.7970,-0.02,0.03,-0.04
2020-08-10 16:5:47.9050,-0.05,0.01,-0.07
2020-08-10 16:5:47.9960,-0.07,-0.02,-0.06
2020-08-10 16:5:48.1030,-0.03,-0.1,-0.07
2020-08-10 16:5:48.1940,-0.18,-0.6,-0.09
2020-08-10 16:5:48.3000,-0.69,-0.56,0.53
2020-08-10 16:5:48.3930,-0.5,-0.09,-0.18
2020-08-10 16:5:48.5000,-0.43,0.07,-0.12
2020-08-10 16:5:48.5920,-0.11,-0.34,-0.04
2020-08-10 16:5:48.6910,0.34,-0.3,-0.05
2020-08-10 16:5:48.8030,0.71,-0.32,-0.03
2020-08-10 16:5:48.8900,1.06,-0.11,-0.04
2020-08-10 16:5:48.9960,-0.82,-0.32,-0.33
2020-08-10 16:5:49.0880,0.22,-0.21,-0.02
2020-08-10 16:5:49.1970,-0.1,-0.08,-0.08
2020-08-10 16:5:49.2860,-0.05,-0.0,-0.02
2020-08-10 16:5:49.3860,-0.01,0.01,-0.04
2020-08-10 16:5:49.4970,0.02,-0.0,-0.08
2020-08-10 16:5:49.5840,-0.01,-0.0,-0.06
2020-08-10 16:5:49.6920,-0.06,-0.02,-0.03
2020-08-10 16:5:49.7830,-0.1,-0.11,-0.07
2020-08-10 16:5:49.8840,-0.08,-0.26,-0.13
2020-08-10 16:5:49.9810,-0.65,-0.67,0.13
2020-08-10 16:5:50.0830,-0.14,-0.27,-0.16
2020-08-10 16:5:50.1820,-0.95,0.22,0.22
2020-08-10 16:5:50.2800,-0.55,-0.0,-0.16
2020-08-10 16:5:50.3780,0.19,-0.39,-0.06
2020-08-10 16:5:50.4800,0.51,-0.28,-0.0
2020-08-10 16:5:50.5770,0.71,-0.21,-0.02
2020-08-10 16:5:50.6850,0.97,-0.03,0.03
2020-08-10 16:5:50.7760,-0.91,-0.14,0.17
2020-08-10 16:5:50.8770,0.15,0.05,0.31
2020-08-10 16:5:50.9740,-0.09,-0.03,-0.19
2020-08-10 16:5:51.0730,-0.13,0.0,-0.01
2020-08-10 16:5:51.1800,0.0,-0.01,-0.03
2020-08-10 16:5:51.2720,0.03,0.02,-0.08
2020-08-10 16:5:51.3710,-0.03,0.01,-0.07
2020-08-10 16:5:51.4820,-0.02,-0.06,-0.06
2020-08-10 16:5:51.5700,-0.07,-0.16,-0.09
2020-08-10 16:5:51.6780,-0.27,-0.39,-0.08
2020-08-10 16:5:51.7680,-0.43,-0.58,0.02
2020-08-10 16:5:51.8670,-0.26,-0.13,0.07
2020-08-10 16:5:51.9670,-0.83,0.07,0.1
2020-08-10 16:5:52.0660,-0.5,0.01,-0.08
2020-08-10 16:5:52.1650,0.37,-0.44,-0.01
2020-08-10 16:5:52.2640,0.67,-0.26,-0.0
2020-08-10 16:5:52.3640,0.82,-0.18,0.06
2020-08-10 16:5:52.4740,1.1,-0.05,0.04
2020-08-10 16:5:52.5620,-0.24,-0.09,0.33
2020-08-10 16:5:52.6610,0.19,0.13,0.19
2020-08-10 16:5:52.7620,-0.13,-0.0,-0.03
2020-08-10 16:5:52.8700,-0.06,0.04,-0.02
2020-08-10 16:5:52.9600,0.03,-0.03,-0.07
2020-08-10 16:5:53.0580,-0.04,0.04,-0.01
2020-08-10 16:5:53.1680,-0.0,-0.05,-0.14
2020-08-10 16:5:53.2570,0.0,-0.04,-0.05
2020-08-10 16:5:53.3560,-0.01,-0.14,-0.11
2020-08-10 16:5:53.4630,-0.04,-0.22,-0.03
2020-08-10 16:5:53.5550,-0.51,-0.56,-0.1
2020-08-10 16:5:53.6580,-0.34,-0.32,0.21
2020-08-10 16:5:53.7530,-0.94,0.01,-0.09
2020-08-10 16:5:53.8610,-0.57,0.14,-0.08
2020-08-10 16:5:53.9520,-0.01,-0.38,-0.07
2020-08-10 16:5:54.0510,0.35,-0.28,-0.03
2020-08-10 16:5:54.1580,0.7,-0.27,-0.06
2020-08-10 16:5:54.2500,0.96,-0.03,-0.04
2020-08-10 16:5:54.3580,-1.31,-0.18,-0.44
2020-08-10 16:5:54.4480,0.21,-0.31,0.05
2020-08-10 16:5:54.5590,-0.09,0.03,-0.1
2020-08-10 16:5:54.6470,-0.04,-0.02,-0.0
2020-08-10 16:5:54.7460,-0.01,-0.0,-0.06
2020-08-10 16:5:54.8570,0.01,0.01,-0.08
2020-08-10 16:5:54.9450,-0.01,0.01,-0.07
2020-08-10 16:5:55.0500,-0.03,-0.02,-0.06
2020-08-10 16:5:55.1430,-0.03,-0.1,-0.1
2020-08-10 16:5:55.2500,-0.15,-0.28,-0.08
2020-08-10 16:5:55.3420,-0.59,-0.66,0.02
2020-08-10 16:5:55.4410,-0.29,-0.06,0.13
2020-08-10 16:5:55.5400,-1.03,0.3,0.05
2020-08-10 16:5:55.6480,-0.61,0.04,-0.1
2020-08-10 16:5:55.7390,0.11,-0.42,-0.08
2020-08-10 16:5:55.8380,0.52,-0.4,-0.04
2020-08-10 16:5:55.9460,1.08,-0.13,-0.08
2020-08-10 16:5:56.0360,0.96,0.01,0.13
2020-08-10 16:5:56.1430,0.7,-0.34,-0.43
2020-08-10 16:5:56.2350,0.26,0.02,0.06
2020-08-10 16:5:56.3340,0.18,-0.04,-0.05
2020-08-10 16:5:56.4360,0.02,-0.03,-0.11
2020-08-10 16:5:56.5330,0.03,-0.0,-0.05
2020-08-10 16:5:56.6350,0.01,-0.0,-0.05
2020-08-10 16:5:56.7310,-0.07,0.04,-0.02
2020-08-10 16:5:56.8430,0.01,-0.1,-0.1
2020-08-10 16:5:56.9300,-0.13,-0.16,-0.0
2020-08-10 16:5:57.0290,-0.26,-0.44,-0.05
2020-08-10 16:5:57.1360,-0.54,-0.17,0.22
2020-08-10 16:5:57.2280,-0.59,-0.19,0.03
2020-08-10 16:5:57.3270,-0.73,0.13,0.02
2020-08-10 16:5:57.4260,-0.26,-0.15,-0.18
2020-08-10 16:5:57.5340,0.21,-0.41,-0.09
2020-08-10 16:5:57.6250,0.52,-0.29,-0.17
2020-08-10 16:5:57.7240,0.9,-0.09,0.01
2020-08-10 16:5:57.8230,1.32,-0.05,0.16
2020-08-10 16:5:57.9350,0.52,-0.27,-0.13
2020-08-10 16:5:58.0220,0.35,-0.23,-0.13
2020-08-10 16:5:58.1210,-0.03,0.03,-0.03
2020-08-10 16:5:58.2310,0.03,-0.02,-0.06
2020-08-10 16:5:58.3190,-0.06,0.02,0.01
2020-08-10 16:5:58.4190,0.05,-0.04,-0.09
2020-08-10 16:5:58.5260,-0.02,-0.01,-0.09
2020-08-10 16:5:58.6170,-0.02,-0.07,-0.11
2020-08-10 16:5:58.7290,-0.06,-0.19,-0.09
2020-08-10 16:5:58.8160,-0.38,-0.63,-0.13
2020-08-10 16:5:58.9150,-0.65,-0.25,0.3
2020-08-10 16:5:59.0270,-1.02,0.12,-0.03
2020-08-10 16:5:59.1140,-0.61,0.14,-0.06
2020-08-10 16:5:59.2130,-0.02,-0.48,-0.06
2020-08-10 16:5:59.3150,0.33,-0.26,-0.03
2020-08-10 16:5:59.4110,0.62,-0.23,-0.07
2020-08-10 16:5:59.5170,0.99,-0.03,0.09
2020-08-10 16:5:59.6100,-0.96,-0.34,-0.56
2020-08-10 16:5:59.7170,-0.04,-0.05,0.0
2020-08-10 16:5:59.8080,-0.01,-0.0,-0.24
2020-08-10 16:5:59.9170,0.05,-0.04,-0.06
2020-08-10 16:6:00.0070,-0.03,-0.0,-0.05
2020-08-10 16:6:00.1170,-0.0,-0.01,-0.06
2020-08-10 16:6:00.2060,-0.01,-0.02,-0.07
2020-08-10 16:6:00.3170,-0.03,-0.01,-0.06
2020-08-10 16:6:00.4040,-0.04,-0.1,-0.07
2020-08-10 16:6:00.5040,-0.12,-0.19,-0.05
2020-08-10 16:6:00.6100,-0.37,-0.7,-0.25
2020-08-10 16:6:00.7020,-0.27,-0.12,0.2
2020-08-10 16:6:00.8040,-1.02,0.24,0.02
2020-08-10 16:6:00.9010,-0.64,0.14,-0.02
2020-08-10 16:6:01.0080,0.04,-0.37,-0.07
2020-08-10 16:6:01.0990,0.32,-0.33,-0.04
2020-08-10 16:6:01.2000,0.56,-0.23,-0.07
2020-08-10 16:6:01.3010,0.83,0.01,0.05
2020-08-10 16:6:01.3970,0.78,-0.1,0.13
2020-08-10 16:6:01.4960,0.56,-0.14,-0.24
2020-08-10 16:6:01.5960,0.04,-0.02,-0.17
2020-08-10 16:6:01.7010,0.02,0.0,-0.0
2020-08-10 16:6:01.7940,-0.02,-0.02,-0.04
2020-08-10 16:6:01.9020,0.01,0.0,-0.09
2020-08-10 16:6:01.9920,-0.04,-0.02,-0.03
2020-08-10 16:6:02.0940,-0.01,-0.04,-0.09
2020-08-10 16:6:02.1920,-0.01,-0.03,-0.06
2020-08-10 16:6:02.2930,0.04,-0.04,-0.09
2020-08-10 16:6:02.3890,-0.03,-0.08,-0.06
2020-08-10 16:6:02.4890,-0.14,-0.29,-0.04
2020-08-10 16:6:02.5880,-0.17,0.09,-0.1
2020-08-10 16:6:02.6870,-0.14,-0.0,0.02
2020-08-10 16:6:02.7870,-0.46,0.08,-0.03
2020-08-10 16:6:02.8880,-0.23,0.02,0.0
2020-08-10 16:6:02.9850,0.06,-0.1,-0.03
2020-08-10 16:6:03.0930,0.44,0.0,-0.02
2020-08-10 16:6:03.1840,0.3,0.06,-0.05
2020-08-10 16:6:03.2830,0.3,-0.07,-0.13
2020-08-10 16:6:03.3840,-0.18,-0.02,0.05
2020-08-10 16:6:03.4920,-0.08,-0.0,-0.06
2020-08-10 16:6:03.5810,-0.11,-0.02,0.02
2020-08-10 16:6:03.6850,-0.09,0.07,-0.02
2020-08-10 16:6:03.7790,-0.01,0.03,0.0
2020-08-10 16:6:03.8870,-0.09,-0.04,-0.02
2020-08-10 16:6:03.9780,0.01,0.0,-0.11
2020-08-10 16:6:04.0770,0.03,0.01,-0.07
2020-08-10 16:6:04.1770,0.03,0.02,-0.09
2020-08-10 16:6:04.2840,0.03,0.02,-0.08
2020-08-10 16:6:04.3750,0.04,-0.0,-0.05
2020-08-10 16:6:04.4830,-0.08,0.0,-0.05
2020-08-10 16:6:04.5730,-0.0,0.01,-0.03
2020-08-10 16:6:04.6720,-0.07,-0.02,-0.0
2020-08-10 16:6:04.7720,0.1,-0.01,-0.12
