time,ax,ay,az
2020-08-12 20:5:28.5970,0.01,0.01,0.0
2020-08-12 20:5:28.6970,0.0,-0.02,-0.01
2020-08-12 20:5:28.7960,0.04,0.0,0.01
2020-08-12 20:5:28.8950,-0.0,0.01,0.01
2020-08-12 20:5:28.9940,0.0,-0.01,-0.02
2020-08-12 20:5:29.0930,0.0,0.0,-0.0
2020-08-12 20:5:29.1930,-0.02,0.01,0.0
2020-08-12 20:5:29.2920,0.01,0.03,-0.0
2020-08-12 20:5:29.3910,-0.11,0.03,0.01
2020-08-12 20:5:29.4900,-0.16,-0.0,-0.02
2020-08-12 20:5:29.5900,-0.08,0.05,-0.01
2020-08-12 20:5:29.6890,-0.06,0.0,-0.0
2020-08-12 20:5:29.7880,-0.12,0.02,0.02
2020-08-12 20:5:29.8870,-0.1,-0.01,0.04
2020-08-12 20:5:29.9870,-0.01,0.01,-0.0
2020-08-12 20:5:30.0860,0.04,-0.02,0.04
2020-08-12 20:5:30.1850,-0.13,0.05,0.04
2020-08-12 20:5:30.2850,0.03,-0.06,0.01
2020-08-12 20:5:30.3840,-0.1,-0.04,0.08
2020-08-12 20:5:30.4830,-0.17,-0.05,0.05
2020-08-12 20:5:30.5820,-0.27,-0.11,0.28
2020-08-12 20:5:30.6820,-0.95,0.02,0.17
2020-08-12 20:5:30.7810,-0.54,0.0,-0.2
2020-08-12 20:5:30.8800,-0.19,-0.27,-0.16
2020-08-12 20:5:30.9790,0.4,-0.22,-0.13
2020-08-12 20:5:31.0780,0.34,0.07,-0.01
2020-08-12 20:5:31.1780,0.79,0.14,0.34
2020-08-12 20:5:31.2770,-0.99,-0.66,0.81
2020-08-12 20:5:31.3760,-0.02,-0.19,0.6
2020-08-12 20:5:31.4760,-0.06,0.08,-0.02
2020-08-12 20:5:31.5750,0.07,-0.13,-0.15
2020-08-12 20:5:31.6740,0.02,-0.01,-0.02
2020-08-12 20:5:31.7740,0.03,0.02,0.01
2020-08-12 20:5:31.8730,-0.05,0.02,-0.0
2020-08-12 20:5:31.9720,-0.07,-0.02,-0.01
2020-08-12 20:5:32.0710,-0.02,-0.01,0.0
2020-08-12 20:5:32.1700,-0.06,-0.03,0.04
2020-08-12 20:5:32.2700,-0.01,-0.06,0.03
2020-08-12 20:5:32.3690,-0.18,-0.29,-0.07
2020-08-12 20:5:32.4680,-0.32,-0.21,0.14
2020-08-12 20:5:32.5670,-0.66,-0.26,0.1
2020-08-12 20:5:32.6670,-0.84,-0.01,0.06
2020-08-12 20:5:32.7660,-0.15,-0.31,-0.04
2020-08-12 20:5:32.8650,0.18,-0.29,0.01
2020-08-12 20:5:32.9640,0.44,-0.07,0.08
2020-08-12 20:5:33.0640,0.55,0.13,0.12
2020-08-12 20:5:33.1630,0.72,0.22,0.26
2020-08-12 20:5:33.2620,0.73,-0.51,-0.57
2020-08-12 20:5:33.3610,0.09,-0.07,-0.06
2020-08-12 20:5:33.4610,-0.13,0.02,0.12
2020-08-12 20:5:33.5600,0.01,0.03,0.02
2020-08-12 20:5:33.6590,0.12,-0.02,-0.05
2020-08-12 20:5:33.7570,-0.02,-0.0,0.01
2020-08-12 20:5:33.8560,-0.0,-0.03,0.03
2020-08-12 20:5:33.9570,-0.06,-0.04,0.02
2020-08-12 20:5:34.0560,-0.05,0.01,0.02
2020-08-12 20:5:34.1550,-0.03,0.0,0.01
2020-08-12 20:5:34.2550,-0.06,-0.01,0.01
2020-08-12 20:5:34.3540,-0.13,-0.12,-0.01
2020-08-12 20:5:34.4530,-0.5,-0.5,-0.21
2020-08-12 20:5:34.5520,0.26,-0.37,0.03
2020-08-12 20:5:34.6510,-0.92,0.23,0.03
2020-08-12 20:5:34.7500,-0.27,-0.27,-0.11
2020-08-12 20:5:34.8490,0.08,-0.41,-0.01
2020-08-12 20:5:34.9490,0.48,-0.1,0.05
2020-08-12 20:5:35.0490,0.63,0.03,0.13
2020-08-12 20:5:35.1480,0.65,0.06,0.09
2020-08-12 20:5:35.2470,1.22,-0.13,-0.25
2020-08-12 20:5:35.3450,-0.06,0.02,-0.05
2020-08-12 20:5:35.4460,-0.08,0.03,0.06
2020-08-12 20:5:35.5450,0.02,-0.03,0.0
2020-08-12 20:5:35.6440,-0.1,0.03,0.08
2020-08-12 20:5:35.7420,-0.07,0.04,0.04
2020-08-12 20:5:35.8410,0.03,-0.01,-0.07
2020-08-12 20:5:35.9410,-0.02,-0.0,-0.02
2020-08-12 20:5:36.0410,-0.01,-0.0,-0.01
2020-08-12 20:5:36.1400,-0.0,0.01,-0.01
2020-08-12 20:5:36.2400,-0.04,0.01,0.01
2020-08-12 20:5:36.3390,-0.0,-0.02,-0.01
2020-08-12 20:5:36.4370,-0.24,-0.28,0.05
2020-08-12 20:5:36.5360,-0.68,-0.34,0.08
2020-08-12 20:5:36.6360,-1.0,0.08,-0.04
2020-08-12 20:5:36.7360,-0.66,0.01,-0.08
2020-08-12 20:5:36.8350,0.02,-0.36,-0.06
2020-08-12 20:5:36.9330,0.49,-0.22,-0.03
2020-08-12 20:5:37.0320,0.75,0.03,0.06
2020-08-12 20:5:37.1330,0.89,-0.01,0.11
2020-08-12 20:5:37.2310,1.26,-0.22,-0.57
2020-08-12 20:5:37.3320,-0.22,0.08,0.05
2020-08-12 20:5:37.4300,-0.06,0.02,0.04
2020-08-12 20:5:37.5300,-0.04,-0.01,-0.05
2020-08-12 20:5:37.6280,-0.04,0.03,0.02
2020-08-12 20:5:37.7290,0.05,-0.03,-0.07
2020-08-12 20:5:37.8270,0.07,-0.02,-0.06
2020-08-12 20:5:37.9260,-0.02,0.0,-0.01
2020-08-12 20:5:38.0260,-0.0,0.01,0.01
2020-08-12 20:5:38.1240,0.0,0.0,-0.0
2020-08-12 20:5:38.2250,-0.06,0.01,0.05
2020-08-12 20:5:38.3230,0.0,-0.05,-0.03
2020-08-12 20:5:38.4220,-0.3,-0.27,0.0
2020-08-12 20:5:38.5210,-0.5,-0.46,0.07
2020-08-12 20:5:38.6210,-1.19,0.22,-0.01
2020-08-12 20:5:38.7210,-0.69,-0.14,-0.02
2020-08-12 20:5:38.8190,0.04,-0.49,0.02
2020-08-12 20:5:38.9190,0.5,-0.15,0.03
2020-08-12 20:5:39.0180,1.02,0.08,0.14
2020-08-12 20:5:39.1170,0.07,-0.79,-0.06
2020-08-12 20:5:39.2170,1.3,-0.7,0.01
2020-08-12 20:5:39.3170,-0.14,0.07,-0.08
2020-08-12 20:5:39.4150,-0.01,0.01,0.04
2020-08-12 20:5:39.5150,-0.04,-0.02,0.01
2020-08-12 20:5:39.6130,-0.04,0.02,0.04
2020-08-12 20:5:39.7140,0.04,-0.02,-0.04
2020-08-12 20:5:39.8120,0.02,-0.03,-0.03
2020-08-12 20:5:39.9120,-0.06,-0.0,0.07
2020-08-12 20:5:40.0110,-0.01,0.01,0.0
2020-08-12 20:5:40.1090,-0.03,-0.01,0.0
2020-08-12 20:5:40.2100,-0.01,-0.04,0.0
2020-08-12 20:5:40.3090,-0.17,-0.32,0.11
2020-08-12 20:5:40.4070,-0.55,-0.15,0.06
2020-08-12 20:5:40.5070,-0.41,-0.25,0.33
2020-08-12 20:5:40.6060,-0.85,0.13,0.04
2020-08-12 20:5:40.7060,-0.21,-0.35,-0.07
2020-08-12 20:5:40.8040,0.23,-0.37,0.01
2020-08-12 20:5:40.9030,0.6,-0.16,0.16
2020-08-12 20:5:41.0040,0.88,0.03,0.09
2020-08-12 20:5:41.1020,-0.88,-0.72,0.26
2020-08-12 20:5:41.2010,0.12,-0.12,0.42
2020-08-12 20:5:41.3000,0.12,0.01,-0.01
2020-08-12 20:5:41.4000,-0.02,0.02,0.03
2020-08-12 20:5:41.4990,-0.05,0.05,0.09
2020-08-12 20:5:41.5980,0.0,-0.04,-0.03
2020-08-12 20:5:41.6970,0.02,-0.0,-0.02
2020-08-12 20:5:41.7970,-0.0,0.0,0.01
2020-08-12 20:5:41.8960,-0.04,0.01,-0.01
2020-08-12 20:5:41.9950,-0.05,0.0,0.03
2020-08-12 20:5:42.0960,-0.04,-0.01,0.01
2020-08-12 20:5:42.1940,-0.15,-0.12,-0.04
2020-08-12 20:5:42.2930,-0.58,-0.46,-0.01
2020-08-12 20:5:42.3920,0.33,-0.31,0.06
2020-08-12 20:5:42.4920,-0.95,0.16,-0.01
2020-08-12 20:5:42.5910,-0.28,-0.32,-0.12
2020-08-12 20:5:42.6900,0.24,-0.49,0.02
2020-08-12 20:5:42.7890,0.98,-0.08,0.19
2020-08-12 20:5:42.8890,1.03,0.07,0.24
2020-08-12 20:5:42.9880,0.86,-0.18,-0.51
2020-08-12 20:5:43.0870,0.26,-0.07,-0.2
2020-08-12 20:5:43.1860,-0.11,0.05,0.1
2020-08-12 20:5:43.2860,-0.02,-0.0,-0.03
2020-08-12 20:5:43.3850,-0.04,0.01,0.05
2020-08-12 20:5:43.4840,-0.04,0.0,-0.0
2020-08-12 20:5:43.5830,-0.02,0.0,-0.01
2020-08-12 20:5:43.6830,-0.06,-0.0,0.02
2020-08-12 20:5:43.7820,-0.04,-0.0,0.01
2020-08-12 20:5:43.8810,-0.09,0.01,0.02
2020-08-12 20:5:43.9800,-0.02,-0.04,-0.01
2020-08-12 20:5:44.0790,-0.08,-0.11,-0.02
2020-08-12 20:5:44.1790,-0.68,-0.59,-0.03
2020-08-12 20:5:44.2780,0.31,-0.42,0.03
2020-08-12 20:5:44.3770,-0.98,0.18,0.03
2020-08-12 20:5:44.4770,0.06,-0.44,-0.23
2020-08-12 20:5:44.5760,0.34,-0.28,-0.11
2020-08-12 20:5:44.6750,0.87,-0.13,0.18
2020-08-12 20:5:44.7740,1.02,0.08,0.23
2020-08-12 20:5:44.8740,0.77,-0.08,-0.24
2020-08-12 20:5:44.9730,-0.07,0.01,-0.08
2020-08-12 20:5:45.0720,-0.06,0.0,0.03
2020-08-12 20:5:45.1710,0.06,-0.01,-0.05
2020-08-12 20:5:45.2710,0.03,0.03,0.03
2020-08-12 20:5:45.3700,0.01,-0.04,-0.0
2020-08-12 20:5:45.4690,0.02,0.03,0.03
2020-08-12 20:5:45.5680,-0.01,0.01,0.01
2020-08-12 20:5:45.6680,-0.03,-0.01,-0.02
2020-08-12 20:5:45.7670,-0.06,0.02,0.02
2020-08-12 20:5:45.8660,-0.04,0.0,-0.01
2020-08-12 20:5:45.9650,-0.06,-0.02,-0.0
2020-08-12 20:5:46.0650,-0.14,-0.06,-0.01
2020-08-12 20:5:46.1640,-0.59,-0.78,0.1
2020-08-12 20:5:46.2630,0.14,-0.34,-0.05
2020-08-12 20:5:46.3620,-1.09,0.28,0.01
2020-08-12 20:5:46.4620,-0.17,-0.43,-0.17
2020-08-12 20:5:46.5610,0.22,-0.35,0.07
2020-08-12 20:5:46.6600,0.62,-0.18,0.24
2020-08-12 20:5:46.7590,0.96,0.06,0.13
2020-08-12 20:5:46.8590,-0.18,-1.15,0.76
2020-08-12 20:5:46.9580,0.35,-0.25,0.31
2020-08-12 20:5:47.0570,0.08,0.01,0.0
2020-08-12 20:5:47.1560,0.0,0.01,0.01
2020-08-12 20:5:47.2550,-0.03,0.01,0.01
2020-08-12 20:5:47.3550,-0.05,0.04,0.04
2020-08-12 20:5:47.4540,-0.0,-0.0,-0.06
2020-08-12 20:5:47.5530,-0.0,-0.02,-0.03
2020-08-12 20:5:47.6530,-0.02,0.0,-0.0
2020-08-12 20:5:47.7520,-0.05,0.01,0.02
2020-08-12 20:5:47.8510,-0.04,-0.02,0.01
2020-08-12 20:5:47.9500,-0.01,-0.05,0.0
2020-08-12 20:5:48.0500,-0.08,-0.14,-0.06
2020-08-12 20:5:48.1490,-0.69,-0.55,0.03
2020-08-12 20:5:48.2480,-0.19,-0.21,0.13
2020-08-12 20:5:48.3470,-0.9,0.08,0.02
2020-08-12 20:5:48.4470,0.12,-0.52,-0.04
2020-08-12 20:5:48.5460,0.4,-0.35,0.06
2020-08-12 20:5:48.6450,0.78,-0.08,0.22
2020-08-12 20:5:48.7440,0.96,0.03,0.24
2020-08-12 20:5:48.8440,0.78,-0.09,-0.33
2020-08-12 20:5:48.9430,0.02,0.02,-0.09
2020-08-12 20:5:49.0420,-0.12,0.02,0.05
2020-08-12 20:5:49.1410,0.16,-0.09,-0.12
2020-08-12 20:5:49.2410,0.01,0.02,0.02
2020-08-12 20:5:49.3400,-0.01,-0.01,0.02
2020-08-12 20:5:49.4390,0.05,-0.01,-0.05
2020-08-12 20:5:49.5390,-0.09,0.03,0.03
2020-08-12 20:5:49.6380,-0.04,0.02,0.02
2020-08-12 20:5:49.7370,-0.05,0.01,-0.02
2020-08-12 20:5:49.8360,-0.07,-0.01,0.02
2020-08-12 20:5:49.9350,-0.04,-0.01,0.04
2020-08-12 20:5:50.0350,-0.06,-0.07,0.0
2020-08-12 20:5:50.1340,-0.43,-0.48,-0.08
2020-08-12 20:5:50.2330,-0.03,-0.36,0.32
2020-08-12 20:5:50.3320,-1.07,0.07,-0.07
2020-08-12 20:5:50.4320,-0.11,-0.43,-0.11
2020-08-12 20:5:50.5310,0.36,-0.32,-0.02
2020-08-12 20:5:50.6300,0.97,-0.12,0.19
2020-08-12 20:5:50.7300,1.14,0.04,0.3
2020-08-12 20:5:50.8290,0.95,-0.33,-0.45
2020-08-12 20:5:50.9280,0.4,-0.1,-0.07
2020-08-12 20:5:51.0270,-0.07,0.04,0.1
2020-08-12 20:5:51.1270,-0.02,-0.02,-0.03
2020-08-12 20:5:51.2260,-0.08,0.03,0.08
2020-08-12 20:5:51.3250,-0.03,0.03,0.05
2020-08-12 20:5:51.4240,0.1,-0.05,-0.15
2020-08-12 20:5:51.5240,0.01,-0.03,0.0
2020-08-12 20:5:51.6230,-0.02,0.02,-0.02
2020-08-12 20:5:51.7220,-0.06,-0.0,0.01
2020-08-12 20:5:51.8210,-0.04,-0.01,0.02
2020-08-12 20:5:51.9210,-0.07,-0.04,0.01
2020-08-12 20:5:52.0200,-0.24,-0.16,-0.04
2020-08-12 20:5:52.1190,-0.94,-0.45,0.03
2020-08-12 20:5:52.2180,-0.91,0.05,-0.16
2020-08-12 20:5:52.3180,-0.75,0.02,-0.11
2020-08-12 20:5:52.4170,0.19,-0.6,-0.08
2020-08-12 20:5:52.5160,0.59,-0.31,0.09
2020-08-12 20:5:52.6150,1.03,-0.02,0.22
2020-08-12 20:5:52.7150,-1.43,-0.32,-0.65
2020-08-12 20:5:52.8140,0.25,0.02,0.24
2020-08-12 20:5:52.9130,-0.23,0.0,0.05
2020-08-12 20:5:53.0120,-0.03,0.03,0.0
2020-08-12 20:5:53.1120,0.09,-0.04,-0.04
2020-08-12 20:5:53.2110,-0.01,-0.02,-0.05
2020-08-12 20:5:53.3100,0.0,-0.0,-0.01
2020-08-12 20:5:53.4090,-0.05,0.02,0.01
2020-08-12 20:5:53.5090,-0.03,0.02,-0.0
2020-08-12 20:5:53.6080,-0.07,0.01,0.02
2020-08-12 20:5:53.7070,-0.0,-0.02,-0.04
2020-08-12 20:5:53.8060,-0.06,-0.03,0.02
2020-08-12 20:5:53.9060,-0.18,-0.25,0.0
2020-08-12 20:5:54.0050,-0.61,-0.45,-0.03
2020-08-12 20:5:54.1040,-0.01,-0.16,0.14
2020-08-12 20:5:54.2030,-0.91,0.09,-0.08
2020-08-12 20:5:54.3030,-0.13,-0.38,-0.2
2020-08-12 20:5:54.4020,0.33,-0.39,0.04
2020-08-12 20:5:54.5010,0.86,-0.12,0.21
2020-08-12 20:5:54.6000,1.03,0.09,0.3
2020-08-12 20:5:54.7000,0.81,-0.25,-0.16
2020-08-12 20:5:54.7990,0.24,-0.02,-0.14
2020-08-12 20:5:54.8980,-0.08,0.02,0.07
2020-08-12 20:5:54.9980,-0.06,0.02,0.02
2020-08-12 20:5:55.0970,0.01,0.01,-0.02
2020-08-12 20:5:55.1960,-0.02,0.0,-0.0
2020-08-12 20:5:55.2950,-0.03,0.01,0.01
2020-08-12 20:5:55.3940,-0.03,-0.01,0.03
2020-08-12 20:5:55.4940,-0.01,0.01,0.03
2020-08-12 20:5:55.5930,-0.02,0.01,0.01
2020-08-12 20:5:55.6920,-0.03,-0.01,0.0
2020-08-12 20:5:55.7920,-0.07,-0.08,0.02
2020-08-12 20:5:55.8910,-0.42,-0.53,0.02
2020-08-12 20:5:55.9900,-0.47,-0.25,0.18
2020-08-12 20:5:56.0890,-1.2,0.45,0.11
2020-08-12 20:5:56.1880,-0.37,-0.19,-0.11
2020-08-12 20:5:56.2880,0.21,-0.41,-0.02
2020-08-12 20:5:56.3870,0.77,-0.21,0.13
2020-08-12 20:5:56.4860,0.72,0.01,0.13
2020-08-12 20:5:56.5860,-0.35,-0.45,-0.53
2020-08-12 20:5:56.6850,0.59,-0.0,0.13
2020-08-12 20:5:56.7840,-0.17,0.03,-0.13
2020-08-12 20:5:56.8830,-0.08,0.05,0.02
2020-08-12 20:5:56.9830,-0.03,0.01,0.04
2020-08-12 20:5:57.0820,-0.05,0.02,-0.01
2020-08-12 20:5:57.1810,0.03,-0.01,-0.01
2020-08-12 20:5:57.2800,-0.04,0.02,0.01
2020-08-12 20:5:57.3800,-0.03,-0.0,-0.01
2020-08-12 20:5:57.4790,-0.03,0.0,0.0
2020-08-12 20:5:57.5780,-0.01,-0.02,0.01
2020-08-12 20:5:57.6770,-0.03,-0.08,-0.02
2020-08-12 20:5:57.7760,-0.37,-0.55,0.06
2020-08-12 20:5:57.8760,-0.47,-0.21,0.49
2020-08-12 20:5:57.9750,-1.36,0.31,0.07
2020-08-12 20:5:58.0740,-0.45,-0.32,-0.09
2020-08-12 20:5:58.1740,0.29,-0.48,0.05
2020-08-12 20:5:58.2730,1.01,-0.18,0.19
2020-08-12 20:5:58.3720,1.46,0.05,0.34
2020-08-12 20:5:58.4710,0.63,-0.4,-0.23
2020-08-12 20:5:58.5710,0.27,-0.05,0.0
2020-08-12 20:5:58.6700,-0.02,0.05,0.11
2020-08-12 20:5:58.7690,-0.0,0.0,-0.04
2020-08-12 20:5:58.8680,-0.03,0.01,0.03
2020-08-12 20:5:58.9680,0.02,0.0,-0.01
2020-08-12 20:5:59.0670,-0.02,0.01,0.02
2020-08-12 20:5:59.1660,-0.03,0.0,0.01
2020-08-12 20:5:59.2650,-0.02,-0.01,-0.0
2020-08-12 20:5:59.3650,-0.07,0.01,-0.01
2020-08-12 20:5:59.4640,-0.07,-0.0,0.02
2020-08-12 20:5:59.5630,-0.09,-0.04,0.01
2020-08-12 20:5:59.6620,-0.33,-0.39,-0.0
2020-08-12 20:5:59.7610,-0.86,-0.32,0.15
2020-08-12 20:5:59.8610,-1.42,0.36,-0.04
2020-08-12 20:5:59.9600,-0.75,-0.11,-0.02
2020-08-12 20:6:00.0590,0.04,-0.46,-0.08
2020-08-12 20:6:00.1590,0.63,-0.25,0.16
2020-08-12 20:6:00.2580,0.96,-0.01,0.2
2020-08-12 20:6:00.3570,-1.44,-0.6,-1.1
2020-08-12 20:6:00.4560,0.56,-0.1,0.26
2020-08-12 20:6:00.5550,-0.22,0.02,-0.07
2020-08-12 20:6:00.6550,-0.07,0.04,-0.01
2020-08-12 20:6:00.7540,-0.04,0.01,0.04
2020-08-12 20:6:00.8530,0.01,-0.01,-0.01
2020-08-12 20:6:00.9530,-0.04,0.0,-0.06
2020-08-12 20:6:01.0520,-0.09,0.01,0.05
2020-08-12 20:6:01.1510,-0.03,0.01,0.0
2020-08-12 20:6:01.2500,-0.03,0.0,-0.01
2020-08-12 20:6:01.3500,-0.04,-0.02,0.01
2020-08-12 20:6:01.4490,-0.04,-0.05,-0.04
2020-08-12 20:6:01.5480,-0.3,-0.49,0.02
2020-08-12 20:6:01.6470,-0.15,-0.22,0.39
2020-08-12 20:6:01.7470,-1.1,0.3,0.03
2020-08-12 20:6:01.8460,-0.43,-0.26,-0.05
2020-08-12 20:6:01.9450,0.13,-0.41,-0.01
2020-08-12 20:6:02.0440,0.64,-0.16,0.08
2020-08-12 20:6:02.1440,0.88,0.04,0.15
2020-08-12 20:6:02.2430,0.96,-0.05,0.08
2020-08-12 20:6:02.3420,1.3,-0.18,-0.25
2020-08-12 20:6:02.4420,0.09,0.03,-0.23
2020-08-12 20:6:02.5410,-0.05,0.04,0.03
2020-08-12 20:6:02.6400,-0.04,0.0,0.05
2020-08-12 20:6:02.7390,0.1,-0.01,-0.04
2020-08-12 20:6:02.8380,0.04,-0.01,-0.04
2020-08-12 20:6:02.9380,-0.02,0.0,0.01
2020-08-12 20:6:03.0370,-0.05,-0.01,-0.01
2020-08-12 20:6:03.1360,-0.02,0.01,-0.01
2020-08-12 20:6:03.2350,-0.05,0.04,0.04
2020-08-12 20:6:03.3350,0.02,0.03,0.0
2020-08-12 20:6:03.4340,0.09,0.02,0.05
2020-08-12 20:6:03.5330,-0.1,-0.06,-0.05
2020-08-12 20:6:03.6330,-0.26,-0.39,0.02
2020-08-12 20:6:03.7320,-0.45,-0.3,0.18
2020-08-12 20:6:03.8310,-1.44,0.25,0.08
2020-08-12 20:6:03.9300,-0.56,-0.14,-0.03
2020-08-12 20:6:04.0300,0.07,-0.34,0.03
2020-08-12 20:6:04.1290,0.27,-0.24,0.0
2020-08-12 20:6:04.2280,0.94,-0.11,0.17
2020-08-12 20:6:04.3270,0.85,0.06,0.08
2020-08-12 20:6:04.4270,0.23,-0.83,0.12
2020-08-12 20:6:04.5260,0.37,-0.25,0.28
2020-08-12 20:6:04.6250,-0.01,0.03,0.04
2020-08-12 20:6:04.7240,-0.07,0.04,0.01
2020-08-12 20:6:04.8240,0.04,0.02,-0.05
2020-08-12 20:6:04.9230,0.01,-0.0,-0.0
2020-08-12 20:6:05.0220,-0.01,-0.01,-0.02
2020-08-12 20:6:05.1220,-0.01,-0.01,0.01
2020-08-12 20:6:05.2210,-0.01,-0.0,0.03
2020-08-12 20:6:05.3200,-0.0,0.02,-0.0
2020-08-12 20:6:05.4190,-0.03,0.01,-0.02
2020-08-12 20:6:05.5180,-0.09,-0.02,0.01
2020-08-12 20:6:05.6180,-0.33,-0.46,0.04
2020-08-12 20:6:05.7170,-0.74,-0.28,0.21
2020-08-12 20:6:05.8160,-1.34,0.46,0.14
2020-08-12 20:6:05.9150,-0.63,-0.24,-0.03
2020-08-12 20:6:06.0150,0.2,-0.46,-0.01
2020-08-12 20:6:06.1140,0.47,-0.27,-0.03
2020-08-12 20:6:06.2130,0.99,-0.06,0.17
2020-08-12 20:6:06.3120,0.55,-0.22,0.03
2020-08-12 20:6:06.4120,1.0,-0.01,-0.11
2020-08-12 20:6:06.5110,-0.17,-0.01,-0.14
2020-08-12 20:6:06.6100,0.0,0.0,-0.01
2020-08-12 20:6:06.7090,-0.01,-0.0,-0.01
2020-08-12 20:6:06.8090,-0.02,-0.01,-0.03
2020-08-12 20:6:06.9080,-0.02,-0.0,0.02
2020-08-12 20:6:07.0070,-0.01,-0.01,-0.05
2020-08-12 20:6:07.1060,-0.03,0.01,-0.0
2020-08-12 20:6:07.2060,-0.04,0.03,-0.03
2020-08-12 20:6:07.3050,-0.08,-0.06,0.02
2020-08-12 20:6:07.4040,-0.32,-0.28,0.05
2020-08-12 20:6:07.5030,-0.8,-0.38,0.16
2020-08-12 20:6:07.6030,-1.26,0.17,-0.0
2020-08-12 20:6:07.7020,-0.68,-0.05,-0.03
2020-08-12 20:6:07.8010,0.09,-0.47,-0.07
2020-08-12 20:6:07.9010,0.62,-0.31,0.12
2020-08-12 20:6:08.0000,0.99,-0.02,0.15
2020-08-12 20:6:08.0990,-1.81,-0.06,-0.47
2020-08-12 20:6:08.1980,0.27,0.04,0.25
2020-08-12 20:6:08.2970,-0.19,-0.01,-0.02
2020-08-12 20:6:08.3970,-0.11,0.04,0.01
2020-08-12 20:6:08.4960,-0.05,0.01,-0.01
2020-08-12 20:6:08.5950,-0.06,0.03,0.01
2020-08-12 20:6:08.6950,-0.08,0.03,0.07
2020-08-12 20:6:08.7940,-0.04,0.02,0.02
2020-08-12 20:6:08.8930,-0.06,-0.01,-0.0
2020-08-12 20:6:08.9920,-0.07,0.0,0.02
2020-08-12 20:6:09.0920,-0.07,0.01,0.02
2020-08-12 20:6:09.1910,-0.15,-0.3,0.02
2020-08-12 20:6:09.2900,-0.69,-0.19,0.01
2020-08-12 20:6:09.3890,-0.61,-0.14,0.1
2020-08-12 20:6:09.4880,-0.75,-0.01,0.0
2020-08-12 20:6:09.5880,-0.03,-0.31,-0.05
2020-08-12 20:6:09.6870,0.24,-0.32,-0.04
2020-08-12 20:6:09.7860,0.64,-0.12,0.13
2020-08-12 20:6:09.8860,0.85,0.07,0.19
2020-08-12 20:6:09.9850,-1.91,0.03,0.12
2020-08-12 20:6:10.0840,0.02,-0.03,0.43
2020-08-12 20:6:10.1830,-0.16,0.03,-0.02
2020-08-12 20:6:10.2830,-0.12,0.02,0.01
2020-08-12 20:6:10.3820,-0.05,0.03,0.03
2020-08-12 20:6:10.4810,-0.03,0.02,0.02
2020-08-12 20:6:10.5800,-0.13,0.04,0.06
2020-08-12 20:6:10.6800,-0.02,-0.01,-0.02
2020-08-12 20:6:10.7790,-0.03,0.02,0.01
2020-08-12 20:6:10.8780,-0.06,-0.01,-0.02
2020-08-12 20:6:10.9770,-0.04,-0.02,-0.03
2020-08-12 20:6:11.0770,-0.18,-0.07,-0.0
2020-08-12 20:6:11.1760,-0.52,-0.43,-0.07
2020-08-12 20:6:11.2750,-0.27,-0.14,0.11
2020-08-12 20:6:11.3750,-0.77,0.12,-0.01
2020-08-12 20:6:11.4740,-0.19,-0.22,-0.09
2020-08-12 20:6:11.5730,0.0,-0.31,-0.01
2020-08-12 20:6:11.6720,0.4,-0.17,0.07
2020-08-12 20:6:11.7710,0.75,0.02,0.14
2020-08-12 20:6:11.8710,1.0,0.09,0.29
2020-08-12 20:6:11.9700,0.65,-0.13,-0.67
2020-08-12 20:6:12.0690,0.31,0.04,0.06
2020-08-12 20:6:12.1680,0.16,-0.01,0.07
2020-08-12 20:6:12.2680,0.02,0.01,-0.03
2020-08-12 20:6:12.3670,-0.2,0.11,0.14
2020-08-12 20:6:12.4660,-0.05,-0.03,-0.02
2020-08-12 20:6:12.5650,-0.13,0.04,0.03
2020-08-12 20:6:12.6650,-0.05,-0.0,-0.01
2020-08-12 20:6:12.7640,-0.05,-0.0,0.01
2020-08-12 20:6:12.8640,-0.04,0.0,-0.0
2020-08-12 20:6:12.9620,-0.11,-0.02,0.03
2020-08-12 20:6:13.0620,-0.41,-0.45,-0.06
2020-08-12 20:6:13.1610,-0.35,-0.18,0.3
2020-08-12 20:6:13.2610,-1.23,0.39,-0.05
2020-08-12 20:6:13.3590,-0.17,-0.45,-0.18
2020-08-12 20:6:13.4590,0.21,-0.31,-0.01
2020-08-12 20:6:13.5580,0.59,-0.15,0.1
2020-08-12 20:6:13.6570,0.93,0.1,0.13
2020-08-12 20:6:13.7560,-2.04,-0.12,0.07
2020-08-12 20:6:13.8560,0.02,-0.1,0.2
2020-08-12 20:6:13.9550,-0.15,0.05,-0.04
2020-08-12 20:6:14.0540,-0.03,-0.03,0.01
2020-08-12 20:6:14.1530,0.01,-0.0,0.01
2020-08-12 20:6:14.2530,-0.01,-0.01,-0.0
2020-08-12 20:6:14.3520,0.02,-0.03,-0.05
2020-08-12 20:6:14.4510,-0.02,0.01,0.01
2020-08-12 20:6:14.5500,0.01,-0.01,-0.03
2020-08-12 20:6:14.6500,0.01,0.0,-0.0
2020-08-12 20:6:14.7490,-0.09,-0.06,-0.03
2020-08-12 20:6:14.8480,-0.43,-0.33,-0.06
2020-08-12 20:6:14.9490,-0.04,-0.26,0.25
2020-08-12 20:6:15.0470,-0.98,0.17,0.01
2020-08-12 20:6:15.1460,-0.39,-0.21,-0.09
2020-08-12 20:6:15.2450,0.13,-0.4,0.03
2020-08-12 20:6:15.3450,0.43,-0.15,0.09
2020-08-12 20:6:15.4440,0.84,-0.05,0.09
2020-08-12 20:6:15.5430,0.79,-0.22,0.14
2020-08-12 20:6:15.6420,1.14,-0.27,-0.22
2020-08-12 20:6:15.7410,-0.03,0.08,-0.24
2020-08-12 20:6:15.8410,0.05,0.02,0.0
2020-08-12 20:6:15.9400,0.05,-0.0,-0.01
2020-08-12 20:6:16.0390,0.0,-0.02,-0.0
2020-08-12 20:6:16.1390,-0.02,0.0,-0.01
2020-08-12 20:6:16.2380,-0.02,0.0,-0.02
2020-08-12 20:6:16.3370,-0.05,0.02,0.01
2020-08-12 20:6:16.4350,-0.05,0.03,-0.01
2020-08-12 20:6:16.5430,-0.1,0.02,-0.0
2020-08-12 20:6:16.6350,-0.2,-0.16,0.08
2020-08-12 20:6:16.7340,-0.43,-0.2,-0.1
2020-08-12 20:6:16.8340,-0.11,-0.35,0.36
2020-08-12 20:6:16.9320,-1.13,0.13,0.06
2020-08-12 20:6:17.0320,-0.31,-0.32,-0.07
2020-08-12 20:6:17.1310,0.2,-0.44,0.03
2020-08-12 20:6:17.2300,0.7,-0.14,0.2
2020-08-12 20:6:17.3300,0.88,0.03,0.07
2020-08-12 20:6:17.4290,-1.75,-0.27,-0.4
2020-08-12 20:6:17.5280,0.45,-0.23,0.38
2020-08-12 20:6:17.6270,-0.3,0.04,-0.04
2020-08-12 20:6:17.7270,0.05,-0.02,-0.0
2020-08-12 20:6:17.8260,0.01,-0.0,0.01
2020-08-12 20:6:17.9250,0.0,0.02,-0.01
2020-08-12 20:6:18.0240,-0.03,0.01,0.03
2020-08-12 20:6:18.1230,-0.09,0.04,0.03
2020-08-12 20:6:18.2230,-0.09,0.02,0.01
2020-08-12 20:6:18.3220,-0.1,0.01,0.01
2020-08-12 20:6:18.4210,-0.08,0.0,0.01
2020-08-12 20:6:18.5210,-0.15,-0.05,-0.01
2020-08-12 20:6:18.6200,-0.31,-0.3,-0.06
2020-08-12 20:6:18.7190,-0.04,-0.27,0.24
2020-08-12 20:6:18.8180,-0.98,0.19,-0.02
2020-08-12 20:6:18.9180,-0.45,-0.17,-0.14
2020-08-12 20:6:19.0170,0.06,-0.36,0.01
2020-08-12 20:6:19.1160,0.52,-0.18,0.09
2020-08-12 20:6:19.2150,0.71,0.05,0.1
2020-08-12 20:6:19.3150,0.91,0.01,0.19
2020-08-12 20:6:19.4140,0.72,-0.4,-0.23
2020-08-12 20:6:19.5130,0.25,-0.01,-0.07
2020-08-12 20:6:19.6120,0.06,0.02,0.08
2020-08-12 20:6:19.7120,0.05,-0.02,-0.08
2020-08-12 20:6:19.8110,0.0,-0.02,-0.0
2020-08-12 20:6:19.9100,-0.02,-0.01,0.03
2020-08-12 20:6:20.0100,0.0,-0.02,-0.0
2020-08-12 20:6:20.1090,-0.02,0.02,-0.02
2020-08-12 20:6:20.2080,-0.02,0.01,-0.01
2020-08-12 20:6:20.3070,0.0,-0.01,-0.02
2020-08-12 20:6:20.4060,-0.06,-0.03,-0.03
2020-08-12 20:6:20.5060,-0.14,-0.46,-0.01
2020-08-12 20:6:20.6050,-0.52,-0.21,0.1
2020-08-12 20:6:20.7040,-1.4,0.27,0.07
2020-08-12 20:6:20.8030,-0.7,-0.07,-0.05
2020-08-12 20:6:20.9030,0.05,-0.45,-0.04
2020-08-12 20:6:21.0020,0.5,-0.23,-0.03
2020-08-12 20:6:21.1010,0.81,-0.08,0.1
2020-08-12 20:6:21.2000,0.98,0.06,0.36
2020-08-12 20:6:21.3000,0.37,-0.62,-0.28
2020-08-12 20:6:21.4000,0.13,-0.09,0.06
2020-08-12 20:6:21.4980,-0.05,0.06,0.11
2020-08-12 20:6:21.5970,-0.02,-0.01,-0.07
2020-08-12 20:6:21.6970,-0.08,0.0,0.04
2020-08-12 20:6:21.7960,0.0,0.0,0.0
2020-08-12 20:6:21.8950,-0.02,0.0,-0.01
2020-08-12 20:6:21.9950,-0.04,0.0,0.02
2020-08-12 20:6:22.0940,-0.0,0.01,-0.0
2020-08-12 20:6:22.1930,-0.04,-0.01,-0.0
2020-08-12 20:6:22.2920,-0.31,-0.18,0.1
2020-08-12 20:6:22.3920,-0.49,-0.26,0.11
2020-08-12 20:6:22.4910,-0.85,0.16,-0.03
2020-08-12 20:6:22.5900,-0.66,0.02,-0.12
2020-08-12 20:6:22.6900,-0.16,-0.24,-0.06
2020-08-12 20:6:22.7890,0.02,-0.2,-0.03
2020-08-12 20:6:22.8880,0.2,-0.14,0.08
2020-08-12 20:6:22.9870,0.82,-0.01,0.08
2020-08-12 20:6:23.0860,0.68,-0.27,0.17
2020-08-12 20:6:23.1860,1.01,-0.21,-0.27
2020-08-12 20:6:23.2850,0.07,-0.03,-0.1
2020-08-12 20:6:23.3840,-0.1,0.07,0.08
2020-08-12 20:6:23.4830,0.13,-0.07,-0.11
2020-08-12 20:6:23.5830,-0.03,0.01,0.02
2020-08-12 20:6:23.6820,-0.05,0.03,0.02
2020-08-12 20:6:23.7810,-0.03,0.0,0.01
2020-08-12 20:6:23.8800,0.08,-0.01,-0.07
2020-08-12 20:6:23.9800,0.01,0.01,0.02
2020-08-12 20:6:24.0790,0.03,-0.02,-0.02
2020-08-12 20:6:24.1780,-0.03,0.01,-0.02
2020-08-12 20:6:24.2780,-0.09,-0.14,0.06
2020-08-12 20:6:24.3770,-0.23,-0.13,-0.11
2020-08-12 20:6:24.4760,-0.44,-0.37,0.42
2020-08-12 20:6:24.5750,-1.41,0.21,-0.01
2020-08-12 20:6:24.6740,-0.56,-0.22,-0.12
2020-08-12 20:6:24.7740,0.18,-0.46,0.02
2020-08-12 20:6:24.8730,0.66,-0.21,0.15
2020-08-12 20:6:24.9720,1.09,-0.01,0.11
2020-08-12 20:6:25.0710,-1.94,0.01,-0.06
2020-08-12 20:6:25.1710,0.33,-0.11,0.03
2020-08-12 20:6:25.2700,-0.17,0.1,-0.01
2020-08-12 20:6:25.3690,0.03,-0.06,-0.02
2020-08-12 20:6:25.4690,0.05,0.01,-0.0
2020-08-12 20:6:25.5680,0.03,-0.01,-0.01
2020-08-12 20:6:25.6670,-0.01,0.01,-0.01
2020-08-12 20:6:25.7660,-0.0,0.0,0.0
2020-08-12 20:6:25.8650,0.02,-0.01,-0.01
2020-08-12 20:6:25.9650,0.04,-0.01,-0.04
2020-08-12 20:6:26.0640,0.01,0.0,-0.05
2020-08-12 20:6:26.1630,-0.05,-0.02,0.02
2020-08-12 20:6:26.2630,-0.2,-0.17,-0.08
2020-08-12 20:6:26.3620,-0.55,-0.35,0.14
2020-08-12 20:6:26.4610,-1.33,0.17,-0.03
2020-08-12 20:6:26.5600,-0.71,-0.01,-0.14
2020-08-12 20:6:26.6600,-0.01,-0.34,-0.06
2020-08-12 20:6:26.7590,0.56,-0.26,0.02
2020-08-12 20:6:26.8580,1.12,0.01,0.25
2020-08-12 20:6:26.9580,-1.32,-0.98,0.97
2020-08-12 20:6:27.0570,-0.01,-0.29,0.33
2020-08-12 20:6:27.1560,-0.06,0.05,0.09
2020-08-12 20:6:27.2550,-0.14,0.07,-0.01
2020-08-12 20:6:27.3540,-0.17,0.04,-0.01
2020-08-12 20:6:27.4540,-0.04,0.0,-0.0
2020-08-12 20:6:27.5530,-0.04,0.02,0.01
2020-08-12 20:6:27.6520,-0.01,-0.0,0.01
2020-08-12 20:6:27.7510,-0.11,0.03,0.05
2020-08-12 20:6:27.8500,-0.12,0.02,0.05
2020-08-12 20:6:27.9500,-0.03,-0.0,-0.01
2020-08-12 20:6:28.0490,-0.15,-0.07,0.0
2020-08-12 20:6:28.1480,-0.42,-0.23,-0.03
2020-08-12 20:6:28.2480,-0.34,-0.29,0.2
2020-08-12 20:6:28.3470,-1.1,0.34,-0.01
2020-08-12 20:6:28.4460,-0.43,-0.19,-0.09
2020-08-12 20:6:28.5450,0.08,-0.36,0.04
2020-08-12 20:6:28.6450,0.4,-0.14,0.11
2020-08-12 20:6:28.7440,0.86,-0.01,0.12
2020-08-12 20:6:28.8430,-1.04,-0.31,-0.52
2020-08-12 20:6:28.9420,0.61,-0.17,-0.09
2020-08-12 20:6:29.0420,-0.02,-0.04,-0.03
2020-08-12 20:6:29.1410,-0.01,0.01,0.01
2020-08-12 20:6:29.2400,-0.05,0.01,0.02
2020-08-12 20:6:29.3390,-0.06,0.01,-0.01
2020-08-12 20:6:29.4390,-0.01,0.03,-0.04
2020-08-12 20:6:29.5380,-0.03,0.01,-0.02
2020-08-12 20:6:29.6370,-0.04,-0.0,0.04
2020-08-12 20:6:29.7370,-0.07,0.01,0.02
2020-08-12 20:6:29.8360,-0.05,0.01,-0.03
2020-08-12 20:6:29.9350,-0.15,-0.11,0.1
2020-08-12 20:6:30.0340,-0.27,-0.1,-0.07
2020-08-12 20:6:30.1330,-0.23,-0.29,0.31
2020-08-12 20:6:30.2330,-0.97,0.17,-0.01
2020-08-12 20:6:30.3320,-0.39,-0.18,-0.05
2020-08-12 20:6:30.4310,-0.1,-0.21,-0.03
2020-08-12 20:6:30.5300,0.33,-0.26,0.02
2020-08-12 20:6:30.6300,0.66,-0.07,0.1
2020-08-12 20:6:30.7290,0.64,0.05,0.2
2020-08-12 20:6:30.8280,-0.58,-0.96,0.49
2020-08-12 20:6:30.9280,0.25,-0.05,0.05
2020-08-12 20:6:31.0270,0.14,0.01,-0.02
2020-08-12 20:6:31.1260,0.12,-0.07,-0.09
2020-08-12 20:6:31.2250,0.03,-0.01,0.05
2020-08-12 20:6:31.3240,-0.01,0.01,0.02
2020-08-12 20:6:31.4240,-0.03,0.0,-0.0
2020-08-12 20:6:31.5230,-0.03,0.01,0.01
2020-08-12 20:6:31.6220,0.03,0.02,-0.02
2020-08-12 20:6:31.7220,-0.0,0.0,0.02
2020-08-12 20:6:31.8210,-0.04,0.0,0.01
2020-08-12 20:6:31.9200,-0.02,-0.03,-0.01
2020-08-12 20:6:32.0190,-0.18,-0.29,-0.02
2020-08-12 20:6:32.1180,-0.49,-0.4,0.11
2020-08-12 20:6:32.2180,-1.18,0.14,0.03
2020-08-12 20:6:32.3170,-0.59,0.01,-0.11
2020-08-12 20:6:32.4160,-0.06,-0.35,-0.05
2020-08-12 20:6:32.5150,0.38,-0.26,0.01
2020-08-12 20:6:32.6150,0.69,0.0,0.21
2020-08-12 20:6:32.7140,0.97,-0.01,0.21
2020-08-12 20:6:32.8130,0.65,-0.47,-0.4
2020-08-12 20:6:32.9130,0.24,-0.28,0.22
2020-08-12 20:6:33.0120,0.03,-0.01,-0.05
2020-08-12 20:6:33.1110,-0.05,0.04,0.04
2020-08-12 20:6:33.2100,-0.15,0.13,0.16
2020-08-12 20:6:33.3100,-0.09,0.01,-0.01
2020-08-12 20:6:33.4090,-0.01,-0.0,-0.03
2020-08-12 20:6:33.5080,-0.06,-0.0,0.03
2020-08-12 20:6:33.6080,-0.02,-0.0,0.0
2020-08-12 20:6:33.7070,0.02,0.0,-0.01
2020-08-12 20:6:33.8060,-0.02,-0.02,-0.01
2020-08-12 20:6:33.9050,-0.2,-0.17,-0.04
2020-08-12 20:6:34.0040,-0.77,-0.52,-0.04
2020-08-12 20:6:34.1040,-0.85,-0.01,-0.02
2020-08-12 20:6:34.2030,-0.74,-0.05,-0.1
2020-08-12 20:6:34.3020,0.01,-0.46,-0.15
2020-08-12 20:6:34.4010,0.5,-0.34,0.1
2020-08-12 20:6:34.5010,0.96,0.01,0.21
2020-08-12 20:6:34.6000,-0.39,-0.59,-0.42
2020-08-12 20:6:34.6990,0.69,-0.16,0.16
2020-08-12 20:6:34.7980,-0.32,0.07,-0.03
2020-08-12 20:6:34.8980,-0.03,0.01,-0.01
2020-08-12 20:6:34.9970,-0.01,0.02,0.0
2020-08-12 20:6:35.0960,-0.03,0.0,-0.0
2020-08-12 20:6:35.1950,0.03,-0.01,-0.02
2020-08-12 20:6:35.2950,0.01,-0.01,-0.0
2020-08-12 20:6:35.3940,-0.08,0.0,-0.01
2020-08-12 20:6:35.4930,-0.04,0.01,-0.03
2020-08-12 20:6:35.5920,-0.03,-0.01,0.0
2020-08-12 20:6:35.6920,-0.07,-0.01,0.01
2020-08-12 20:6:35.7910,-0.23,-0.2,0.02
2020-08-12 20:6:35.8900,-0.59,-0.42,-0.02
2020-08-12 20:6:35.9890,-0.29,-0.17,0.12
2020-08-12 20:6:36.0890,-0.82,0.12,-0.08
2020-08-12 20:6:36.1880,-0.11,-0.32,-0.12
2020-08-12 20:6:36.2870,0.23,-0.4,0.08
2020-08-12 20:6:36.3860,0.55,-0.08,0.2
2020-08-12 20:6:36.4860,0.65,0.08,0.13
2020-08-12 20:6:36.5850,-1.52,-0.3,-1.08
2020-08-12 20:6:36.6840,0.29,0.06,0.09
2020-08-12 20:6:36.7830,-0.08,0.02,-0.0
2020-08-12 20:6:36.8830,0.06,-0.01,-0.03
2020-08-12 20:6:36.9820,-0.06,-0.0,0.02
2020-08-12 20:6:37.0810,-0.06,0.07,0.04
2020-08-12 20:6:37.1800,0.12,-0.07,-0.1
2020-08-12 20:6:37.2800,0.02,-0.02,-0.03
2020-08-12 20:6:37.3790,-0.03,0.01,-0.02
2020-08-12 20:6:37.4780,-0.04,0.01,0.03
2020-08-12 20:6:37.5770,-0.04,0.0,0.01
2020-08-12 20:6:37.6770,-0.1,-0.04,0.05
2020-08-12 20:6:37.7760,-0.15,-0.42,-0.12
2020-08-12 20:6:37.8750,-0.26,-0.27,0.15
2020-08-12 20:6:37.9750,-1.0,0.25,-0.1
2020-08-12 20:6:38.0740,-0.5,-0.09,-0.14
2020-08-12 20:6:38.1730,-0.06,-0.33,-0.02
2020-08-12 20:6:38.2720,0.31,-0.25,0.07
2020-08-12 20:6:38.3720,0.53,-0.01,0.1
2020-08-12 20:6:38.4710,1.18,0.08,0.26
2020-08-12 20:6:38.5700,0.71,-0.04,-0.2
2020-08-12 20:6:38.6690,0.05,0.03,0.05
2020-08-12 20:6:38.7680,0.04,-0.01,0.01
2020-08-12 20:6:38.8680,-0.0,-0.02,0.0
2020-08-12 20:6:38.9670,0.04,0.02,-0.02
2020-08-12 20:6:39.0660,-0.06,0.03,0.05
2020-08-12 20:6:39.1660,-0.02,0.01,-0.02
2020-08-12 20:6:39.2650,0.01,-0.02,-0.01
2020-08-12 20:6:39.3640,-0.07,-0.02,0.03
2020-08-12 20:6:39.4630,-0.05,0.01,0.01
2020-08-12 20:6:39.5630,-0.09,0.01,0.01
2020-08-12 20:6:39.6620,-0.18,-0.13,0.01
2020-08-12 20:6:39.7610,-0.53,-0.5,0.01
2020-08-12 20:6:39.8600,-0.03,-0.22,0.19
2020-08-12 20:6:39.9600,-0.88,0.13,-0.09
2020-08-12 20:6:40.0590,-0.06,-0.34,-0.11
2020-08-12 20:6:40.1580,0.28,-0.39,0.1
2020-08-12 20:6:40.2570,0.61,-0.05,0.21
2020-08-12 20:6:40.3570,0.82,0.06,0.14
2020-08-12 20:6:40.4560,-0.45,-1.12,0.65
2020-08-12 20:6:40.5550,0.12,-0.09,0.3
2020-08-12 20:6:40.6540,0.24,-0.02,-0.02
2020-08-12 20:6:40.7540,0.07,-0.04,-0.04
2020-08-12 20:6:40.8530,-0.02,0.02,-0.01
2020-08-12 20:6:40.9520,-0.0,0.01,0.01
2020-08-12 20:6:41.0510,-0.01,0.02,0.05
2020-08-12 20:6:41.1510,-0.05,0.01,-0.01
2020-08-12 20:6:41.2500,-0.01,-0.0,-0.01
2020-08-12 20:6:41.3490,-0.05,0.02,0.0
2020-08-12 20:6:41.4480,-0.05,-0.03,-0.02
2020-08-12 20:6:41.5480,-0.4,-0.18,0.15
2020-08-12 20:6:41.6470,-0.43,-0.39,0.22
2020-08-12 20:6:41.7470,-0.9,0.33,-0.16
2020-08-12 20:6:41.8460,-0.55,-0.13,-0.15
2020-08-12 20:6:41.9450,0.03,-0.33,-0.02
2020-08-12 20:6:42.0440,0.22,-0.17,0.08
2020-08-12 20:6:42.1430,0.79,-0.04,0.18
2020-08-12 20:6:42.2420,1.13,-0.02,0.5
2020-08-12 20:6:42.3420,0.71,-0.12,-0.32
2020-08-12 20:6:42.4410,-0.08,-0.1,0.18
2020-08-12 20:6:42.5400,-0.06,-0.0,-0.01
2020-08-12 20:6:42.6390,-0.07,0.03,0.01
2020-08-12 20:6:42.7390,-0.02,-0.0,0.02
2020-08-12 20:6:42.8380,0.01,-0.03,-0.03
2020-08-12 20:6:42.9370,0.15,-0.06,-0.14
2020-08-12 20:6:43.0360,0.06,-0.01,-0.04
2020-08-12 20:6:43.1360,0.05,-0.0,-0.02
2020-08-12 20:6:43.2350,0.03,-0.01,-0.01
2020-08-12 20:6:43.3340,-0.01,-0.02,-0.01
2020-08-12 20:6:43.4340,-0.03,0.0,0.02
2020-08-12 20:6:43.5330,-0.07,0.0,-0.02
2020-08-12 20:6:43.6320,-0.14,-0.16,-0.13
2020-08-12 20:6:43.7310,-0.28,-0.34,0.13
2020-08-12 20:6:43.8310,-1.09,0.06,-0.1
2020-08-12 20:6:43.9300,-0.58,-0.09,-0.08
2020-08-12 20:6:44.0290,-0.07,-0.28,-0.02
2020-08-12 20:6:44.1280,0.41,-0.24,0.04
2020-08-12 20:6:44.2280,0.69,-0.07,0.2
2020-08-12 20:6:44.3270,0.83,0.04,0.2
2020-08-12 20:6:44.4260,0.36,-0.57,0.03
2020-08-12 20:6:44.5250,0.07,-0.15,0.27
2020-08-12 20:6:44.6250,-0.14,0.05,0.15
2020-08-12 20:6:44.7240,-0.04,-0.02,-0.03
2020-08-12 20:6:44.8230,0.02,-0.01,-0.01
2020-08-12 20:6:44.9220,0.01,0.0,0.01
2020-08-12 20:6:45.0220,0.02,-0.0,-0.03
2020-08-12 20:6:45.1210,-0.0,0.0,0.06
2020-08-12 20:6:45.2200,-0.03,-0.01,0.01
2020-08-12 20:6:45.3190,-0.0,-0.0,-0.0
2020-08-12 20:6:45.4190,-0.08,0.01,0.0
2020-08-12 20:6:45.5180,-0.2,-0.23,-0.03
2020-08-12 20:6:45.6170,-0.47,-0.49,0.12
2020-08-12 20:6:45.7160,-1.31,0.26,-0.13
2020-08-12 20:6:45.8160,-0.64,-0.18,-0.09
2020-08-12 20:6:45.9150,0.19,-0.41,-0.03
2020-08-12 20:6:46.0140,0.71,-0.18,0.16
2020-08-12 20:6:46.1130,1.16,-0.01,0.28
2020-08-12 20:6:46.2130,-0.71,-0.77,0.76
2020-08-12 20:6:46.3120,0.03,-0.04,0.36
2020-08-12 20:6:46.4110,0.04,0.05,0.05
2020-08-12 20:6:46.5100,0.03,-0.03,0.01
2020-08-12 20:6:46.6100,0.05,-0.0,-0.02
2020-08-12 20:6:46.7090,-0.03,0.02,0.0
2020-08-12 20:6:46.8080,0.03,0.0,-0.01
2020-08-12 20:6:46.9070,-0.02,0.01,0.01
2020-08-12 20:6:47.0070,-0.01,0.02,-0.02
2020-08-12 20:6:47.1060,-0.0,-0.0,-0.02
2020-08-12 20:6:47.2050,-0.03,-0.03,-0.0
2020-08-12 20:6:47.3040,-0.34,-0.08,0.1
2020-08-12 20:6:47.4040,-0.46,-0.39,0.02
2020-08-12 20:6:47.5030,-0.93,0.17,-0.04
2020-08-12 20:6:47.6020,-0.61,-0.09,-0.13
2020-08-12 20:6:47.7010,-0.09,-0.34,-0.08
2020-08-12 20:6:47.8010,0.24,-0.16,0.04
2020-08-12 20:6:47.9000,0.77,0.03,0.17
2020-08-12 20:6:47.9990,0.82,0.09,0.36
2020-08-12 20:6:48.0980,0.1,-0.57,-0.13
2020-08-12 20:6:48.1980,0.3,-0.27,0.04
2020-08-12 20:6:48.2970,0.07,0.05,0.09
2020-08-12 20:6:48.3960,0.01,-0.02,-0.02
2020-08-12 20:6:48.4950,-0.02,-0.02,-0.01
2020-08-12 20:6:48.5950,-0.08,0.02,0.04
2020-08-12 20:6:48.6940,-0.02,0.02,0.02
2020-08-12 20:6:48.7930,0.02,0.0,-0.0
2020-08-12 20:6:48.8920,-0.0,-0.0,0.0
2020-08-12 20:6:48.9920,-0.02,0.01,-0.0
2020-08-12 20:6:49.0910,-0.04,-0.01,-0.0
2020-08-12 20:6:49.1900,-0.05,0.01,0.0
2020-08-12 20:6:49.2890,-0.19,-0.11,0.03
2020-08-12 20:6:49.3890,-0.47,-0.26,-0.01
2020-08-12 20:6:49.4880,-0.26,-0.33,0.27
2020-08-12 20:6:49.5870,-0.95,0.14,0.05
2020-08-12 20:6:49.6870,-0.13,-0.31,-0.07
2020-08-12 20:6:49.7860,0.15,-0.3,-0.01
2020-08-12 20:6:49.8850,0.78,-0.11,0.21
2020-08-12 20:6:49.9840,0.83,0.02,0.3
2020-08-12 20:6:50.0830,-1.63,-0.28,0.69
2020-08-12 20:6:50.1830,0.11,0.01,0.43
2020-08-12 20:6:50.2820,0.06,0.04,0.12
2020-08-12 20:6:50.3810,0.11,-0.05,-0.04
2020-08-12 20:6:50.4810,0.06,-0.01,-0.04
2020-08-12 20:6:50.5800,0.08,-0.02,-0.08
2020-08-12 20:6:50.6790,-0.0,0.0,-0.01
2020-08-12 20:6:50.7780,0.0,-0.01,0.01
2020-08-12 20:6:50.8780,-0.0,-0.01,-0.01
2020-08-12 20:6:50.9770,-0.02,-0.0,0.01
2020-08-12 20:6:51.0760,-0.01,0.0,-0.02
2020-08-12 20:6:51.1750,-0.01,-0.01,-0.03
2020-08-12 20:6:51.2740,-0.15,-0.17,-0.02
2020-08-12 20:6:51.3740,-0.61,-0.32,0.04
2020-08-12 20:6:51.4730,-0.02,-0.28,0.19
2020-08-12 20:6:51.5720,-0.91,0.1,-0.07
2020-08-12 20:6:51.6720,-0.21,-0.37,-0.18
2020-08-12 20:6:51.7710,0.3,-0.44,-0.04
2020-08-12 20:6:51.8700,0.89,-0.16,0.19
2020-08-12 20:6:51.9690,1.17,0.07,0.31
2020-08-12 20:6:52.0690,0.41,-0.42,-0.22
2020-08-12 20:6:52.1680,0.07,-0.08,0.13
2020-08-12 20:6:52.2670,0.01,-0.03,-0.02
2020-08-12 20:6:52.3660,-0.01,-0.01,-0.01
2020-08-12 20:6:52.4660,-0.04,0.0,0.01
2020-08-12 20:6:52.5650,-0.0,0.0,-0.03
2020-08-12 20:6:52.6640,-0.01,-0.01,-0.03
2020-08-12 20:6:52.7630,-0.03,-0.03,0.0
2020-08-12 20:6:52.8630,-0.01,0.0,-0.01
2020-08-12 20:6:52.9620,-0.07,-0.01,0.0
2020-08-12 20:6:53.0610,-0.29,-0.12,0.07
2020-08-12 20:6:53.1600,-0.36,-0.29,0.16
2020-08-12 20:6:53.2600,-0.8,0.14,0.03
2020-08-12 20:6:53.3590,-0.59,-0.04,-0.13
2020-08-12 20:6:53.4580,-0.18,-0.22,-0.08
2020-08-12 20:6:53.5570,0.0,-0.21,-0.08
2020-08-12 20:6:53.6570,0.39,-0.08,0.07
2020-08-12 20:6:53.7560,0.73,0.03,0.15
2020-08-12 20:6:53.8550,-0.01,-0.36,-0.39
2020-08-12 20:6:53.9550,1.0,-0.41,0.05
2020-08-12 20:6:54.0540,-0.14,0.05,-0.11
2020-08-12 20:6:54.1530,-0.09,0.03,-0.01
2020-08-12 20:6:54.2520,-0.09,0.01,0.06
2020-08-12 20:6:54.3510,-0.03,0.01,-0.02
2020-08-12 20:6:54.4510,-0.07,0.02,0.02
2020-08-12 20:6:54.5500,0.01,0.02,-0.0
2020-08-12 20:6:54.6490,-0.02,-0.02,-0.01
2020-08-12 20:6:54.7480,-0.03,0.01,0.02
2020-08-12 20:6:54.8480,-0.03,-0.0,0.01
2020-08-12 20:6:54.9470,-0.05,-0.01,-0.01
2020-08-12 20:6:55.0460,-0.16,-0.12,-0.03
2020-08-12 20:6:55.1450,-0.45,-0.33,-0.04
2020-08-12 20:6:55.2450,0.06,-0.36,0.26
2020-08-12 20:6:55.3440,-1.03,0.17,-0.04
2020-08-12 20:6:55.4430,-0.24,-0.35,-0.15
2020-08-12 20:6:55.5420,0.19,-0.4,0.02
2020-08-12 20:6:55.6420,0.7,-0.16,0.12
2020-08-12 20:6:55.7410,0.72,0.09,0.11
2020-08-12 20:6:55.8400,-1.57,-0.16,-0.23
2020-08-12 20:6:55.9390,0.15,-0.12,0.25
2020-08-12 20:6:56.0390,-0.05,0.0,-0.04
2020-08-12 20:6:56.1380,-0.1,-0.01,0.05
2020-08-12 20:6:56.2370,0.04,-0.04,-0.02
2020-08-12 20:6:56.3370,-0.04,0.03,-0.06
2020-08-12 20:6:56.4360,-0.0,-0.02,0.01
2020-08-12 20:6:56.5350,-0.0,0.01,0.01
2020-08-12 20:6:56.6340,-0.04,0.02,0.03
2020-08-12 20:6:56.7330,-0.02,0.01,-0.03
2020-08-12 20:6:56.8330,0.02,-0.02,-0.03
2020-08-12 20:6:56.9320,-0.05,-0.03,-0.02
2020-08-12 20:6:57.0310,-0.14,-0.16,0.04
2020-08-12 20:6:57.1310,-0.35,-0.09,-0.05
2020-08-12 20:6:57.2300,-0.31,-0.23,0.17
2020-08-12 20:6:57.3290,-1.07,0.09,0.02
2020-08-12 20:6:57.4280,-0.75,-0.03,-0.03
2020-08-12 20:6:57.5280,-0.11,-0.37,-0.04
2020-08-12 20:6:57.6270,0.15,-0.31,-0.02
2020-08-12 20:6:57.7260,0.58,-0.07,0.13
2020-08-12 20:6:57.8250,0.93,0.07,0.2
2020-08-12 20:6:57.9250,-0.33,-1.34,0.87
2020-08-12 20:6:58.0240,0.3,-0.31,0.26
2020-08-12 20:6:58.1230,0.01,0.03,0.11
2020-08-12 20:6:58.2220,0.01,-0.02,-0.06
2020-08-12 20:6:58.3210,0.08,0.06,0.05
2020-08-12 20:6:58.4210,0.06,-0.01,-0.03
2020-08-12 20:6:58.5200,0.09,-0.03,-0.02
2020-08-12 20:6:58.6190,0.05,0.01,-0.0
2020-08-12 20:6:58.7190,0.0,0.0,-0.02
2020-08-12 20:6:58.8180,0.04,0.0,-0.02
2020-08-12 20:6:58.9170,-0.0,0.0,-0.02
2020-08-12 20:6:59.0160,-0.07,0.01,-0.02
2020-08-12 20:6:59.1160,-0.18,-0.27,0.08
2020-08-12 20:6:59.2150,-0.3,-0.44,0.2
2020-08-12 20:6:59.3140,-1.16,0.34,0.07
2020-08-12 20:6:59.4130,-0.51,-0.19,-0.12
2020-08-12 20:6:59.5130,0.06,-0.36,-0.04
2020-08-12 20:6:59.6120,0.43,-0.18,0.09
2020-08-12 20:6:59.7110,0.83,0.0,0.11
2020-08-12 20:6:59.8100,0.97,0.03,0.31
2020-08-12 20:6:59.9100,0.84,-0.11,0.13
2020-08-12 20:7:00.0090,0.1,-0.01,-0.09
2020-08-12 20:7:00.1080,0.07,0.04,0.06
2020-08-12 20:7:00.2070,0.1,-0.05,-0.04
2020-08-12 20:7:00.3070,0.02,-0.01,-0.05
2020-08-12 20:7:00.4060,-0.02,0.02,-0.0
2020-08-12 20:7:00.5050,-0.04,0.01,0.05
2020-08-12 20:7:00.6040,-0.02,0.01,-0.01
2020-08-12 20:7:00.7040,-0.01,-0.0,-0.03
2020-08-12 20:7:00.8030,-0.03,-0.0,0.01
2020-08-12 20:7:00.9020,-0.05,-0.0,-0.0
2020-08-12 20:7:01.0010,-0.2,-0.19,-0.06
2020-08-12 20:7:01.1010,-0.56,-0.33,-0.03
2020-08-12 20:7:01.2000,-0.47,-0.11,0.06
2020-08-12 20:7:01.2990,-0.82,0.1,0.0
2020-08-12 20:7:01.3990,-0.15,-0.33,-0.08
2020-08-12 20:7:01.4980,0.25,-0.42,0.04
2020-08-12 20:7:01.5970,0.57,-0.1,0.16
2020-08-12 20:7:01.6960,0.89,0.08,0.1
2020-08-12 20:7:01.7950,-1.62,-0.22,0.36
2020-08-12 20:7:01.8950,0.12,-0.09,0.26
2020-08-12 20:7:01.9940,0.05,-0.01,-0.05
2020-08-12 20:7:02.0940,-0.01,0.01,0.01
2020-08-12 20:7:02.1920,-0.03,0.01,0.01
2020-08-12 20:7:02.2920,-0.07,0.04,0.05
2020-08-12 20:7:02.3910,-0.01,0.02,0.01
2020-08-12 20:7:02.4900,-0.03,-0.01,-0.06
2020-08-12 20:7:02.5890,-0.05,-0.01,-0.01
2020-08-12 20:7:02.6890,-0.02,-0.0,0.02
2020-08-12 20:7:02.7880,-0.04,0.0,-0.01
2020-08-12 20:7:02.8870,-0.06,-0.05,-0.03
2020-08-12 20:7:02.9870,-0.27,-0.36,-0.02
2020-08-12 20:7:03.0860,-0.37,-0.24,0.2
2020-08-12 20:7:03.1850,-1.39,0.48,0.01
2020-08-12 20:7:03.2840,-0.67,-0.28,-0.1
2020-08-12 20:7:03.3830,0.05,-0.52,0.02
2020-08-12 20:7:03.4830,0.73,-0.17,0.19
2020-08-12 20:7:03.5820,1.04,0.08,0.19
2020-08-12 20:7:03.6810,-2.21,-0.04,0.18
2020-08-12 20:7:03.7800,0.08,-0.05,0.23
2020-08-12 20:7:03.8800,-0.03,0.02,-0.04
2020-08-12 20:7:03.9790,-0.02,0.0,-0.01
2020-08-12 20:7:04.0780,-0.1,0.03,0.06
2020-08-12 20:7:04.1770,0.02,-0.01,-0.04
2020-08-12 20:7:04.2770,-0.02,0.01,0.01
2020-08-12 20:7:04.3760,-0.01,-0.01,-0.01
2020-08-12 20:7:04.4750,0.03,-0.01,-0.03
2020-08-12 20:7:04.5750,-0.0,-0.0,0.02
2020-08-12 20:7:04.6740,-0.01,-0.0,-0.01
2020-08-12 20:7:04.7730,-0.09,-0.02,-0.02
2020-08-12 20:7:04.8720,-0.23,-0.15,0.06
2020-08-12 20:7:04.9710,-0.48,-0.47,-0.01
2020-08-12 20:7:05.0710,-0.8,0.08,-0.08
2020-08-12 20:7:05.1700,-0.65,0.01,0.02
2020-08-12 20:7:05.2690,-0.14,-0.3,-0.05
2020-08-12 20:7:05.3680,0.38,-0.28,0.01
2020-08-12 20:7:05.4680,0.62,-0.02,0.04
2020-08-12 20:7:05.5670,0.79,0.05,0.16
2020-08-12 20:7:05.6670,-2.32,0.03,0.02
2020-08-12 20:7:05.7650,0.14,-0.08,0.64
2020-08-12 20:7:05.8650,-0.07,0.0,-0.07
2020-08-12 20:7:05.9640,-0.03,-0.02,-0.03
2020-08-12 20:7:06.0630,-0.1,0.04,0.05
2020-08-12 20:7:06.1630,-0.02,0.01,0.02
2020-08-12 20:7:06.2620,0.0,-0.01,0.0
2020-08-12 20:7:06.3610,-0.01,0.01,-0.02
2020-08-12 20:7:06.4600,-0.04,-0.01,-0.0
2020-08-12 20:7:06.5590,-0.04,0.0,0.0
2020-08-12 20:7:06.6590,-0.04,0.0,-0.01
2020-08-12 20:7:06.7580,-0.09,-0.09,-0.02
2020-08-12 20:7:06.8570,-0.33,-0.24,-0.09
2020-08-12 20:7:06.9570,-0.09,-0.31,0.26
2020-08-12 20:7:07.0560,-0.98,0.19,-0.07
2020-08-12 20:7:07.1550,-0.36,-0.21,-0.12
2020-08-12 20:7:07.2540,0.11,-0.44,0.04
2020-08-12 20:7:07.3540,0.47,-0.17,0.11
2020-08-12 20:7:07.4530,0.74,0.04,0.09
2020-08-12 20:7:07.5520,0.96,0.08,0.3
2020-08-12 20:7:07.6510,0.92,-0.43,-0.35
2020-08-12 20:7:07.7510,-0.04,0.07,-0.0
2020-08-12 20:7:07.8500,-0.03,0.05,0.05
2020-08-12 20:7:07.9490,0.08,-0.03,-0.08
2020-08-12 20:7:08.0480,0.03,-0.0,-0.05
2020-08-12 20:7:08.1480,-0.08,0.02,0.02
2020-08-12 20:7:08.2470,-0.03,0.02,0.0
2020-08-12 20:7:08.3460,0.02,-0.0,-0.02
2020-08-12 20:7:08.4450,0.0,0.01,-0.01
2020-08-12 20:7:08.5450,0.0,0.0,-0.03
2020-08-12 20:7:08.6440,-0.04,-0.01,-0.0
2020-08-12 20:7:08.7430,-0.13,-0.19,0.05
2020-08-12 20:7:08.8420,-0.28,-0.1,-0.14
2020-08-12 20:7:08.9420,-0.26,-0.39,0.38
2020-08-12 20:7:09.0410,-1.16,0.19,-0.03
2020-08-12 20:7:09.1400,-0.39,-0.28,-0.11
2020-08-12 20:7:09.2390,0.13,-0.42,0.08
2020-08-12 20:7:09.3390,0.47,-0.06,0.18
2020-08-12 20:7:09.4380,0.86,0.03,0.07
2020-08-12 20:7:09.5370,0.16,-0.45,-0.25
2020-08-12 20:7:09.6360,1.21,-0.47,-0.01
2020-08-12 20:7:09.7360,-0.03,0.04,-0.18
2020-08-12 20:7:09.8350,0.13,-0.08,0.01
2020-08-12 20:7:09.9340,0.06,0.01,-0.01
2020-08-12 20:7:10.0330,-0.02,0.03,0.02
2020-08-12 20:7:10.1330,-0.06,0.0,0.0
2020-08-12 20:7:10.2320,-0.03,0.02,0.01
2020-08-12 20:7:10.3310,-0.03,0.0,-0.0
2020-08-12 20:7:10.4310,-0.02,-0.0,0.0
2020-08-12 20:7:10.5300,-0.03,-0.0,-0.0
2020-08-12 20:7:10.6290,-0.12,-0.04,-0.01
2020-08-12 20:7:10.7280,-0.23,-0.46,-0.26
2020-08-12 20:7:10.8270,-0.27,-0.22,0.33
2020-08-12 20:7:10.9270,-0.97,0.11,-0.09
2020-08-12 20:7:11.0260,-0.21,-0.34,-0.06
2020-08-12 20:7:11.1250,0.41,-0.34,-0.02
2020-08-12 20:7:11.2240,0.7,-0.1,0.21
2020-08-12 20:7:11.3240,0.94,0.04,0.29
2020-08-12 20:7:11.4230,-0.03,-1.26,0.27
2020-08-12 20:7:11.5220,0.24,-0.23,0.26
2020-08-12 20:7:11.6210,0.09,0.05,0.0
2020-08-12 20:7:11.7210,-0.02,-0.01,-0.03
2020-08-12 20:7:11.8200,0.04,-0.01,-0.05
2020-08-12 20:7:11.9190,-0.05,-0.0,0.04
2020-08-12 20:7:12.0180,-0.02,0.02,0.02
2020-08-12 20:7:12.1180,-0.01,0.02,-0.01
2020-08-12 20:7:12.2170,0.03,-0.0,-0.03
2020-08-12 20:7:12.3160,-0.04,-0.02,0.0
2020-08-12 20:7:12.4150,-0.12,-0.02,0.01
2020-08-12 20:7:12.5150,-0.3,-0.28,0.04
2020-08-12 20:7:12.6140,-0.78,-0.39,0.2
2020-08-12 20:7:12.7130,-1.24,0.29,0.03
2020-08-12 20:7:12.8120,-0.82,-0.07,-0.04
2020-08-12 20:7:12.9120,-0.1,-0.42,-0.02
2020-08-12 20:7:13.0110,0.39,-0.4,0.02
2020-08-12 20:7:13.1100,0.74,-0.04,0.07
2020-08-12 20:7:13.2100,0.99,0.1,0.37
2020-08-12 20:7:13.3090,0.57,-0.5,-0.54
2020-08-12 20:7:13.4080,0.16,-0.01,0.01
2020-08-12 20:7:13.5070,-0.04,0.04,0.1
2020-08-12 20:7:13.6060,0.03,-0.02,-0.03
2020-08-12 20:7:13.7060,0.01,-0.01,-0.02
2020-08-12 20:7:13.8050,-0.01,0.01,0.01
2020-08-12 20:7:13.9040,-0.02,-0.0,-0.01
2020-08-12 20:7:14.0040,-0.02,-0.0,0.0
2020-08-12 20:7:14.1030,-0.04,0.02,0.02
2020-08-12 20:7:14.2020,0.04,0.01,-0.03
2020-08-12 20:7:14.3020,0.04,0.01,-0.07
2020-08-12 20:7:14.4010,-0.28,-0.26,0.12
2020-08-12 20:7:14.5000,-0.59,-0.32,-0.03
2020-08-12 20:7:14.5990,-0.38,-0.1,0.05
2020-08-12 20:7:14.6980,-0.81,0.13,-0.03
2020-08-12 20:7:14.7980,-0.21,-0.31,-0.07
2020-08-12 20:7:14.8970,0.1,-0.38,0.01
2020-08-12 20:7:14.9960,0.43,-0.12,0.13
2020-08-12 20:7:15.0950,0.7,0.05,0.14
2020-08-12 20:7:15.1950,-0.55,-0.61,-0.47
2020-08-12 20:7:15.2940,0.66,-0.13,0.08
2020-08-12 20:7:15.3930,-0.01,0.0,-0.07
2020-08-12 20:7:15.4920,-0.04,0.04,0.06
2020-08-12 20:7:15.5920,-0.01,-0.01,-0.01
2020-08-12 20:7:15.6910,0.02,-0.02,-0.03
2020-08-12 20:7:15.7900,0.02,0.0,0.0
2020-08-12 20:7:15.8890,-0.03,-0.01,-0.03
2020-08-12 20:7:15.9890,-0.0,-0.02,0.01
2020-08-12 20:7:16.0880,-0.07,0.02,0.02
2020-08-12 20:7:16.1870,-0.01,0.01,-0.03
2020-08-12 20:7:16.2860,-0.01,-0.01,-0.03
2020-08-12 20:7:16.3860,-0.22,-0.31,-0.02
2020-08-12 20:7:16.4850,-0.37,-0.29,0.33
2020-08-12 20:7:16.5840,-1.01,0.26,-0.01
2020-08-12 20:7:16.6830,-0.46,-0.16,-0.04
2020-08-12 20:7:16.7830,0.12,-0.37,0.02
2020-08-12 20:7:16.8820,0.44,-0.2,0.12
2020-08-12 20:7:16.9810,0.94,-0.01,0.1
2020-08-12 20:7:17.0800,0.7,-0.1,0.15
2020-08-12 20:7:17.1800,1.01,-0.18,-0.31
2020-08-12 20:7:17.2790,-0.04,0.09,-0.07
2020-08-12 20:7:17.3780,-0.09,0.02,0.01
2020-08-12 20:7:17.4770,-0.07,0.03,0.02
2020-08-12 20:7:17.5770,-0.03,-0.03,-0.04
2020-08-12 20:7:17.6760,-0.01,-0.01,0.0
2020-08-12 20:7:17.7750,-0.03,0.01,0.01
2020-08-12 20:7:17.8740,0.04,-0.01,-0.04
2020-08-12 20:7:17.9740,0.07,-0.03,-0.03
2020-08-12 20:7:18.0730,0.03,-0.03,-0.03
2020-08-12 20:7:18.1720,-0.02,-0.07,-0.03
2020-08-12 20:7:18.2710,-0.18,-0.28,-0.04
2020-08-12 20:7:18.3710,-0.74,-0.4,0.13
2020-08-12 20:7:18.4700,-1.15,0.22,0.04
2020-08-12 20:7:18.5690,-0.73,-0.03,0.01
2020-08-12 20:7:18.6680,-0.05,-0.51,-0.0
2020-08-12 20:7:18.7680,0.59,-0.22,0.23
2020-08-12 20:7:18.8670,0.76,-0.04,0.11
2020-08-12 20:7:18.9660,0.9,0.06,0.05
2020-08-12 20:7:19.0650,0.59,-0.43,-0.43
2020-08-12 20:7:19.1650,0.22,-0.03,-0.1
2020-08-12 20:7:19.2640,0.07,0.03,0.11
2020-08-12 20:7:19.3630,0.08,-0.05,-0.07
2020-08-12 20:7:19.4630,0.06,-0.03,-0.0
2020-08-12 20:7:19.5620,0.07,-0.02,-0.01
2020-08-12 20:7:19.6610,-0.0,0.01,-0.03
2020-08-12 20:7:19.7600,-0.01,-0.0,-0.0
2020-08-12 20:7:19.8600,-0.04,-0.01,-0.01
2020-08-12 20:7:19.9590,-0.03,0.0,0.0
2020-08-12 20:7:20.0580,-0.11,-0.05,0.04
2020-08-12 20:7:20.1570,-0.28,-0.25,-0.12
2020-08-12 20:7:20.2560,-0.42,-0.29,0.3
2020-08-12 20:7:20.3560,-1.24,0.33,0.02
2020-08-12 20:7:20.4550,-0.56,-0.21,-0.05
2020-08-12 20:7:20.5540,0.03,-0.45,0.0
2020-08-12 20:7:20.6540,0.38,-0.18,-0.06
2020-08-12 20:7:20.7530,1.17,-0.02,0.12
2020-08-12 20:7:20.8520,-2.12,-0.31,-0.78
2020-08-12 20:7:20.9510,0.84,-0.15,0.29
2020-08-12 20:7:21.0500,0.08,0.01,-0.06
2020-08-12 20:7:21.1500,0.04,-0.0,0.0
2020-08-12 20:7:21.2490,-0.01,0.02,0.04
2020-08-12 20:7:21.3480,0.01,-0.02,0.02
2020-08-12 20:7:21.4480,-0.01,-0.0,0.0
2020-08-12 20:7:21.5470,-0.02,-0.0,0.01
2020-08-12 20:7:21.6460,-0.0,-0.0,-0.03
2020-08-12 20:7:21.7450,0.01,0.0,-0.04
2020-08-12 20:7:21.8450,-0.07,0.01,-0.0
2020-08-12 20:7:21.9440,-0.15,-0.13,0.1
2020-08-12 20:7:22.0430,-0.32,-0.26,-0.1
2020-08-12 20:7:22.1420,-0.29,-0.24,0.29
2020-08-12 20:7:22.2420,-0.99,0.18,-0.06
2020-08-12 20:7:22.3410,-0.26,-0.26,-0.14
2020-08-12 20:7:22.4400,0.17,-0.34,-0.03
2020-08-12 20:7:22.5390,0.6,-0.06,0.1
2020-08-12 20:7:22.6390,0.89,0.01,0.13
2020-08-12 20:7:22.7380,-1.48,-0.24,-0.69
2020-08-12 20:7:22.8370,0.5,-0.41,0.35
2020-08-12 20:7:22.9370,-0.2,0.11,-0.02
2020-08-12 20:7:23.0350,-0.06,0.0,0.01
2020-08-12 20:7:23.1350,-0.03,-0.01,-0.0
2020-08-12 20:7:23.2340,0.01,0.0,-0.02
2020-08-12 20:7:23.3330,-0.0,-0.01,-0.01
2020-08-12 20:7:23.4320,-0.02,-0.0,0.03
2020-08-12 20:7:23.5320,0.0,-0.01,0.01
2020-08-12 20:7:23.6310,-0.02,0.01,0.0
2020-08-12 20:7:23.7300,-0.03,-0.02,-0.01
2020-08-12 20:7:23.8290,-0.28,-0.35,-0.09
2020-08-12 20:7:23.9300,-0.63,-0.32,0.27
2020-08-12 20:7:24.0280,-1.42,0.33,-0.05
2020-08-12 20:7:24.1270,-0.67,-0.26,-0.09
2020-08-12 20:7:24.2270,0.13,-0.46,-0.07
2020-08-12 20:7:24.3260,0.91,-0.23,0.25
2020-08-12 20:7:24.4250,1.33,0.11,0.34
2020-08-12 20:7:24.5240,0.54,-0.23,-0.34
2020-08-12 20:7:24.6240,0.48,-0.18,-0.07
2020-08-12 20:7:24.7230,0.07,0.03,0.09
2020-08-12 20:7:24.8220,-0.0,0.01,0.03
2020-08-12 20:7:24.9210,0.03,-0.0,-0.01
2020-08-12 20:7:25.0210,0.02,-0.03,-0.02
2020-08-12 20:7:25.1200,-0.03,0.01,0.01
2020-08-12 20:7:25.2190,-0.04,-0.0,-0.01
2020-08-12 20:7:25.3180,-0.05,0.01,-0.02
2020-08-12 20:7:25.4180,-0.03,0.0,-0.01
2020-08-12 20:7:25.5170,-0.11,0.0,0.03
2020-08-12 20:7:25.6160,-0.28,-0.13,0.11
2020-08-12 20:7:25.7150,-0.41,-0.39,-0.03
2020-08-12 20:7:25.8150,-0.54,-0.04,0.08
2020-08-12 20:7:25.9140,-0.78,0.1,-0.07
2020-08-12 20:7:26.0130,-0.21,-0.3,-0.11
2020-08-12 20:7:26.1120,0.1,-0.28,0.03
2020-08-12 20:7:26.2120,0.55,-0.11,0.22
2020-08-12 20:7:26.3110,0.95,0.01,0.29
2020-08-12 20:7:26.4100,-0.32,-0.87,0.4
2020-08-12 20:7:26.5090,0.14,-0.24,0.35
2020-08-12 20:7:26.6090,0.04,0.03,0.09
2020-08-12 20:7:26.7080,0.06,-0.03,-0.06
2020-08-12 20:7:26.8070,-0.02,-0.02,0.01
2020-08-12 20:7:26.9060,0.0,-0.01,-0.0
2020-08-12 20:7:27.0060,-0.02,0.01,-0.01
2020-08-12 20:7:27.1050,0.0,0.0,-0.02
2020-08-12 20:7:27.2040,-0.03,0.0,0.01
2020-08-12 20:7:27.3030,-0.02,-0.02,-0.02
2020-08-12 20:7:27.4030,-0.03,-0.02,-0.01
2020-08-12 20:7:27.5020,-0.22,-0.28,-0.07
2020-08-12 20:7:27.6010,-0.61,-0.3,0.02
2020-08-12 20:7:27.7000,-0.24,-0.18,0.19
2020-08-12 20:7:27.8000,-0.82,0.05,-0.14
2020-08-12 20:7:27.8990,-0.14,-0.44,-0.13
2020-08-12 20:7:27.9980,0.38,-0.36,0.19
2020-08-12 20:7:28.0980,1.06,-0.06,0.15
2020-08-12 20:7:28.1970,0.9,-0.29,0.06
2020-08-12 20:7:28.2960,0.93,-0.03,0.02
2020-08-12 20:7:28.3950,-0.02,0.04,-0.16
2020-08-12 20:7:28.4940,0.01,0.03,-0.01
2020-08-12 20:7:28.5940,-0.08,0.03,0.03
2020-08-12 20:7:28.6930,-0.16,0.08,0.1
2020-08-12 20:7:28.7920,0.05,-0.03,-0.07
2020-08-12 20:7:28.8920,0.01,-0.01,-0.01
2020-08-12 20:7:28.9910,-0.03,0.01,-0.01
2020-08-12 20:7:29.0900,-0.09,-0.02,0.04
2020-08-12 20:7:29.1890,-0.0,0.02,-0.01
2020-08-12 20:7:29.2890,0.04,-0.0,-0.01
2020-08-12 20:7:29.3880,-0.02,-0.08,-0.05
2020-08-12 20:7:29.4870,-0.22,-0.19,-0.05
2020-08-12 20:7:29.5860,-0.69,-0.39,0.23
2020-08-12 20:7:29.6860,-1.21,0.08,-0.15
2020-08-12 20:7:29.7850,-0.75,-0.05,-0.06
2020-08-12 20:7:29.8840,-0.06,-0.41,-0.1
2020-08-12 20:7:29.9830,0.54,-0.34,0.09
2020-08-12 20:7:30.0820,0.98,-0.09,0.22
2020-08-12 20:7:30.1820,-0.86,-0.57,-1.03
2020-08-12 20:7:30.2810,0.71,-0.09,0.34
2020-08-12 20:7:30.3800,-0.22,0.02,-0.21
2020-08-12 20:7:30.4790,-0.13,0.05,0.03
2020-08-12 20:7:30.5790,-0.04,-0.0,0.03
2020-08-12 20:7:30.6780,-0.0,0.03,0.02
2020-08-12 20:7:30.7770,-0.12,-0.01,0.01
2020-08-12 20:7:30.8770,-0.03,0.02,-0.0
2020-08-12 20:7:30.9760,-0.03,0.01,-0.01
2020-08-12 20:7:31.0750,-0.04,-0.0,-0.0
2020-08-12 20:7:31.1740,-0.02,0.01,-0.0
2020-08-12 20:7:31.2730,0.03,0.01,-0.04
2020-08-12 20:7:31.3730,-0.08,-0.08,-0.05
2020-08-12 20:7:31.4720,-0.26,-0.07,-0.11
2020-08-12 20:7:31.5710,-0.48,-0.33,0.14
2020-08-12 20:7:31.6710,-0.92,0.02,-0.15
2020-08-12 20:7:31.7700,-0.81,0.02,-0.08
2020-08-12 20:7:31.8690,-0.08,-0.42,-0.1
2020-08-12 20:7:31.9680,0.46,-0.44,-0.03
2020-08-12 20:7:32.0680,0.87,-0.11,0.19
2020-08-12 20:7:32.1670,1.26,0.07,0.48
2020-08-12 20:7:32.2660,0.7,-0.37,-0.31
2020-08-12 20:7:32.3650,0.21,-0.13,-0.02
2020-08-12 20:7:32.4640,-0.07,0.04,0.14
2020-08-12 20:7:32.5640,0.05,-0.04,-0.08
2020-08-12 20:7:32.6630,0.0,0.02,-0.03
2020-08-12 20:7:32.7620,-0.06,0.02,-0.0
2020-08-12 20:7:32.8610,-0.04,-0.0,0.03
2020-08-12 20:7:32.9620,-0.02,-0.0,0.02
2020-08-12 20:7:33.0600,-0.01,0.01,-0.01
2020-08-12 20:7:33.1590,-0.04,0.01,0.0
2020-08-12 20:7:33.2590,-0.02,-0.01,0.0
2020-08-12 20:7:33.3580,-0.04,-0.05,0.0
2020-08-12 20:7:33.4570,-0.22,-0.23,-0.09
2020-08-12 20:7:33.5560,-0.47,-0.26,0.17
2020-08-12 20:7:33.6550,-1.25,0.14,0.03
2020-08-12 20:7:33.7550,-0.76,-0.06,-0.1
2020-08-12 20:7:33.8540,-0.07,-0.44,-0.06
2020-08-12 20:7:33.9540,0.46,-0.36,0.02
2020-08-12 20:7:34.0530,0.8,-0.06,0.08
2020-08-12 20:7:34.1520,0.98,0.06,0.19
2020-08-12 20:7:34.2510,0.27,-0.57,-0.06
2020-08-12 20:7:34.3500,-0.07,-0.01,0.32
2020-08-12 20:7:34.4500,-0.22,0.08,0.1
2020-08-12 20:7:34.5490,0.15,-0.05,-0.09
2020-08-12 20:7:34.6480,-0.04,0.02,0.0
2020-08-12 20:7:34.7470,-0.04,-0.01,-0.01
2020-08-12 20:7:34.8470,-0.01,0.0,-0.0
2020-08-12 20:7:34.9460,0.0,-0.0,0.01
2020-08-12 20:7:35.0450,-0.03,-0.0,0.02
2020-08-12 20:7:35.1440,-0.04,-0.0,-0.01
2020-08-12 20:7:35.2440,-0.03,-0.0,-0.02
2020-08-12 20:7:35.3430,-0.08,-0.06,0.05
2020-08-12 20:7:35.4420,-0.35,-0.48,-0.12
2020-08-12 20:7:35.5410,-0.03,-0.28,0.22
2020-08-12 20:7:35.6400,-1.12,0.22,0.01
2020-08-12 20:7:35.7400,-0.33,-0.33,-0.07
2020-08-12 20:7:35.8390,0.2,-0.41,0.01
2020-08-12 20:7:35.9380,0.73,-0.25,0.08
2020-08-12 20:7:36.0380,0.93,0.01,0.3
2020-08-12 20:7:36.1370,-0.93,-1.15,0.89
2020-08-12 20:7:36.2360,0.33,0.44,0.07
2020-08-12 20:7:36.3350,0.2,-0.03,-0.01
2020-08-12 20:7:36.4350,0.04,-0.05,-0.04
2020-08-12 20:7:36.5340,-0.02,0.02,0.01
2020-08-12 20:7:36.6330,-0.0,0.01,0.02
2020-08-12 20:7:36.7330,-0.06,0.0,0.02
2020-08-12 20:7:36.8320,0.0,-0.01,-0.0
2020-08-12 20:7:36.9310,-0.01,0.01,0.02
2020-08-12 20:7:37.0300,-0.01,0.01,-0.01
2020-08-12 20:7:37.1290,-0.1,-0.01,-0.02
2020-08-12 20:7:37.2290,-0.07,-0.05,0.0
2020-08-12 20:7:37.3280,-0.21,-0.26,-0.03
2020-08-12 20:7:37.4270,-0.78,-0.46,0.04
2020-08-12 20:7:37.5260,-0.64,-0.07,-0.1
2020-08-12 20:7:37.6260,-0.71,0.02,-0.1
2020-08-12 20:7:37.7250,-0.06,-0.45,-0.03
2020-08-12 20:7:37.8240,0.41,-0.31,0.14
2020-08-12 20:7:37.9230,0.66,-0.07,0.23
2020-08-12 20:7:38.0230,0.99,0.05,0.24
2020-08-12 20:7:38.1220,0.85,-0.07,0.05
2020-08-12 20:7:38.2210,-0.31,-0.01,-0.03
2020-08-12 20:7:38.3210,-0.13,0.01,0.03
2020-08-12 20:7:38.4200,0.04,-0.03,-0.0
2020-08-12 20:7:38.5190,0.16,-0.03,-0.14
2020-08-12 20:7:38.6180,-0.01,0.01,0.01
2020-08-12 20:7:38.7170,-0.06,-0.0,0.05
2020-08-12 20:7:38.8170,-0.05,0.01,0.03
2020-08-12 20:7:38.9160,-0.03,0.01,-0.0
2020-08-12 20:7:39.0150,-0.03,-0.02,0.02
2020-08-12 20:7:39.1140,-0.07,-0.03,-0.0
2020-08-12 20:7:39.2140,-0.2,-0.24,0.05
2020-08-12 20:7:39.3130,-0.34,-0.16,-0.16
2020-08-12 20:7:39.4120,0.14,-0.38,0.13
2020-08-12 20:7:39.5120,-0.95,0.16,-0.01
2020-08-12 20:7:39.6110,-0.37,-0.3,-0.09
2020-08-12 20:7:39.7100,0.1,-0.52,0.01
2020-08-12 20:7:39.8090,0.41,-0.14,0.05
2020-08-12 20:7:39.9080,0.91,0.06,0.13
2020-08-12 20:7:40.0080,0.61,-0.38,-0.05
2020-08-12 20:7:40.1070,1.23,-0.86,0.44
2020-08-12 20:7:40.2060,-0.04,0.04,-0.11
2020-08-12 20:7:40.3060,0.0,-0.01,-0.01
2020-08-12 20:7:40.4050,0.03,-0.05,0.04
2020-08-12 20:7:40.5040,-0.07,0.04,0.08
2020-08-12 20:7:40.6030,-0.03,0.01,0.0
2020-08-12 20:7:40.7030,0.01,-0.04,-0.04
2020-08-12 20:7:40.8020,-0.02,-0.0,0.0
2020-08-12 20:7:40.9010,-0.02,0.01,0.01
2020-08-12 20:7:41.0000,-0.05,0.01,-0.01
2020-08-12 20:7:41.0990,-0.05,-0.0,-0.02
2020-08-12 20:7:41.1990,-0.13,-0.33,-0.0
2020-08-12 20:7:41.2980,-0.47,-0.18,0.04
2020-08-12 20:7:41.3970,-0.15,-0.27,0.23
2020-08-12 20:7:41.4960,-0.96,0.07,-0.06
2020-08-12 20:7:41.5960,-0.31,-0.36,-0.14
2020-08-12 20:7:41.6950,0.12,-0.41,-0.06
2020-08-12 20:7:41.7940,0.79,-0.13,0.16
2020-08-12 20:7:41.8940,1.4,0.06,0.47
2020-08-12 20:7:41.9930,0.64,-0.1,-0.3
2020-08-12 20:7:42.0920,-0.19,0.05,0.0
2020-08-12 20:7:42.1910,-0.14,0.03,0.07
2020-08-12 20:7:42.2910,-0.05,-0.0,0.04
2020-08-12 20:7:42.3900,0.03,-0.01,-0.06
2020-08-12 20:7:42.4890,-0.01,0.01,0.02
2020-08-12 20:7:42.5880,-0.01,0.02,-0.01
2020-08-12 20:7:42.6880,-0.0,0.03,-0.0
2020-08-12 20:7:42.7870,-0.09,0.01,0.02
2020-08-12 20:7:42.8860,-0.03,-0.02,0.01
2020-08-12 20:7:42.9850,-0.07,-0.05,0.03
2020-08-12 20:7:43.0850,-0.23,-0.23,-0.1
2020-08-12 20:7:43.1840,-0.43,-0.34,0.08
2020-08-12 20:7:43.2830,-1.19,0.19,0.01
2020-08-12 20:7:43.3820,-0.64,-0.04,-0.09
2020-08-12 20:7:43.4820,0.01,-0.37,-0.06
2020-08-12 20:7:43.5810,0.51,-0.35,0.04
2020-08-12 20:7:43.6800,0.88,0.02,0.13
2020-08-12 20:7:43.7790,0.98,0.13,0.22
2020-08-12 20:7:43.8790,0.59,-0.18,-0.32
2020-08-12 20:7:43.9780,0.11,0.03,0.02
2020-08-12 20:7:44.0770,0.02,0.01,0.01
2020-08-12 20:7:44.1760,0.05,-0.02,-0.0
2020-08-12 20:7:44.2760,-0.03,0.0,-0.01
2020-08-12 20:7:44.3750,-0.03,-0.01,-0.01
2020-08-12 20:7:44.4740,0.07,-0.02,-0.03
2020-08-12 20:7:44.5730,-0.04,0.01,0.04
2020-08-12 20:7:44.6730,-0.06,-0.02,0.01
2020-08-12 20:7:44.7720,-0.07,-0.0,0.03
2020-08-12 20:7:44.8710,-0.08,-0.0,0.01
2020-08-12 20:7:44.9700,-0.09,-0.05,-0.01
2020-08-12 20:7:45.0700,-0.28,-0.17,-0.06
2020-08-12 20:7:45.1690,-0.22,-0.33,0.33
2020-08-12 20:7:45.2680,-1.05,0.28,-0.06
2020-08-12 20:7:45.3670,-0.46,-0.16,-0.09
2020-08-12 20:7:45.4670,-0.05,-0.39,0.03
2020-08-12 20:7:45.5660,0.36,-0.14,0.12
2020-08-12 20:7:45.6650,0.83,0.03,0.13
2020-08-12 20:7:45.7640,0.43,-0.62,-0.38
2020-08-12 20:7:45.8640,0.89,-0.07,0.13
2020-08-12 20:7:45.9630,-0.23,0.01,0.01
2020-08-12 20:7:46.0620,-0.07,0.01,0.01
2020-08-12 20:7:46.1620,0.01,0.0,-0.03
2020-08-12 20:7:46.2610,0.06,-0.0,-0.06
2020-08-12 20:7:46.3600,-0.03,0.01,0.04
2020-08-12 20:7:46.4590,-0.03,0.02,-0.0
2020-08-12 20:7:46.5580,-0.0,0.0,-0.01
2020-08-12 20:7:46.6580,-0.02,-0.01,-0.03
2020-08-12 20:7:46.7570,-0.03,-0.01,-0.03
2020-08-12 20:7:46.8560,-0.03,-0.03,0.01
2020-08-12 20:7:46.9550,-0.1,-0.22,-0.09
2020-08-12 20:7:47.0550,-0.59,-0.31,-0.01
2020-08-12 20:7:47.1540,-0.14,-0.28,0.14
2020-08-12 20:7:47.2530,-0.97,0.04,-0.06
2020-08-12 20:7:47.3530,-0.19,-0.4,-0.11
2020-08-12 20:7:47.4520,0.29,-0.46,0.06
2020-08-12 20:7:47.5510,1.02,-0.04,0.18
2020-08-12 20:7:47.6500,1.17,0.02,0.26
2020-08-12 20:7:47.7490,1.04,-0.21,-0.11
2020-08-12 20:7:47.8490,-0.03,0.07,-0.16
2020-08-12 20:7:47.9480,-0.05,0.01,0.02
2020-08-12 20:7:48.0470,0.04,-0.01,-0.06
2020-08-12 20:7:48.1460,-0.07,0.04,0.01
2020-08-12 20:7:48.2460,-0.04,0.02,0.0
2020-08-12 20:7:48.3450,0.02,-0.01,0.0
2020-08-12 20:7:48.4440,-0.01,-0.0,0.02
2020-08-12 20:7:48.5430,-0.0,-0.0,-0.01
2020-08-12 20:7:48.6430,0.05,-0.04,-0.01
2020-08-12 20:7:48.7420,-0.06,-0.02,0.02
2020-08-12 20:7:48.8410,-0.16,-0.18,-0.02
2020-08-12 20:7:48.9410,-0.3,-0.27,-0.08
2020-08-12 20:7:49.0400,-0.15,-0.35,0.21
2020-08-12 20:7:49.1390,-1.2,0.26,-0.03
2020-08-12 20:7:49.2380,-0.49,-0.16,-0.12
2020-08-12 20:7:49.3370,0.06,-0.56,0.01
2020-08-12 20:7:49.4370,0.69,-0.1,0.18
2020-08-12 20:7:49.5360,0.92,0.06,0.16
2020-08-12 20:7:49.6350,-1.71,-0.12,0.41
2020-08-12 20:7:49.7340,-0.06,0.12,0.44
2020-08-12 20:7:49.8340,-0.0,-0.0,0.0
2020-08-12 20:7:49.9330,-0.03,-0.0,-0.0
2020-08-12 20:7:50.0320,-0.01,0.01,0.01
2020-08-12 20:7:50.1320,0.02,-0.02,-0.04
2020-08-12 20:7:50.2310,-0.05,0.01,0.02
2020-08-12 20:7:50.3300,-0.06,-0.0,0.02
2020-08-12 20:7:50.4290,-0.02,-0.01,-0.0
2020-08-12 20:7:50.5290,-0.02,0.01,-0.01
2020-08-12 20:7:50.6280,-0.04,-0.01,-0.0
2020-08-12 20:7:50.7270,-0.03,-0.02,-0.0
2020-08-12 20:7:50.8260,-0.16,-0.08,-0.03
2020-08-12 20:7:50.9260,-0.2,-0.25,-0.09
2020-08-12 20:7:51.0250,-0.35,-0.34,0.25
2020-08-12 20:7:51.1240,-1.22,0.28,-0.11
2020-08-12 20:7:51.2230,-0.61,-0.14,-0.13
2020-08-12 20:7:51.3220,-0.01,-0.45,-0.03
2020-08-12 20:7:51.4220,0.42,-0.28,0.14
2020-08-12 20:7:51.5210,0.97,0.06,0.16
2020-08-12 20:7:51.6200,0.91,-0.1,0.05
2020-08-12 20:7:51.7200,1.17,-0.2,-0.12
2020-08-12 20:7:51.8190,-0.12,0.05,-0.28
2020-08-12 20:7:51.9180,-0.1,0.01,0.07
2020-08-12 20:7:52.0170,-0.11,0.08,0.09
2020-08-12 20:7:52.1170,0.0,-0.01,-0.07
2020-08-12 20:7:52.2160,0.04,-0.01,-0.07
2020-08-12 20:7:52.3150,-0.03,0.01,0.03
2020-08-12 20:7:52.4140,-0.02,0.02,-0.0
2020-08-12 20:7:52.5140,-0.04,-0.01,0.02
2020-08-12 20:7:52.6130,-0.05,-0.0,-0.01
2020-08-12 20:7:52.7120,-0.03,0.0,-0.02
2020-08-12 20:7:52.8110,-0.08,-0.02,-0.04
2020-08-12 20:7:52.9110,-0.26,-0.35,-0.01
2020-08-12 20:7:53.0100,-0.55,-0.2,0.11
2020-08-12 20:7:53.1090,-0.68,0.1,0.04
2020-08-12 20:7:53.2080,-0.65,0.03,-0.07
2020-08-12 20:7:53.3080,-0.14,-0.34,-0.16
2020-08-12 20:7:53.4070,0.16,-0.33,0.06
2020-08-12 20:7:53.5060,0.64,-0.11,0.05
2020-08-12 20:7:53.6050,0.8,0.06,0.22
2020-08-12 20:7:53.7050,-0.56,-1.24,0.6
2020-08-12 20:7:53.8040,0.06,-0.18,0.5
2020-08-12 20:7:53.9030,-0.01,0.01,0.05
2020-08-12 20:7:54.0030,-0.03,0.0,-0.01
2020-08-12 20:7:54.1020,0.08,-0.02,-0.05
2020-08-12 20:7:54.2010,0.05,-0.01,0.01
2020-08-12 20:7:54.3000,-0.02,-0.0,-0.02
2020-08-12 20:7:54.3990,-0.03,0.0,0.02
2020-08-12 20:7:54.4990,-0.03,0.0,0.02
2020-08-12 20:7:54.5980,0.0,-0.0,-0.03
2020-08-12 20:7:54.6970,-0.07,-0.0,0.0
2020-08-12 20:7:54.7960,-0.15,-0.17,0.0
2020-08-12 20:7:54.8960,-0.38,-0.42,-0.07
2020-08-12 20:7:54.9950,0.31,-0.22,0.22
2020-08-12 20:7:55.0940,-1.0,0.17,-0.09
2020-08-12 20:7:55.1930,-0.32,-0.32,-0.19
2020-08-12 20:7:55.2930,-0.05,-0.39,-0.01
2020-08-12 20:7:55.3920,0.6,-0.17,0.05
2020-08-12 20:7:55.4910,0.94,0.03,0.16
2020-08-12 20:7:55.5900,-0.98,-0.63,-0.98
2020-08-12 20:7:55.6900,0.62,-0.02,0.26
2020-08-12 20:7:55.7890,-0.05,0.03,-0.08
2020-08-12 20:7:55.8880,-0.1,0.03,0.07
2020-08-12 20:7:55.9870,-0.07,0.04,0.06
2020-08-12 20:7:56.0870,-0.14,0.04,0.02
2020-08-12 20:7:56.1860,-0.2,0.08,0.12
2020-08-12 20:7:56.2850,0.02,-0.02,-0.07
2020-08-12 20:7:56.3840,-0.01,0.0,0.0
2020-08-12 20:7:56.4840,-0.02,0.0,-0.0
2020-08-12 20:7:56.5830,-0.0,-0.03,0.0
2020-08-12 20:7:56.6820,-0.09,0.02,0.0
2020-08-12 20:7:56.7810,-0.2,-0.28,-0.0
2020-08-12 20:7:56.8810,-0.41,-0.33,0.11
2020-08-12 20:7:56.9800,-1.2,0.17,-0.06
2020-08-12 20:7:57.0790,-0.73,-0.09,-0.13
2020-08-12 20:7:57.1780,-0.1,-0.37,-0.07
2020-08-12 20:7:57.2780,0.18,-0.25,0.05
2020-08-12 20:7:57.3770,0.76,-0.02,0.31
2020-08-12 20:7:57.4760,1.12,0.15,0.43
2020-08-12 20:7:57.5760,0.46,-0.08,-0.24
2020-08-12 20:7:57.6750,-0.09,-0.05,-0.02
2020-08-12 20:7:57.7740,-0.13,0.02,0.09
2020-08-12 20:7:57.8730,-0.05,0.02,-0.0
2020-08-12 20:7:57.9720,0.18,-0.08,-0.15
2020-08-12 20:7:58.0720,0.07,-0.02,-0.03
2020-08-12 20:7:58.1710,0.02,0.0,0.01
2020-08-12 20:7:58.2700,-0.04,0.02,0.02
2020-08-12 20:7:58.3690,-0.01,0.01,-0.01
2020-08-12 20:7:58.4690,-0.01,-0.0,-0.02
2020-08-12 20:7:58.5680,-0.03,0.01,-0.01
2020-08-12 20:7:58.6670,-0.04,-0.03,-0.02
2020-08-12 20:7:58.7670,-0.21,-0.34,0.03
2020-08-12 20:7:58.8660,-0.56,-0.2,0.04
2020-08-12 20:7:58.9650,-0.98,-0.0,-0.1
2020-08-12 20:7:59.0640,-0.7,-0.07,-0.05
2020-08-12 20:7:59.1640,-0.03,-0.39,-0.05
2020-08-12 20:7:59.2630,0.32,-0.35,-0.01
2020-08-12 20:7:59.3620,0.75,-0.0,0.22
2020-08-12 20:7:59.4600,1.06,0.05,0.29
2020-08-12 20:7:59.5600,0.22,-0.81,-0.21
2020-08-12 20:7:59.6660,0.11,0.05,0.06
2020-08-12 20:7:59.7590,-0.07,0.05,0.2
2020-08-12 20:7:59.8590,0.09,-0.05,-0.03
2020-08-12 20:7:59.9630,0.09,-0.03,-0.07
2020-08-12 20:8:00.0560,0.03,-0.02,-0.04
2020-08-12 20:8:00.1570,0.01,0.0,0.01
2020-08-12 20:8:00.2560,-0.03,0.0,0.01
2020-08-12 20:8:00.3550,-0.0,-0.01,-0.02
2020-08-12 20:8:00.4540,-0.02,-0.02,0.03
2020-08-12 20:8:00.5530,-0.03,-0.03,0.03
2020-08-12 20:8:00.6520,-0.21,-0.28,-0.05
2020-08-12 20:8:00.7520,-0.42,-0.32,0.17
2020-08-12 20:8:00.8510,-1.19,0.26,0.02
2020-08-12 20:8:00.9500,-0.62,-0.11,-0.05
2020-08-12 20:8:01.0490,-0.07,-0.4,-0.04
2020-08-12 20:8:01.1490,0.33,-0.39,-0.03
2020-08-12 20:8:01.2480,0.74,-0.07,0.18
2020-08-12 20:8:01.3470,0.93,0.05,0.28
2020-08-12 20:8:01.4460,0.41,-0.78,-0.31
2020-08-12 20:8:01.5460,-0.2,-0.05,0.18
2020-08-12 20:8:01.6450,-0.09,0.02,0.15
2020-08-12 20:8:01.7440,0.03,-0.02,-0.05
2020-08-12 20:8:01.8430,-0.06,0.0,0.02
2020-08-12 20:8:01.9430,-0.01,0.01,0.02
2020-08-12 20:8:02.0430,-0.01,0.01,-0.01
2020-08-12 20:8:02.1410,0.01,0.0,0.01
2020-08-12 20:8:02.2400,-0.05,0.02,-0.01
2020-08-12 20:8:02.3400,0.05,-0.03,-0.08
2020-08-12 20:8:02.4390,-0.37,-0.07,0.05
2020-08-12 20:8:02.5380,-0.21,-0.41,-0.0
2020-08-12 20:8:02.6370,-0.59,-0.06,-0.04
2020-08-12 20:8:02.7370,-0.84,-0.01,-0.18
2020-08-12 20:8:02.8360,-0.23,-0.34,-0.1
2020-08-12 20:8:02.9350,0.39,-0.27,-0.08
2020-08-12 20:8:03.0340,0.64,0.01,0.18
2020-08-12 20:8:03.1340,0.83,0.04,0.37
2020-08-12 20:8:03.2330,-0.84,-1.1,0.8
2020-08-12 20:8:03.3320,0.08,-0.09,0.4
2020-08-12 20:8:03.4320,0.14,-0.02,0.03
2020-08-12 20:8:03.5310,0.15,-0.06,-0.1
2020-08-12 20:8:03.6300,0.06,0.01,0.01
2020-08-12 20:8:03.7290,-0.04,-0.0,-0.01
2020-08-12 20:8:03.8280,0.01,-0.02,-0.03
2020-08-12 20:8:03.9280,0.02,-0.0,0.0
2020-08-12 20:8:04.0270,-0.03,0.0,0.02
2020-08-12 20:8:04.1260,-0.02,0.01,-0.03
2020-08-12 20:8:04.2250,-0.04,-0.01,-0.0
2020-08-12 20:8:04.3250,-0.05,-0.08,0.03
2020-08-12 20:8:04.4240,-0.31,-0.44,-0.12
2020-08-12 20:8:04.5230,-0.12,-0.23,0.19
2020-08-12 20:8:04.6220,-1.14,0.27,0.09
2020-08-12 20:8:04.7220,-0.44,-0.25,-0.07
2020-08-12 20:8:04.8210,0.05,-0.44,0.03
2020-08-12 20:8:04.9200,0.56,-0.21,0.1
2020-08-12 20:8:05.0200,0.96,-0.02,0.25
2020-08-12 20:8:05.1190,-1.67,-0.26,0.16
2020-08-12 20:8:05.2180,0.09,-0.09,0.6
2020-08-12 20:8:05.3170,0.12,0.02,-0.04
2020-08-12 20:8:05.4160,0.01,-0.01,-0.02
2020-08-12 20:8:05.5160,0.04,0.0,-0.05
2020-08-12 20:8:05.6150,0.05,-0.01,-0.03
2020-08-12 20:8:05.7140,-0.04,0.0,0.05
2020-08-12 20:8:05.8140,-0.02,0.01,0.02
2020-08-12 20:8:05.9130,0.02,0.0,-0.01
2020-08-12 20:8:06.0120,-0.02,0.01,-0.02
2020-08-12 20:8:06.1110,-0.05,-0.0,-0.0
2020-08-12 20:8:06.2110,-0.1,-0.03,-0.01
2020-08-12 20:8:06.3100,-0.29,-0.34,-0.05
2020-08-12 20:8:06.4090,-0.54,-0.22,0.09
2020-08-12 20:8:06.5080,-1.31,0.26,-0.07
2020-08-12 20:8:06.6080,-0.66,-0.0,-0.02
2020-08-12 20:8:06.7070,-0.05,-0.32,-0.02
2020-08-12 20:8:06.8060,0.36,-0.38,0.07
2020-08-12 20:8:06.9050,0.77,-0.09,0.15
2020-08-12 20:8:07.0050,0.95,0.07,0.24
2020-08-12 20:8:07.1040,0.28,-0.4,-0.11
2020-08-12 20:8:07.2030,-0.02,0.05,-0.09
2020-08-12 20:8:07.3020,-0.07,0.03,0.07
2020-08-12 20:8:07.4020,0.04,-0.01,-0.03
2020-08-12 20:8:07.5010,0.02,0.01,-0.01
2020-08-12 20:8:07.6000,-0.01,0.01,0.02
2020-08-12 20:8:07.6990,-0.05,0.02,-0.0
2020-08-12 20:8:07.7990,-0.0,0.0,0.01
2020-08-12 20:8:07.8980,-0.01,0.04,0.02
2020-08-12 20:8:07.9970,-0.03,0.01,-0.03
2020-08-12 20:8:08.0960,-0.09,0.0,-0.01
2020-08-12 20:8:08.1960,-0.12,-0.04,-0.06
2020-08-12 20:8:08.2950,-0.25,-0.21,-0.03
2020-08-12 20:8:08.3940,-0.19,-0.38,0.25
2020-08-12 20:8:08.4930,-1.08,0.25,0.02
2020-08-12 20:8:08.5930,-0.43,-0.2,-0.09
2020-08-12 20:8:08.6920,0.06,-0.45,0.03
2020-08-12 20:8:08.7910,0.55,-0.22,0.14
2020-08-12 20:8:08.8900,0.85,0.01,0.12
2020-08-12 20:8:08.9900,0.86,-0.04,0.07
2020-08-12 20:8:09.0890,1.0,-0.1,-0.08
2020-08-12 20:8:09.1880,0.06,-0.01,-0.17
2020-08-12 20:8:09.2870,-0.1,0.07,0.05
2020-08-12 20:8:09.3870,-0.02,-0.0,-0.01
2020-08-12 20:8:09.4860,0.01,-0.01,-0.01
2020-08-12 20:8:09.5850,0.01,-0.01,0.0
2020-08-12 20:8:09.6840,0.01,0.0,-0.0
2020-08-12 20:8:09.7840,-0.02,-0.0,-0.02
2020-08-12 20:8:09.8830,-0.02,-0.01,-0.02
2020-08-12 20:8:09.9820,0.03,-0.03,-0.09
2020-08-12 20:8:10.0820,-0.03,-0.03,0.02
2020-08-12 20:8:10.1810,-0.12,-0.26,0.02
2020-08-12 20:8:10.2800,-0.4,-0.26,-0.02
2020-08-12 20:8:10.3790,-0.21,-0.19,0.3
2020-08-12 20:8:10.4780,-0.72,0.15,0.04
2020-08-12 20:8:10.5780,-0.16,-0.22,-0.09
2020-08-12 20:8:10.6770,-0.06,-0.28,-0.05
2020-08-12 20:8:10.7760,0.16,-0.17,-0.02
2020-08-12 20:8:10.8750,0.44,-0.07,0.14
2020-08-12 20:8:10.9750,0.79,0.04,0.14
2020-08-12 20:8:11.0740,-1.62,-0.21,-0.73
2020-08-12 20:8:11.1730,0.45,0.03,0.06
2020-08-12 20:8:11.2720,-0.0,-0.0,-0.15
2020-08-12 20:8:11.3720,-0.05,0.04,0.05
2020-08-12 20:8:11.4710,-0.06,0.02,0.02
2020-08-12 20:8:11.5700,-0.07,0.02,0.01
2020-08-12 20:8:11.6690,-0.06,0.02,0.02
2020-08-12 20:8:11.7690,-0.03,-0.0,0.01
2020-08-12 20:8:11.8680,0.02,0.01,-0.02
2020-08-12 20:8:11.9670,0.0,0.02,-0.03
2020-08-12 20:8:12.0660,0.03,-0.02,-0.03
2020-08-12 20:8:12.1660,-0.06,-0.05,-0.03
2020-08-12 20:8:12.2650,-0.14,-0.12,-0.03
2020-08-12 20:8:12.3640,-0.57,-0.23,-0.06
2020-08-12 20:8:12.4640,0.04,-0.35,0.18
2020-08-12 20:8:12.5630,-0.91,0.11,0.01
2020-08-12 20:8:12.6620,-0.22,-0.32,-0.06
2020-08-12 20:8:12.7610,0.07,-0.4,0.04
2020-08-12 20:8:12.8610,0.45,-0.2,0.13
2020-08-12 20:8:12.9600,0.87,0.01,0.14
2020-08-12 20:8:13.0590,0.58,-0.34,0.15
2020-08-12 20:8:13.1580,1.02,-0.36,-0.15
2020-08-12 20:8:13.2580,0.02,0.04,-0.12
2020-08-12 20:8:13.3570,0.1,-0.0,0.02
2020-08-12 20:8:13.4560,0.09,-0.03,-0.07
2020-08-12 20:8:13.5550,0.03,-0.02,-0.02
2020-08-12 20:8:13.6540,-0.04,0.0,0.02
2020-08-12 20:8:13.7540,-0.05,0.01,0.01
2020-08-12 20:8:13.8530,-0.02,-0.0,-0.0
2020-08-12 20:8:13.9530,-0.0,0.0,-0.01
2020-08-12 20:8:14.0520,0.01,-0.04,0.0
2020-08-12 20:8:14.1510,-0.08,-0.03,0.0
2020-08-12 20:8:14.2500,-0.14,-0.24,-0.02
2020-08-12 20:8:14.3490,-0.51,-0.34,-0.04
2020-08-12 20:8:14.4490,-0.3,-0.12,0.2
2020-08-12 20:8:14.5480,-0.89,0.02,-0.05
2020-08-12 20:8:14.6470,-0.15,-0.4,-0.06
2020-08-12 20:8:14.7460,0.19,-0.32,0.07
2020-08-12 20:8:14.8460,0.66,-0.16,0.1
2020-08-12 20:8:14.9450,0.92,0.01,0.18
2020-08-12 20:8:15.0440,-1.08,-0.42,-0.63
2020-08-12 20:8:15.1430,0.43,-0.09,0.26
2020-08-12 20:8:15.2430,-0.23,0.03,-0.04
2020-08-12 20:8:15.3420,-0.01,0.01,-0.03
2020-08-12 20:8:15.4410,-0.02,0.04,0.02
2020-08-12 20:8:15.5400,0.07,-0.05,-0.08
2020-08-12 20:8:15.6400,-0.03,-0.0,-0.01
2020-08-12 20:8:15.7390,-0.06,-0.01,0.01
2020-08-12 20:8:15.8380,-0.0,-0.01,-0.01
2020-08-12 20:8:15.9370,-0.04,-0.01,0.02
2020-08-12 20:8:16.0370,-0.06,-0.04,0.01
2020-08-12 20:8:16.1360,-0.08,-0.04,-0.03
2020-08-12 20:8:16.2350,-0.23,-0.61,0.01
2020-08-12 20:8:16.3350,-0.13,-0.29,0.26
2020-08-12 20:8:16.4340,-1.37,0.26,0.1
2020-08-12 20:8:16.5330,-0.44,-0.12,-0.12
2020-08-12 20:8:16.6320,-0.07,-0.39,-0.05
2020-08-12 20:8:16.7320,0.15,-0.31,-0.06
2020-08-12 20:8:16.8310,0.64,-0.14,0.19
2020-08-12 20:8:16.9300,0.98,0.06,0.27
2020-08-12 20:8:17.0290,-0.99,-1.25,0.95
2020-08-12 20:8:17.1280,0.24,-0.18,0.35
2020-08-12 20:8:17.2280,-0.01,0.04,0.08
2020-08-12 20:8:17.3270,0.02,-0.01,-0.01
2020-08-12 20:8:17.4260,0.03,-0.01,-0.04
2020-08-12 20:8:17.5260,-0.06,0.0,0.04
2020-08-12 20:8:17.6250,-0.0,-0.0,0.0
2020-08-12 20:8:17.7240,0.03,0.01,-0.01
2020-08-12 20:8:17.8230,0.01,0.01,-0.02
2020-08-12 20:8:17.9230,0.01,-0.02,-0.04
2020-08-12 20:8:18.0220,-0.02,-0.04,-0.02
2020-08-12 20:8:18.1210,-0.16,-0.39,-0.04
2020-08-12 20:8:18.2200,-0.53,-0.24,0.21
2020-08-12 20:8:18.3200,-0.99,0.23,-0.0
2020-08-12 20:8:18.4190,-0.61,0.02,-0.08
2020-08-12 20:8:18.5180,-0.08,-0.33,-0.1
2020-08-12 20:8:18.6170,0.09,-0.24,0.0
2020-08-12 20:8:18.7160,0.35,-0.05,0.04
2020-08-12 20:8:18.8160,0.31,0.2,0.1
2020-08-12 20:8:18.9150,1.0,0.12,0.31
2020-08-12 20:8:19.0140,1.15,-0.02,-0.39
2020-08-12 20:8:19.1130,0.08,0.09,-0.19
2020-08-12 20:8:19.2130,-0.05,0.07,0.03
2020-08-12 20:8:19.3120,0.13,-0.04,-0.12
2020-08-12 20:8:19.4120,0.07,-0.01,-0.01
2020-08-12 20:8:19.5110,-0.02,-0.0,-0.02
2020-08-12 20:8:19.6100,-0.04,0.01,-0.01
2020-08-12 20:8:19.7090,-0.0,-0.01,0.01
2020-08-12 20:8:19.8080,0.07,-0.0,0.03
2020-08-12 20:8:19.9080,0.02,-0.01,-0.02
2020-08-12 20:8:20.0070,0.07,0.02,-0.02
2020-08-12 20:8:20.1060,0.16,0.05,-0.01
2020-08-12 20:8:20.2050,0.02,0.04,-0.07
2020-08-12 20:8:20.3050,-0.03,0.02,-0.02
2020-08-12 20:8:20.4040,0.03,-0.0,0.05
2020-08-12 20:8:20.5030,-0.05,0.01,0.02
2020-08-12 20:8:20.6020,0.02,-0.02,0.0
2020-08-12 20:8:20.7010,0.0,-0.01,-0.02
2020-08-12 20:8:20.8010,0.01,-0.02,-0.06
2020-08-12 20:8:20.9000,0.07,-0.0,-0.07
2020-08-12 20:8:20.9990,0.11,-0.01,-0.1
2020-08-12 20:8:21.0990,0.0,0.02,-0.0
2020-08-12 20:8:21.1980,0.02,-0.0,-0.04
2020-08-12 20:8:21.2970,-0.03,0.02,0.01
2020-08-12 20:8:21.3960,0.03,0.01,-0.02
2020-08-12 20:8:21.4960,0.02,0.01,-0.02
2020-08-12 20:8:21.5950,-0.04,0.02,-0.0
2020-08-12 20:8:21.6940,0.06,-0.0,-0.02
2020-08-12 20:8:21.7930,-0.01,0.02,-0.0
2020-08-12 20:8:21.8930,0.01,0.01,-0.01
2020-08-12 20:8:21.9920,0.01,0.01,-0.01
2020-08-12 20:8:22.0910,-0.01,0.01,0.01
2020-08-12 20:8:22.1910,0.01,0.0,-0.01
2020-08-12 20:8:22.2900,0.0,0.01,-0.01
2020-08-12 20:8:22.3890,-0.01,0.0,-0.0
2020-08-12 20:8:22.4880,-0.01,0.01,-0.01
2020-08-12 20:8:22.5870,-0.0,-0.0,0.0
2020-08-12 20:8:22.6870,-0.01,0.01,0.01
2020-08-12 20:8:22.7860,0.0,0.0,0.0
2020-08-12 20:8:22.8850,0.0,0.01,0.0
2020-08-12 20:8:22.9840,0.02,-0.01,-0.02
2020-08-12 20:8:23.0840,-0.02,0.01,0.01
2020-08-12 20:8:23.1830,-0.01,0.01,-0.0
2020-08-12 20:8:23.2820,-0.0,0.0,-0.01
2020-08-12 20:8:23.3820,0.05,-0.04,0.0
2020-08-12 20:8:23.4810,0.04,0.01,-0.03
