time,ax,ay,az
2020-08-12 20:24:44.6020,-0.05,0.02,0.02
2020-08-12 20:24:44.7010,-0.01,-0.01,-0.0
2020-08-12 20:24:44.8000,-0.03,-0.01,-0.0
2020-08-12 20:24:44.8990,-0.0,-0.01,0.01
2020-08-12 20:24:44.9980,0.01,-0.0,-0.02
2020-08-12 20:24:45.0980,0.02,0.04,0.01
2020-08-12 20:24:45.1970,0.11,0.0,-0.06
2020-08-12 20:24:45.2980,-0.01,0.0,0.01
2020-08-12 20:24:45.3950,-0.01,0.01,0.0
2020-08-12 20:24:45.4950,-0.07,-0.01,0.04
2020-08-12 20:24:45.5940,-0.08,0.03,0.01
2020-08-12 20:24:45.6930,-0.08,0.0,0.01
2020-08-12 20:24:45.7930,-0.01,-0.01,0.03
2020-08-12 20:24:45.8920,0.01,0.01,0.03
2020-08-12 20:24:45.9910,-0.02,-0.01,0.02
2020-08-12 20:24:46.0900,-0.0,0.0,-0.01
2020-08-12 20:24:46.1900,-0.09,0.0,0.03
2020-08-12 20:24:46.2890,-0.04,-0.01,0.03
2020-08-12 20:24:46.3880,-0.19,-0.11,0.22
2020-08-12 20:24:46.4870,-0.25,-0.23,0.26
2020-08-12 20:24:46.5870,-0.61,0.11,-0.16
2020-08-12 20:24:46.6860,-0.14,-0.11,-0.12
2020-08-12 20:24:46.7850,0.45,-0.07,-0.01
2020-08-12 20:24:46.8840,0.66,0.09,0.07
2020-08-12 20:24:46.9840,-0.33,-0.17,-0.28
2020-08-12 20:24:47.0830,0.67,-0.19,-0.1
2020-08-12 20:24:47.1820,-0.16,0.03,-0.11
2020-08-12 20:24:47.2810,-0.12,0.03,0.11
2020-08-12 20:24:47.3810,0.06,-0.04,-0.09
2020-08-12 20:24:47.4800,0.04,0.06,0.01
2020-08-12 20:24:47.5790,-0.03,0.06,0.05
2020-08-12 20:24:47.6780,0.16,-0.09,-0.12
2020-08-12 20:24:47.7770,0.04,-0.03,-0.03
2020-08-12 20:24:47.8770,-0.01,0.02,0.01
2020-08-12 20:24:47.9760,0.01,0.02,-0.02
2020-08-12 20:24:48.0760,0.02,-0.04,-0.01
2020-08-12 20:24:48.1750,-0.02,-0.07,0.03
2020-08-12 20:24:48.2740,-0.19,-0.08,-0.16
2020-08-12 20:24:48.3730,-0.0,-0.27,0.23
2020-08-12 20:24:48.4720,-1.04,0.29,0.12
2020-08-12 20:24:48.5720,-0.36,-0.23,0.04
2020-08-12 20:24:48.6710,0.23,-0.23,0.16
2020-08-12 20:24:48.7700,0.46,-0.06,0.18
2020-08-12 20:24:48.8690,0.71,0.02,-0.06
2020-08-12 20:24:48.9690,0.41,-0.16,-0.1
2020-08-12 20:24:49.0680,0.54,0.11,-0.27
2020-08-12 20:24:49.1670,-0.11,0.05,-0.12
2020-08-12 20:24:49.2660,-0.02,0.01,0.11
2020-08-12 20:24:49.3660,0.04,-0.06,-0.01
2020-08-12 20:24:49.4650,0.0,-0.01,-0.03
2020-08-12 20:24:49.5640,-0.0,0.02,0.02
2020-08-12 20:24:49.6640,0.01,-0.02,0.02
2020-08-12 20:24:49.7630,0.0,0.0,0.01
2020-08-12 20:24:49.8620,0.01,0.02,-0.01
2020-08-12 20:24:49.9610,-0.05,0.0,0.01
2020-08-12 20:24:50.0600,-0.1,-0.07,0.0
2020-08-12 20:24:50.1600,-0.29,-0.26,-0.05
2020-08-12 20:24:50.2590,-0.03,-0.22,0.41
2020-08-12 20:24:50.3580,-0.99,0.29,0.23
2020-08-12 20:24:50.4570,-0.26,-0.17,0.04
2020-08-12 20:24:50.5570,0.23,-0.3,0.05
2020-08-12 20:24:50.6560,0.78,-0.11,-0.05
2020-08-12 20:24:50.7550,0.84,-0.0,-0.02
2020-08-12 20:24:50.8550,-1.21,0.08,-0.13
2020-08-12 20:24:50.9540,0.23,-0.05,0.41
2020-08-12 20:24:51.0530,-0.01,-0.01,-0.04
2020-08-12 20:24:51.1520,0.05,-0.02,-0.02
2020-08-12 20:24:51.2510,0.07,0.0,0.01
2020-08-12 20:24:51.3510,0.01,-0.01,0.01
2020-08-12 20:24:51.4500,-0.05,0.02,0.04
2020-08-12 20:24:51.5490,-0.03,0.01,0.03
2020-08-12 20:24:51.6480,-0.01,0.03,0.02
2020-08-12 20:24:51.7480,0.02,-0.09,-0.08
2020-08-12 20:24:51.8470,-0.03,-0.13,-0.05
2020-08-12 20:24:51.9460,-0.52,-0.55,0.11
2020-08-12 20:24:52.0450,-0.1,-0.31,-0.08
2020-08-12 20:24:52.1450,-0.92,0.33,0.12
2020-08-12 20:24:52.2440,-0.14,-0.34,0.02
2020-08-12 20:24:52.3430,0.31,-0.3,0.14
2020-08-12 20:24:52.4430,0.68,-0.2,-0.02
2020-08-12 20:24:52.5420,0.96,0.02,-0.09
2020-08-12 20:24:52.6410,-0.59,-0.22,-0.45
2020-08-12 20:24:52.7400,0.69,-0.2,0.07
2020-08-12 20:24:52.8390,0.15,-0.04,-0.15
2020-08-12 20:24:52.9390,0.06,0.0,0.07
2020-08-12 20:24:53.0380,-0.01,0.02,0.03
2020-08-12 20:24:53.1370,-0.0,0.0,0.03
2020-08-12 20:24:53.2360,-0.01,-0.0,-0.01
2020-08-12 20:24:53.3360,-0.02,0.0,0.02
2020-08-12 20:24:53.4350,0.06,-0.03,-0.08
2020-08-12 20:24:53.5340,-0.01,-0.02,-0.04
2020-08-12 20:24:53.6340,-0.09,-0.1,-0.05
2020-08-12 20:24:53.7330,-0.54,-0.51,0.18
2020-08-12 20:24:53.8320,-0.06,-0.15,0.03
2020-08-12 20:24:53.9310,-0.66,0.2,0.19
2020-08-12 20:24:54.0310,-0.16,-0.26,0.12
2020-08-12 20:24:54.1300,0.16,-0.36,0.1
2020-08-12 20:24:54.2290,0.74,-0.2,0.05
2020-08-12 20:24:54.3280,0.76,0.04,-0.03
2020-08-12 20:24:54.4280,-0.85,-0.23,-0.79
2020-08-12 20:24:54.5270,0.33,0.02,0.34
2020-08-12 20:24:54.6260,0.04,-0.01,-0.05
2020-08-12 20:24:54.7250,0.13,-0.04,-0.03
2020-08-12 20:24:54.8240,0.05,0.02,0.02
2020-08-12 20:24:54.9240,0.03,0.03,0.02
2020-08-12 20:24:55.0230,-0.06,-0.03,0.0
2020-08-12 20:24:55.1220,-0.05,0.01,0.05
2020-08-12 20:24:55.2210,-0.03,-0.02,0.01
2020-08-12 20:24:55.3210,-0.05,-0.0,0.14
2020-08-12 20:24:55.4200,-0.08,-0.08,-0.11
2020-08-12 20:24:55.5190,-0.33,-0.55,-0.21
2020-08-12 20:24:55.6180,0.13,-0.17,0.18
2020-08-12 20:24:55.7180,-0.93,0.07,-0.03
2020-08-12 20:24:55.8170,0.23,-0.62,0.1
2020-08-12 20:24:55.9160,0.63,-0.41,0.06
2020-08-12 20:24:56.0160,0.93,-0.01,-0.13
2020-08-12 20:24:56.1150,0.57,-0.08,-0.01
2020-08-12 20:24:56.2140,0.66,-0.4,-0.17
2020-08-12 20:24:56.3130,0.31,-0.06,-0.11
2020-08-12 20:24:56.4130,0.13,0.02,0.19
2020-08-12 20:24:56.5120,-0.01,-0.05,-0.12
2020-08-12 20:24:56.6110,0.09,-0.02,-0.09
2020-08-12 20:24:56.7100,-0.08,0.05,0.11
2020-08-12 20:24:56.8090,0.06,-0.07,-0.05
2020-08-12 20:24:56.9090,-0.02,0.02,0.06
2020-08-12 20:24:57.0080,0.03,0.0,-0.02
2020-08-12 20:24:57.1070,-0.01,-0.02,-0.01
2020-08-12 20:24:57.2060,-0.18,-0.15,-0.02
2020-08-12 20:24:57.3060,-0.51,-0.29,-0.04
2020-08-12 20:24:57.4050,-0.49,-0.05,0.06
2020-08-12 20:24:57.5040,-0.73,0.04,0.15
2020-08-12 20:24:57.6040,0.01,-0.28,0.19
2020-08-12 20:24:57.7030,0.29,-0.28,0.13
2020-08-12 20:24:57.8010,0.7,-0.12,0.07
2020-08-12 20:24:57.9010,0.82,0.01,-0.04
2020-08-12 20:24:58.0010,-0.71,0.01,-0.34
2020-08-12 20:24:58.1000,0.26,-0.13,0.26
2020-08-12 20:24:58.1990,0.02,0.03,0.04
2020-08-12 20:24:58.2980,-0.03,0.01,0.04
2020-08-12 20:24:58.3980,0.01,-0.01,-0.01
2020-08-12 20:24:58.4970,-0.03,-0.0,0.02
2020-08-12 20:24:58.5960,-0.08,0.03,0.07
2020-08-12 20:24:58.6950,-0.0,-0.01,0.01
2020-08-12 20:24:58.7950,-0.04,-0.0,0.02
2020-08-12 20:24:58.8940,0.0,-0.0,0.02
2020-08-12 20:24:58.9930,-0.01,-0.03,0.0
2020-08-12 20:24:59.0920,-0.1,-0.11,-0.09
2020-08-12 20:24:59.1910,-0.46,-0.22,-0.1
2020-08-12 20:24:59.2910,0.14,-0.24,0.24
2020-08-12 20:24:59.3900,-0.87,0.19,0.21
2020-08-12 20:24:59.4890,-0.25,-0.13,0.15
2020-08-12 20:24:59.5890,0.06,-0.37,0.16
2020-08-12 20:24:59.6880,0.56,-0.16,0.05
2020-08-12 20:24:59.7870,0.72,-0.01,-0.11
2020-08-12 20:24:59.8860,0.61,-0.09,-0.1
2020-08-12 20:24:59.9860,0.35,-0.26,-0.0
2020-08-12 20:25:00.0850,0.05,0.02,-0.03
2020-08-12 20:25:00.1840,0.15,0.01,0.03
2020-08-12 20:25:00.2840,0.0,0.02,-0.01
2020-08-12 20:25:00.3830,0.0,-0.0,-0.01
2020-08-12 20:25:00.4820,0.06,0.01,-0.01
2020-08-12 20:25:00.5810,-0.06,0.02,0.02
2020-08-12 20:25:00.6800,-0.02,0.01,0.0
2020-08-12 20:25:00.7790,-0.05,0.0,0.02
2020-08-12 20:25:00.8790,-0.04,0.01,0.03
2020-08-12 20:25:00.9780,-0.1,-0.07,0.06
2020-08-12 20:25:01.0770,-0.27,-0.2,-0.02
2020-08-12 20:25:01.1760,-0.23,-0.13,0.27
2020-08-12 20:25:01.2760,-1.03,0.25,0.24
2020-08-12 20:25:01.3750,-0.44,-0.14,-0.05
2020-08-12 20:25:01.4740,0.11,-0.24,0.04
2020-08-12 20:25:01.5740,0.61,-0.25,0.11
2020-08-12 20:25:01.6730,0.91,-0.02,-0.0
2020-08-12 20:25:01.7720,-0.89,0.03,-0.11
2020-08-12 20:25:01.8710,-0.05,0.11,0.18
2020-08-12 20:25:01.9710,-0.24,0.05,-0.03
2020-08-12 20:25:02.0700,-0.1,0.01,0.07
2020-08-12 20:25:02.1690,0.03,-0.03,-0.03
2020-08-12 20:25:02.2680,-0.01,-0.0,-0.03
2020-08-12 20:25:02.3680,-0.04,0.02,0.0
2020-08-12 20:25:02.4670,-0.06,0.01,0.02
2020-08-12 20:25:02.5660,-0.04,-0.01,0.04
2020-08-12 20:25:02.6650,0.01,-0.01,-0.09
2020-08-12 20:25:02.7650,0.02,-0.02,-0.02
2020-08-12 20:25:02.8640,-0.05,-0.11,0.04
2020-08-12 20:25:02.9620,-0.47,-0.38,-0.05
2020-08-12 20:25:03.0630,0.0,-0.14,0.27
2020-08-12 20:25:03.1620,-0.83,0.16,0.14
2020-08-12 20:25:03.2600,0.01,-0.22,-0.08
2020-08-12 20:25:03.3600,0.11,-0.25,0.02
2020-08-12 20:25:03.4600,0.68,-0.2,0.1
2020-08-12 20:25:03.5580,0.78,-0.0,0.03
2020-08-12 20:25:03.6570,-0.82,0.03,-0.4
2020-08-12 20:25:03.7560,-0.02,0.1,0.16
2020-08-12 20:25:03.8570,-0.02,-0.04,0.0
2020-08-12 20:25:03.9560,0.05,0.01,0.07
2020-08-12 20:25:04.0550,0.03,-0.0,-0.04
2020-08-12 20:25:04.1540,0.04,-0.01,-0.01
2020-08-12 20:25:04.2530,-0.02,0.01,0.02
2020-08-12 20:25:04.3530,-0.02,0.01,0.04
2020-08-12 20:25:04.4510,-0.02,0.01,0.02
2020-08-12 20:25:04.5510,-0.05,-0.01,0.02
2020-08-12 20:25:04.6500,-0.08,-0.0,0.07
2020-08-12 20:25:04.7490,-0.02,-0.02,-0.02
2020-08-12 20:25:04.8480,-0.24,-0.3,-0.01
2020-08-12 20:25:04.9470,-0.25,-0.11,0.32
2020-08-12 20:25:05.0470,-1.22,0.28,0.2
2020-08-12 20:25:05.1460,-0.53,-0.07,0.12
2020-08-12 20:25:05.2460,0.1,-0.36,0.07
2020-08-12 20:25:05.3450,0.51,-0.24,0.06
2020-08-12 20:25:05.4440,0.89,-0.03,-0.01
2020-08-12 20:25:05.5440,0.62,-0.1,-0.05
2020-08-12 20:25:05.6430,0.39,-0.27,-0.02
2020-08-12 20:25:05.7420,0.15,-0.06,-0.02
2020-08-12 20:25:05.8420,0.09,0.02,0.06
2020-08-12 20:25:05.9400,0.01,0.01,0.06
2020-08-12 20:25:06.0400,-0.11,0.03,0.01
2020-08-12 20:25:06.1380,-0.04,0.02,0.05
2020-08-12 20:25:06.2390,-0.05,0.03,0.03
2020-08-12 20:25:06.3380,-0.09,0.02,0.08
2020-08-12 20:25:06.4370,-0.06,-0.02,-0.0
2020-08-12 20:25:06.5350,-0.0,-0.02,-0.01
2020-08-12 20:25:06.6350,0.0,-0.04,-0.05
2020-08-12 20:25:06.7350,-0.22,-0.34,0.05
2020-08-12 20:25:06.8330,-0.43,-0.29,0.08
2020-08-12 20:25:06.9320,-0.42,-0.02,0.28
2020-08-12 20:25:07.0320,-0.69,0.08,0.07
2020-08-12 20:25:07.1320,0.05,-0.31,-0.01
2020-08-12 20:25:07.2300,0.28,-0.35,0.02
2020-08-12 20:25:07.3300,0.74,-0.1,0.09
2020-08-12 20:25:07.4290,0.94,-0.0,0.13
2020-08-12 20:25:07.5280,-0.07,-0.25,-0.03
2020-08-12 20:25:07.6280,0.25,-0.1,0.16
2020-08-12 20:25:07.7270,0.06,-0.02,0.03
2020-08-12 20:25:07.8260,-0.0,0.02,0.04
2020-08-12 20:25:07.9260,0.02,0.03,0.08
2020-08-12 20:25:08.0250,0.11,-0.06,-0.12
2020-08-12 20:25:08.1240,0.02,-0.01,-0.02
2020-08-12 20:25:08.2240,-0.02,0.01,0.02
2020-08-12 20:25:08.3230,0.01,-0.0,-0.03
2020-08-12 20:25:08.4220,0.01,-0.02,-0.01
2020-08-12 20:25:08.5200,-0.04,-0.05,-0.01
2020-08-12 20:25:08.6210,-0.15,-0.14,0.01
2020-08-12 20:25:08.7200,-0.44,-0.34,-0.02
2020-08-12 20:25:08.8190,0.1,-0.21,0.23
2020-08-12 20:25:08.9180,-0.8,0.12,0.03
2020-08-12 20:25:09.0170,-0.03,-0.3,-0.0
2020-08-12 20:25:09.1170,0.16,-0.31,0.05
2020-08-12 20:25:09.2150,0.7,-0.18,0.04
2020-08-12 20:25:09.3150,0.89,-0.01,0.08
2020-08-12 20:25:09.4140,-0.99,0.13,-0.24
2020-08-12 20:25:09.5140,0.1,-0.02,0.05
2020-08-12 20:25:09.6130,0.16,-0.06,-0.06
2020-08-12 20:25:09.7120,0.08,0.0,0.02
2020-08-12 20:25:09.8120,0.02,-0.01,0.01
2020-08-12 20:25:09.9100,-0.11,0.05,0.05
2020-08-12 20:25:10.0090,-0.01,0.03,0.04
2020-08-12 20:25:10.1090,0.03,-0.03,-0.04
2020-08-12 20:25:10.2090,-0.01,0.0,0.0
2020-08-12 20:25:10.3080,-0.0,-0.01,0.03
2020-08-12 20:25:10.4060,-0.05,-0.02,0.01
2020-08-12 20:25:10.5060,0.0,-0.05,-0.0
2020-08-12 20:25:10.6050,-0.25,-0.37,0.03
2020-08-12 20:25:10.7040,-0.48,-0.21,0.28
2020-08-12 20:25:10.8040,-1.26,0.26,0.06
2020-08-12 20:25:10.9030,-0.54,-0.04,0.03
2020-08-12 20:25:11.0020,0.13,-0.27,0.02
2020-08-12 20:25:11.1010,0.48,-0.3,-0.05
2020-08-12 20:25:11.2000,1.0,-0.09,0.07
2020-08-12 20:25:11.3000,-0.23,-0.34,-0.41
2020-08-12 20:25:11.4000,0.19,-0.12,0.01
2020-08-12 20:25:11.4990,-0.03,0.05,0.07
2020-08-12 20:25:11.5970,-0.01,-0.02,0.02
2020-08-12 20:25:11.6970,0.0,-0.01,-0.04
2020-08-12 20:25:11.7970,-0.03,0.04,0.05
2020-08-12 20:25:11.8950,-0.04,0.02,-0.01
2020-08-12 20:25:11.9950,-0.05,0.02,0.02
2020-08-12 20:25:12.0940,-0.08,0.03,0.03
2020-08-12 20:25:12.1940,-0.02,0.0,0.01
2020-08-12 20:25:12.2930,0.02,-0.01,-0.0
2020-08-12 20:25:12.3920,-0.03,0.01,0.01
2020-08-12 20:25:12.4920,-0.16,-0.32,0.03
2020-08-12 20:25:12.5900,-0.47,-0.27,0.15
2020-08-12 20:25:12.6890,-0.51,0.04,0.2
2020-08-12 20:25:12.7880,-0.64,0.06,0.09
2020-08-12 20:25:12.8880,0.19,-0.4,0.04
2020-08-12 20:25:12.9870,0.37,-0.21,0.02
2020-08-12 20:25:13.0870,0.79,-0.05,0.14
2020-08-12 20:25:13.1860,0.77,0.01,0.14
2020-08-12 20:25:13.2850,-0.23,-0.17,-0.14
2020-08-12 20:25:13.3850,0.48,-0.01,0.18
2020-08-12 20:25:13.4840,0.13,-0.0,0.02
2020-08-12 20:25:13.5820,0.01,0.01,-0.02
2020-08-12 20:25:13.6820,-0.08,0.06,0.03
2020-08-12 20:25:13.7820,0.02,0.0,-0.02
2020-08-12 20:25:13.8800,-0.02,-0.01,-0.02
2020-08-12 20:25:13.9800,0.02,0.0,0.02
2020-08-12 20:25:14.0790,-0.02,0.02,-0.0
2020-08-12 20:25:14.1780,-0.03,0.04,0.01
2020-08-12 20:25:14.2780,-0.09,-0.04,0.02
2020-08-12 20:25:14.3770,-0.22,-0.41,0.17
2020-08-12 20:25:14.4760,-0.63,-0.35,0.19
2020-08-12 20:25:14.5760,-1.02,0.22,0.1
2020-08-12 20:25:14.6750,-0.68,-0.04,0.01
2020-08-12 20:25:14.7740,0.23,-0.39,0.02
2020-08-12 20:25:14.8730,0.48,-0.22,0.02
2020-08-12 20:25:14.9730,0.77,-0.01,0.13
2020-08-12 20:25:15.0720,0.63,-0.16,0.02
2020-08-12 20:25:15.1710,0.49,-0.36,-0.1
2020-08-12 20:25:15.2700,0.02,-0.03,0.12
2020-08-12 20:25:15.3700,0.03,-0.02,-0.0
2020-08-12 20:25:15.4680,0.03,-0.01,-0.03
2020-08-12 20:25:15.5680,-0.03,0.02,0.02
2020-08-12 20:25:15.6670,-0.01,-0.0,0.02
2020-08-12 20:25:15.7670,-0.07,0.03,0.05
2020-08-12 20:25:15.8660,-0.05,-0.01,-0.0
2020-08-12 20:25:15.9650,-0.03,-0.01,0.03
2020-08-12 20:25:16.0640,-0.05,-0.01,0.0
2020-08-12 20:25:16.1630,-0.0,-0.04,-0.01
2020-08-12 20:25:16.2630,-0.05,-0.05,-0.04
2020-08-12 20:25:16.3610,-0.32,-0.23,0.01
2020-08-12 20:25:16.4610,-0.05,-0.27,0.25
2020-08-12 20:25:16.5610,-1.4,0.42,0.22
2020-08-12 20:25:16.6600,-0.41,-0.14,0.04
2020-08-12 20:25:16.7590,0.24,-0.33,0.03
2020-08-12 20:25:16.8590,0.56,-0.2,0.04
2020-08-12 20:25:16.9580,0.87,-0.03,0.06
2020-08-12 20:25:17.0570,-0.15,-0.21,-0.34
2020-08-12 20:25:17.1560,0.49,-0.37,-0.07
2020-08-12 20:25:17.2560,0.1,0.02,-0.05
2020-08-12 20:25:17.3550,0.03,0.02,0.1
2020-08-12 20:25:17.4540,0.1,-0.04,-0.03
2020-08-12 20:25:17.5530,-0.02,0.01,0.01
2020-08-12 20:25:17.6520,0.03,-0.02,0.01
2020-08-12 20:25:17.7510,-0.04,0.01,0.03
2020-08-12 20:25:17.8510,0.02,-0.01,-0.0
2020-08-12 20:25:17.9490,-0.04,0.02,0.01
2020-08-12 20:25:18.0490,-0.04,-0.01,-0.01
2020-08-12 20:25:18.1490,-0.01,-0.04,-0.03
2020-08-12 20:25:18.2480,-0.2,-0.34,0.05
2020-08-12 20:25:18.3470,-0.58,-0.22,0.05
2020-08-12 20:25:18.4470,0.03,-0.05,0.3
2020-08-12 20:25:18.5460,-0.94,0.14,0.03
2020-08-12 20:25:18.6450,-0.06,-0.43,-0.11
2020-08-12 20:25:18.7440,0.29,-0.34,0.05
2020-08-12 20:25:18.8430,1.0,0.01,0.13
2020-08-12 20:25:18.9430,0.71,-0.17,0.07
2020-08-12 20:25:19.0420,0.6,-0.29,-0.1
2020-08-12 20:25:19.1410,0.01,0.01,-0.05
2020-08-12 20:25:19.2410,-0.01,-0.01,0.02
2020-08-12 20:25:19.3390,-0.05,0.03,0.03
2020-08-12 20:25:19.4390,-0.02,0.02,0.03
2020-08-12 20:25:19.5380,-0.01,0.01,0.03
2020-08-12 20:25:19.6380,-0.03,-0.03,0.02
2020-08-12 20:25:19.7370,-0.01,-0.0,0.02
2020-08-12 20:25:19.8360,-0.03,-0.0,0.01
2020-08-12 20:25:19.9350,-0.02,-0.02,-0.02
2020-08-12 20:25:20.0350,-0.03,-0.03,0.01
2020-08-12 20:25:20.1340,-0.13,-0.31,0.05
2020-08-12 20:25:20.2330,-0.48,-0.22,0.0
2020-08-12 20:25:20.3320,-0.25,-0.15,0.36
2020-08-12 20:25:20.4310,-0.74,0.09,0.07
2020-08-12 20:25:20.5310,0.06,-0.36,0.01
2020-08-12 20:25:20.6310,0.31,-0.28,0.01
2020-08-12 20:25:20.7290,0.8,-0.08,0.1
2020-08-12 20:25:20.8290,0.84,0.03,0.09
2020-08-12 20:25:20.9280,0.04,-0.33,-0.03
2020-08-12 20:25:21.0270,0.03,0.06,0.23
2020-08-12 20:25:21.1250,-0.04,-0.03,-0.01
2020-08-12 20:25:21.2260,-0.04,0.02,0.07
2020-08-12 20:25:21.3250,-0.03,0.03,0.05
2020-08-12 20:25:21.4240,0.0,-0.0,-0.01
2020-08-12 20:25:21.5230,-0.0,-0.0,-0.0
2020-08-12 20:25:21.6230,-0.03,0.01,0.01
2020-08-12 20:25:21.7220,-0.05,0.01,0.02
2020-08-12 20:25:21.8210,-0.05,-0.0,0.05
2020-08-12 20:25:21.9200,-0.04,-0.03,0.01
2020-08-12 20:25:22.0190,-0.08,-0.09,-0.03
2020-08-12 20:25:22.1190,-0.33,-0.41,-0.06
2020-08-12 20:25:22.2180,-0.07,-0.16,0.27
2020-08-12 20:25:22.3170,-1.15,0.26,0.16
2020-08-12 20:25:22.4160,-0.44,-0.08,0.08
2020-08-12 20:25:22.5160,0.11,-0.32,0.06
2020-08-12 20:25:22.6140,0.58,-0.25,0.14
2020-08-12 20:25:22.7150,0.76,-0.02,0.05
2020-08-12 20:25:22.8140,-0.08,-0.24,-0.24
2020-08-12 20:25:22.9130,0.4,-0.17,-0.06
2020-08-12 20:25:23.0110,0.16,0.02,-0.14
2020-08-12 20:25:23.1110,0.25,-0.04,0.03
2020-08-12 20:25:23.2110,-0.01,0.01,0.06
2020-08-12 20:25:23.3100,0.01,-0.0,0.03
2020-08-12 20:25:23.4090,-0.03,0.04,0.02
2020-08-12 20:25:23.5080,-0.06,-0.0,0.03
2020-08-12 20:25:23.6080,-0.04,0.01,0.02
2020-08-12 20:25:23.7070,-0.03,-0.0,0.0
2020-08-12 20:25:23.8060,-0.02,-0.02,0.0
2020-08-12 20:25:23.9050,-0.04,-0.04,-0.02
2020-08-12 20:25:24.0050,-0.16,-0.22,0.04
2020-08-12 20:25:24.1030,-0.5,-0.29,0.02
2020-08-12 20:25:24.2030,-0.36,-0.05,0.31
2020-08-12 20:25:24.3020,-0.74,0.05,0.04
2020-08-12 20:25:24.4020,0.05,-0.34,0.05
2020-08-12 20:25:24.5010,0.29,-0.29,0.07
2020-08-12 20:25:24.6000,0.62,-0.11,0.1
2020-08-12 20:25:24.7000,0.94,0.02,0.13
2020-08-12 20:25:24.7990,-0.43,-0.19,0.06
2020-08-12 20:25:24.8980,0.03,0.02,0.29
2020-08-12 20:25:24.9970,-0.09,0.0,0.02
2020-08-12 20:25:25.0960,-0.02,0.0,0.03
2020-08-12 20:25:25.1960,0.01,-0.0,0.01
2020-08-12 20:25:25.2950,-0.02,-0.0,0.01
2020-08-12 20:25:25.3930,-0.03,0.05,0.05
2020-08-12 20:25:25.4930,-0.04,0.01,-0.02
2020-08-12 20:25:25.5930,-0.02,0.02,-0.0
2020-08-12 20:25:25.6920,0.0,-0.02,0.01
2020-08-12 20:25:25.7910,-0.01,-0.04,0.01
2020-08-12 20:25:25.8890,-0.03,-0.1,-0.02
2020-08-12 20:25:25.9900,-0.33,-0.14,-0.05
2020-08-12 20:25:26.0890,-0.18,-0.28,0.37
2020-08-12 20:25:26.1880,-1.0,0.21,0.15
2020-08-12 20:25:26.2870,-0.34,-0.12,-0.09
2020-08-12 20:25:26.3870,0.09,-0.22,-0.04
2020-08-12 20:25:26.4860,0.42,-0.26,-0.01
2020-08-12 20:25:26.5850,0.9,-0.07,0.03
2020-08-12 20:25:26.6840,0.68,-0.17,0.04
2020-08-12 20:25:26.7840,0.41,-0.28,-0.07
2020-08-12 20:25:26.8830,0.21,-0.16,0.01
2020-08-12 20:25:26.9820,0.06,0.03,0.1
2020-08-12 20:25:27.0820,0.01,-0.02,-0.0
2020-08-12 20:25:27.1810,-0.01,0.01,0.03
2020-08-12 20:25:27.2790,0.03,0.01,0.01
2020-08-12 20:25:27.3790,0.01,-0.01,0.01
2020-08-12 20:25:27.4780,-0.03,0.02,-0.01
2020-08-12 20:25:27.5780,0.01,-0.01,0.0
2020-08-12 20:25:27.6760,-0.02,0.0,-0.01
2020-08-12 20:25:27.7760,-0.05,-0.02,-0.01
2020-08-12 20:25:27.8750,-0.06,-0.05,-0.02
2020-08-12 20:25:27.9750,-0.27,-0.31,-0.09
2020-08-12 20:25:28.0740,-0.33,-0.2,0.2
2020-08-12 20:25:28.1730,-1.3,0.32,0.11
2020-08-12 20:25:28.2720,-0.53,-0.08,0.04
2020-08-12 20:25:28.3720,0.13,-0.3,0.05
2020-08-12 20:25:28.4710,0.6,-0.27,0.03
2020-08-12 20:25:28.5700,0.73,-0.01,-0.0
2020-08-12 20:25:28.6700,0.83,0.03,0.05
2020-08-12 20:25:28.7690,0.47,-0.4,-0.12
2020-08-12 20:25:28.8680,0.16,-0.11,0.13
2020-08-12 20:25:28.9660,-0.12,0.06,0.1
2020-08-12 20:25:29.0670,-0.05,0.01,-0.0
2020-08-12 20:25:29.1660,0.01,-0.0,0.03
2020-08-12 20:25:29.2650,-0.0,0.01,0.02
2020-08-12 20:25:29.3640,0.01,-0.01,0.0
2020-08-12 20:25:29.4630,-0.01,-0.02,0.01
2020-08-12 20:25:29.5630,-0.04,-0.01,0.02
2020-08-12 20:25:29.6620,-0.01,-0.02,-0.02
2020-08-12 20:25:29.7610,-0.04,0.0,0.01
2020-08-12 20:25:29.8610,-0.07,-0.11,-0.02
2020-08-12 20:25:29.9600,-0.39,-0.44,-0.07
2020-08-12 20:25:30.0590,0.07,-0.26,0.28
2020-08-12 20:25:30.1570,-0.84,0.16,0.11
2020-08-12 20:25:30.2580,-0.08,-0.25,-0.0
2020-08-12 20:25:30.3570,0.1,-0.3,0.07
2020-08-12 20:25:30.4560,0.57,-0.18,0.07
2020-08-12 20:25:30.5550,0.59,0.01,0.04
2020-08-12 20:25:30.6550,0.82,0.03,0.04
2020-08-12 20:25:30.7540,0.21,-0.47,0.01
2020-08-12 20:25:30.8530,-0.12,0.01,0.32
2020-08-12 20:25:30.9520,-0.05,-0.02,0.03
2020-08-12 20:25:31.0510,-0.01,-0.0,0.02
2020-08-12 20:25:31.1510,-0.04,0.02,0.02
2020-08-12 20:25:31.2500,0.01,-0.01,-0.02
2020-08-12 20:25:31.3490,0.01,-0.01,-0.01
2020-08-12 20:25:31.4490,-0.04,-0.0,0.02
2020-08-12 20:25:31.5480,0.0,-0.0,-0.01
2020-08-12 20:25:31.6470,-0.13,0.01,0.16
2020-08-12 20:25:31.7460,-0.08,-0.02,0.06
2020-08-12 20:25:31.8460,-0.02,-0.03,0.0
2020-08-12 20:25:31.9450,-0.45,-0.4,0.06
2020-08-12 20:25:32.0440,-0.05,-0.13,0.18
2020-08-12 20:25:32.1430,-0.79,0.23,0.11
2020-08-12 20:25:32.2430,-0.4,-0.11,-0.05
2020-08-12 20:25:32.3420,-0.04,-0.33,0.06
2020-08-12 20:25:32.4400,0.57,-0.38,0.04
2020-08-12 20:25:32.5400,0.95,0.02,-0.0
2020-08-12 20:25:32.6400,0.62,0.01,0.27
2020-08-12 20:25:32.7390,0.33,-0.21,-0.26
2020-08-12 20:25:32.8380,0.16,-0.15,0.14
2020-08-12 20:25:32.9370,0.02,0.01,0.09
2020-08-12 20:25:33.0370,0.04,-0.03,0.0
2020-08-12 20:25:33.1360,0.01,-0.01,0.01
2020-08-12 20:25:33.2350,0.01,0.01,0.01
2020-08-12 20:25:33.3340,-0.01,-0.05,-0.02
2020-08-12 20:25:33.4340,-0.03,0.01,0.02
2020-08-12 20:25:33.5330,-0.04,0.02,0.0
2020-08-12 20:25:33.6320,-0.01,-0.0,0.03
2020-08-12 20:25:33.7310,-0.03,-0.04,-0.02
2020-08-12 20:25:33.8300,-0.11,-0.14,-0.01
2020-08-12 20:25:33.9300,-0.37,-0.28,-0.07
2020-08-12 20:25:34.0290,0.07,-0.3,0.14
2020-08-12 20:25:34.1280,-0.78,0.1,0.09
2020-08-12 20:25:34.2280,-0.29,-0.18,0.0
2020-08-12 20:25:34.3270,0.04,-0.32,0.13
2020-08-12 20:25:34.4260,0.58,-0.18,0.07
2020-08-12 20:25:34.5250,0.96,0.01,0.07
2020-08-12 20:25:34.6250,0.35,-0.3,-0.19
2020-08-12 20:25:34.7250,0.66,-0.4,0.22
2020-08-12 20:25:34.8230,-0.12,0.04,0.0
2020-08-12 20:25:34.9220,-0.01,-0.0,0.01
2020-08-12 20:25:35.0220,-0.02,0.01,0.03
2020-08-12 20:25:35.1210,-0.01,0.01,-0.0
2020-08-12 20:25:35.2190,-0.01,0.01,0.02
2020-08-12 20:25:35.3190,-0.01,0.01,0.03
2020-08-12 20:25:35.4190,-0.01,0.01,0.01
2020-08-12 20:25:35.5180,-0.04,0.0,0.01
2020-08-12 20:25:35.6170,-0.01,-0.01,-0.03
2020-08-12 20:25:35.7160,-0.03,-0.02,0.05
2020-08-12 20:25:35.8160,-0.24,-0.26,0.07
2020-08-12 20:25:35.9150,-0.5,-0.13,0.06
2020-08-12 20:25:36.0140,-0.69,0.04,0.11
2020-08-12 20:25:36.1130,-0.69,0.02,0.09
2020-08-12 20:25:36.2130,0.19,-0.36,0.06
2020-08-12 20:25:36.3110,0.38,-0.23,0.04
2020-08-12 20:25:36.4110,0.74,-0.05,0.07
2020-08-12 20:25:36.5100,0.83,0.04,0.05
2020-08-12 20:25:36.6100,-0.21,-0.33,-0.15
2020-08-12 20:25:36.7090,0.13,-0.0,0.36
2020-08-12 20:25:36.8080,-0.03,0.01,-0.0
2020-08-12 20:25:36.9080,-0.08,0.06,0.09
2020-08-12 20:25:37.0070,-0.03,0.01,-0.06
2020-08-12 20:25:37.1060,-0.01,-0.0,-0.0
2020-08-12 20:25:37.2050,-0.02,0.01,0.04
2020-08-12 20:25:37.3040,-0.01,0.01,0.03
2020-08-12 20:25:37.4040,-0.02,0.02,0.0
2020-08-12 20:25:37.5030,0.01,-0.0,-0.01
2020-08-12 20:25:37.6020,-0.02,0.0,-0.0
2020-08-12 20:25:37.7020,-0.0,-0.04,-0.02
2020-08-12 20:25:37.8010,-0.15,-0.27,0.04
2020-08-12 20:25:37.8990,-0.53,-0.3,0.06
2020-08-12 20:25:37.9980,-0.24,-0.19,0.31
2020-08-12 20:25:38.0990,-0.71,0.12,0.15
2020-08-12 20:25:38.1980,-0.09,-0.29,0.1
2020-08-12 20:25:38.2970,0.33,-0.33,0.1
2020-08-12 20:25:38.3960,0.54,-0.13,0.03
2020-08-12 20:25:38.4960,0.79,0.01,-0.04
2020-08-12 20:25:38.5940,0.06,-0.41,-0.16
2020-08-12 20:25:38.6940,0.45,-0.14,-0.12
2020-08-12 20:25:38.7930,0.02,0.03,-0.1
2020-08-12 20:25:38.8920,0.05,0.01,0.06
2020-08-12 20:25:38.9920,-0.05,0.02,0.02
2020-08-12 20:25:39.0910,-0.02,-0.02,0.01
2020-08-12 20:25:39.1900,-0.01,-0.0,0.01
2020-08-12 20:25:39.2900,-0.03,0.01,0.02
2020-08-12 20:25:39.3890,-0.01,0.01,0.02
2020-08-12 20:25:39.4880,0.02,-0.02,-0.02
2020-08-12 20:25:39.5870,0.01,-0.02,-0.02
2020-08-12 20:25:39.6860,0.01,-0.03,-0.05
2020-08-12 20:25:39.7860,-0.25,-0.25,0.18
2020-08-12 20:25:39.8850,-0.57,-0.16,0.12
2020-08-12 20:25:39.9840,-0.35,0.04,0.02
2020-08-12 20:25:40.0830,-0.71,0.1,0.07
2020-08-12 20:25:40.1830,-0.05,-0.38,0.07
2020-08-12 20:25:40.2820,0.17,-0.28,0.08
2020-08-12 20:25:40.3810,0.54,-0.13,0.03
2020-08-12 20:25:40.4810,0.63,0.05,0.02
2020-08-12 20:25:40.5800,0.62,-0.23,0.03
2020-08-12 20:25:40.6790,0.44,-0.31,-0.05
2020-08-12 20:25:40.7780,-0.02,0.02,-0.03
2020-08-12 20:25:40.8770,0.14,-0.02,0.06
2020-08-12 20:25:40.9770,-0.0,0.0,0.01
2020-08-12 20:25:41.0760,-0.06,0.03,0.02
2020-08-12 20:25:41.1750,-0.03,-0.02,-0.01
2020-08-12 20:25:41.2750,-0.0,0.01,0.04
2020-08-12 20:25:41.3740,-0.05,0.01,0.02
2020-08-12 20:25:41.4730,-0.02,0.01,0.01
2020-08-12 20:25:41.5720,0.01,-0.01,-0.02
2020-08-12 20:25:41.6720,0.06,-0.03,-0.05
2020-08-12 20:25:41.7710,-0.17,-0.44,0.01
2020-08-12 20:25:41.8700,-0.57,-0.22,0.15
2020-08-12 20:25:41.9690,-1.08,0.16,0.07
2020-08-12 20:25:42.0690,-0.77,-0.02,0.12
2020-08-12 20:25:42.1680,0.01,-0.31,0.07
2020-08-12 20:25:42.2670,0.32,-0.23,0.07
2020-08-12 20:25:42.3660,0.62,-0.05,0.07
2020-08-12 20:25:42.4650,0.81,0.06,0.11
2020-08-12 20:25:42.5650,-1.07,0.05,-0.14
2020-08-12 20:25:42.6640,0.21,-0.18,0.06
2020-08-12 20:25:42.7630,0.06,-0.0,-0.16
2020-08-12 20:25:42.8630,0.03,-0.01,0.03
2020-08-12 20:25:42.9620,0.05,-0.03,0.0
2020-08-12 20:25:43.0610,0.02,0.0,-0.0
2020-08-12 20:25:43.1600,0.07,-0.01,-0.03
2020-08-12 20:25:43.2590,-0.0,-0.02,-0.01
2020-08-12 20:25:43.3590,-0.0,0.01,-0.0
2020-08-12 20:25:43.4570,-0.06,-0.0,0.01
2020-08-12 20:25:43.5570,-0.06,-0.01,0.07
2020-08-12 20:25:43.6570,-0.04,-0.02,-0.0
2020-08-12 20:25:43.7560,-0.17,-0.27,0.03
2020-08-12 20:25:43.8550,-0.46,-0.24,-0.05
2020-08-12 20:25:43.9540,-0.34,-0.1,0.31
2020-08-12 20:25:44.0540,-0.76,0.12,0.02
2020-08-12 20:25:44.1530,-0.05,-0.34,0.06
2020-08-12 20:25:44.2520,0.24,-0.26,0.11
2020-08-12 20:25:44.3510,0.66,-0.11,0.08
2020-08-12 20:25:44.4510,0.56,0.05,-0.02
2020-08-12 20:25:44.5500,0.65,-0.09,0.09
2020-08-12 20:25:44.6480,0.45,-0.22,-0.06
2020-08-12 20:25:44.7480,0.06,-0.06,-0.02
2020-08-12 20:25:44.8480,0.09,-0.0,0.07
2020-08-12 20:25:44.9470,0.04,0.0,-0.0
2020-08-12 20:25:45.0460,-0.08,0.02,0.05
2020-08-12 20:25:45.1450,-0.03,-0.01,-0.0
2020-08-12 20:25:45.2450,0.01,-0.0,0.02
2020-08-12 20:25:45.3440,-0.03,0.01,0.01
2020-08-12 20:25:45.4430,-0.02,-0.01,0.0
2020-08-12 20:25:45.5420,-0.03,0.0,0.02
2020-08-12 20:25:45.6420,-0.01,-0.01,-0.04
2020-08-12 20:25:45.7410,-0.07,-0.12,-0.05
2020-08-12 20:25:45.8400,-0.34,-0.31,-0.11
2020-08-12 20:25:45.9390,-0.03,-0.27,0.29
2020-08-12 20:25:46.0390,-0.89,0.11,0.09
2020-08-12 20:25:46.1380,-0.16,-0.23,0.04
2020-08-12 20:25:46.2370,0.17,-0.35,0.08
2020-08-12 20:25:46.3360,0.61,-0.2,0.02
2020-08-12 20:25:46.4360,1.01,0.03,0.05
2020-08-12 20:25:46.5350,-0.67,-0.16,-0.5
2020-08-12 20:25:46.6340,0.54,-0.13,-0.17
2020-08-12 20:25:46.7330,0.25,-0.03,-0.1
2020-08-12 20:25:46.8330,0.16,-0.02,0.01
2020-08-12 20:25:46.9310,0.03,-0.0,0.0
2020-08-12 20:25:47.0310,-0.06,0.0,0.05
2020-08-12 20:25:47.1300,0.01,0.01,-0.02
2020-08-12 20:25:47.2300,-0.05,-0.01,0.01
2020-08-12 20:25:47.3290,-0.01,-0.03,0.0
2020-08-12 20:25:47.4280,0.02,-0.01,-0.01
2020-08-12 20:25:47.5270,0.08,-0.0,-0.03
2020-08-12 20:25:47.6270,-0.02,-0.19,-0.03
2020-08-12 20:25:47.7260,-0.29,-0.08,-0.06
2020-08-12 20:25:47.8250,0.02,-0.47,0.36
2020-08-12 20:25:47.9240,-0.94,0.09,0.07
2020-08-12 20:25:48.0240,-0.28,-0.15,-0.06
2020-08-12 20:25:48.1230,0.08,-0.25,0.04
2020-08-12 20:25:48.2220,0.53,-0.32,0.08
2020-08-12 20:25:48.3220,0.93,-0.07,0.06
2020-08-12 20:25:48.4210,0.69,-0.01,0.09
2020-08-12 20:25:48.5200,0.18,-0.3,-0.04
2020-08-12 20:25:48.6190,-0.01,0.06,0.11
2020-08-12 20:25:48.7180,0.2,-0.04,0.07
2020-08-12 20:25:48.8180,0.08,-0.02,-0.04
2020-08-12 20:25:48.9170,0.0,-0.0,0.0
2020-08-12 20:25:49.0160,0.03,-0.01,0.01
2020-08-12 20:25:49.1140,-0.04,-0.01,0.03
2020-08-12 20:25:49.2150,-0.03,-0.0,0.03
2020-08-12 20:25:49.3140,-0.03,0.02,0.02
2020-08-12 20:25:49.4130,-0.03,-0.02,-0.01
2020-08-12 20:25:49.5130,-0.03,-0.03,-0.0
2020-08-12 20:25:49.6120,-0.18,-0.32,0.1
2020-08-12 20:25:49.7110,-0.55,-0.17,0.15
2020-08-12 20:25:49.8100,-0.88,-0.04,0.1
2020-08-12 20:25:49.9090,-0.75,0.09,0.13
2020-08-12 20:25:50.0090,-0.06,-0.32,0.03
2020-08-12 20:25:50.1080,0.28,-0.25,0.03
2020-08-12 20:25:50.2070,0.66,-0.1,-0.0
2020-08-12 20:25:50.3060,1.03,-0.01,0.04
2020-08-12 20:25:50.4060,-0.37,-0.4,0.12
2020-08-12 20:25:50.5040,0.03,-0.06,0.27
2020-08-12 20:25:50.6040,0.08,-0.07,-0.0
2020-08-12 20:25:50.7030,-0.03,0.01,0.06
2020-08-12 20:25:50.8030,0.01,0.03,0.0
2020-08-12 20:25:50.9020,0.0,-0.01,-0.05
2020-08-12 20:25:51.0010,0.01,0.01,-0.01
2020-08-12 20:25:51.1000,-0.01,0.01,0.0
2020-08-12 20:25:51.2000,-0.03,0.02,-0.0
2020-08-12 20:25:51.2990,-0.05,-0.03,0.02
2020-08-12 20:25:51.3980,-0.04,-0.03,-0.01
2020-08-12 20:25:51.4980,-0.02,-0.01,-0.02
2020-08-12 20:25:51.5970,-0.31,-0.36,0.09
2020-08-12 20:25:51.6960,-0.39,-0.14,0.13
2020-08-12 20:25:51.7950,-1.01,0.08,-0.07
2020-08-12 20:25:51.8940,-0.52,0.09,0.08
2020-08-12 20:25:51.9940,-0.03,-0.32,0.0
2020-08-12 20:25:52.0930,0.27,-0.35,0.04
2020-08-12 20:25:52.1920,0.77,-0.08,0.03
2020-08-12 20:25:52.2910,1.06,0.0,0.02
2020-08-12 20:25:52.3910,-0.61,-0.2,0.18
2020-08-12 20:25:52.4900,0.14,0.11,0.22
2020-08-12 20:25:52.5890,-0.06,-0.04,-0.09
2020-08-12 20:25:52.6890,-0.02,-0.02,-0.01
2020-08-12 20:25:52.7880,0.0,-0.01,-0.03
2020-08-12 20:25:52.8870,-0.0,-0.01,0.05
2020-08-12 20:25:52.9860,-0.04,0.0,0.03
2020-08-12 20:25:53.0860,0.01,-0.02,-0.01
2020-08-12 20:25:53.1850,-0.0,-0.01,0.02
2020-08-12 20:25:53.2840,-0.01,-0.03,0.0
2020-08-12 20:25:53.3820,-0.02,0.01,-0.01
2020-08-12 20:25:53.4820,-0.03,-0.01,-0.04
2020-08-12 20:25:53.5820,-0.19,-0.26,0.08
2020-08-12 20:25:53.6810,-0.28,-0.12,0.16
2020-08-12 20:25:53.7800,-1.18,0.12,0.03
2020-08-12 20:25:53.8800,-0.57,0.01,0.07
2020-08-12 20:25:53.9790,-0.18,-0.27,0.09
2020-08-12 20:25:54.0780,0.34,-0.35,0.06
2020-08-12 20:25:54.1770,0.64,-0.12,0.05
2020-08-12 20:25:54.2760,0.93,-0.02,0.1
2020-08-12 20:25:54.3760,-1.24,0.07,-0.23
2020-08-12 20:25:54.4740,0.31,-0.05,0.23
2020-08-12 20:25:54.5740,-0.05,-0.01,-0.07
2020-08-12 20:25:54.6740,-0.08,0.06,0.08
2020-08-12 20:25:54.7730,-0.08,0.01,0.05
2020-08-12 20:25:54.8710,-0.02,-0.01,0.01
2020-08-12 20:25:54.9710,-0.02,0.01,0.01
2020-08-12 20:25:55.0700,-0.03,0.01,0.05
2020-08-12 20:25:55.1700,-0.04,-0.0,0.02
2020-08-12 20:25:55.2680,-0.05,0.02,0.02
2020-08-12 20:25:55.3680,-0.02,0.01,0.0
2020-08-12 20:25:55.4670,-0.03,-0.02,-0.0
2020-08-12 20:25:55.5670,-0.19,-0.27,0.05
2020-08-12 20:25:55.6660,-0.49,-0.26,0.07
2020-08-12 20:25:55.7650,-0.47,-0.14,0.1
2020-08-12 20:25:55.8640,-0.74,0.09,0.04
2020-08-12 20:25:55.9640,-0.14,-0.28,-0.03
2020-08-12 20:25:56.0630,0.29,-0.33,-0.04
2020-08-12 20:25:56.1610,0.79,-0.1,0.1
2020-08-12 20:25:56.2620,0.9,-0.03,0.19
2020-08-12 20:25:56.3610,-0.04,-0.46,-0.04
2020-08-12 20:25:56.4600,0.03,0.01,0.31
2020-08-12 20:25:56.5580,-0.12,-0.02,-0.06
2020-08-12 20:25:56.6590,-0.05,-0.0,-0.03
2020-08-12 20:25:56.7580,0.09,-0.03,-0.07
2020-08-12 20:25:56.8570,-0.01,0.02,0.02
2020-08-12 20:25:56.9560,0.01,-0.01,-0.02
2020-08-12 20:25:57.0560,0.01,0.0,-0.06
2020-08-12 20:25:57.1540,0.01,0.01,-0.01
2020-08-12 20:25:57.2540,-0.04,-0.02,0.02
2020-08-12 20:25:57.3530,-0.05,-0.01,0.01
2020-08-12 20:25:57.4530,0.01,-0.03,-0.03
2020-08-12 20:25:57.5520,-0.14,-0.21,0.04
2020-08-12 20:25:57.6510,-0.47,-0.08,-0.09
2020-08-12 20:25:57.7500,0.04,-0.29,0.21
2020-08-12 20:25:57.8500,-0.9,0.16,0.12
2020-08-12 20:25:57.9490,-0.15,-0.28,-0.03
2020-08-12 20:25:58.0480,0.13,-0.3,0.02
2020-08-12 20:25:58.1470,0.78,-0.28,0.05
2020-08-12 20:25:58.2460,1.19,0.01,0.22
2020-08-12 20:25:58.3460,-0.32,-0.28,0.07
2020-08-12 20:25:58.4460,0.33,-0.14,0.19
2020-08-12 20:25:58.5440,-0.02,0.04,0.05
2020-08-12 20:25:58.6440,-0.03,-0.0,0.05
2020-08-12 20:25:58.7420,0.02,0.01,0.0
2020-08-12 20:25:58.8420,-0.0,0.0,0.0
2020-08-12 20:25:58.9410,0.01,-0.02,0.0
2020-08-12 20:25:59.0400,-0.01,-0.0,-0.01
2020-08-12 20:25:59.1400,0.0,0.01,-0.0
2020-08-12 20:25:59.2390,-0.0,-0.0,-0.01
2020-08-12 20:25:59.3380,0.02,-0.01,-0.01
2020-08-12 20:25:59.4380,-0.07,-0.09,0.02
2020-08-12 20:25:59.5370,-0.19,-0.3,-0.19
2020-08-12 20:25:59.6360,-0.29,-0.12,0.19
2020-08-12 20:25:59.7350,-1.19,0.17,0.03
2020-08-12 20:25:59.8350,-0.52,-0.02,0.11
2020-08-12 20:25:59.9340,-0.05,-0.34,0.05
2020-08-12 20:26:00.0330,0.54,-0.31,-0.0
2020-08-12 20:26:00.1320,0.74,-0.04,-0.02
2020-08-12 20:26:00.2320,0.87,0.01,0.06
2020-08-12 20:26:00.3310,0.35,-0.39,-0.1
2020-08-12 20:26:00.4300,0.24,-0.06,0.08
2020-08-12 20:26:00.5290,0.08,0.02,0.06
2020-08-12 20:26:00.6290,0.03,-0.02,-0.05
2020-08-12 20:26:00.7270,-0.03,0.01,0.04
2020-08-12 20:26:00.8270,-0.03,-0.02,0.01
2020-08-12 20:26:00.9260,-0.03,-0.02,0.0
2020-08-12 20:26:01.0260,-0.03,0.03,0.04
2020-08-12 20:26:01.1250,-0.0,0.02,0.0
2020-08-12 20:26:01.2230,-0.01,-0.0,-0.01
2020-08-12 20:26:01.3230,-0.0,-0.02,-0.03
2020-08-12 20:26:01.4230,-0.05,-0.04,-0.01
2020-08-12 20:26:01.5220,-0.18,-0.16,0.02
2020-08-12 20:26:01.6210,-0.45,-0.24,-0.0
2020-08-12 20:26:01.7200,-0.29,-0.14,0.31
2020-08-12 20:26:01.8200,-0.67,0.11,0.14
2020-08-12 20:26:01.9180,-0.15,-0.32,-0.01
2020-08-12 20:26:02.0180,0.4,-0.3,0.08
2020-08-12 20:26:02.1170,0.85,-0.15,0.05
2020-08-12 20:26:02.2170,0.92,-0.03,0.12
2020-08-12 20:26:02.3160,0.34,-0.3,-0.06
2020-08-12 20:26:02.4150,0.27,-0.02,0.0
2020-08-12 20:26:02.5140,0.07,-0.02,0.02
2020-08-12 20:26:02.6140,0.0,0.01,0.07
2020-08-12 20:26:02.7130,-0.02,-0.01,0.02
2020-08-12 20:26:02.8120,0.01,-0.01,-0.03
2020-08-12 20:26:02.9110,0.03,0.0,-0.09
2020-08-12 20:26:03.0110,0.02,0.01,0.03
2020-08-12 20:26:03.1100,0.02,-0.01,-0.01
2020-08-12 20:26:03.2090,0.04,-0.02,-0.03
2020-08-12 20:26:03.3080,-0.03,-0.01,0.01
2020-08-12 20:26:03.4080,-0.14,-0.11,0.04
2020-08-12 20:26:03.5070,-0.32,-0.35,-0.1
2020-08-12 20:26:03.6050,-0.13,-0.36,0.28
2020-08-12 20:26:03.7050,-0.93,0.13,0.11
2020-08-12 20:26:03.8050,-0.37,-0.24,0.03
2020-08-12 20:26:03.9040,0.16,-0.38,0.15
2020-08-12 20:26:04.0030,0.74,-0.13,0.17
2020-08-12 20:26:04.1030,1.14,0.03,0.17
2020-08-12 20:26:04.2010,0.09,-0.46,0.01
2020-08-12 20:26:04.3010,0.28,-0.03,0.13
2020-08-12 20:26:04.4000,0.16,-0.02,-0.02
2020-08-12 20:26:04.4990,-0.02,-0.01,0.05
2020-08-12 20:26:04.5990,-0.03,0.02,0.03
2020-08-12 20:26:04.6980,0.01,0.02,0.04
2020-08-12 20:26:04.7970,-0.06,-0.0,0.02
2020-08-12 20:26:04.8960,-0.03,0.0,0.0
2020-08-12 20:26:04.9960,-0.01,0.0,0.0
2020-08-12 20:26:05.0940,-0.08,-0.0,0.04
2020-08-12 20:26:05.1940,0.01,-0.03,-0.01
2020-08-12 20:26:05.2940,-0.13,-0.31,0.04
2020-08-12 20:26:05.3930,-0.4,-0.21,-0.01
2020-08-12 20:26:05.4920,-0.25,-0.09,0.2
2020-08-12 20:26:05.5910,-0.79,0.07,0.07
2020-08-12 20:26:05.6910,-0.09,-0.35,-0.04
2020-08-12 20:26:05.7900,0.24,-0.34,-0.0
2020-08-12 20:26:05.8890,0.78,-0.06,0.07
2020-08-12 20:26:05.9880,0.96,0.02,0.15
2020-08-12 20:26:06.0870,-0.11,-0.4,0.0
2020-08-12 20:26:06.1870,0.43,-0.23,0.19
2020-08-12 20:26:06.2860,0.09,-0.04,-0.01
2020-08-12 20:26:06.3850,0.03,0.01,0.06
2020-08-12 20:26:06.4840,-0.04,0.03,0.03
2020-08-12 20:26:06.5840,-0.01,0.01,-0.0
2020-08-12 20:26:06.6820,-0.0,-0.01,0.01
2020-08-12 20:26:06.7820,-0.02,-0.01,-0.02
2020-08-12 20:26:06.8820,-0.02,-0.01,0.01
2020-08-12 20:26:06.9810,0.02,-0.01,-0.02
2020-08-12 20:26:07.0790,0.03,0.01,-0.03
2020-08-12 20:26:07.1790,-0.02,-0.06,-0.03
2020-08-12 20:26:07.2790,-0.25,-0.21,-0.04
2020-08-12 20:26:07.3780,-0.18,-0.33,0.33
2020-08-12 20:26:07.4770,-1.27,0.25,0.13
2020-08-12 20:26:07.5760,-0.51,-0.13,0.02
2020-08-12 20:26:07.6750,0.14,-0.37,0.05
2020-08-12 20:26:07.7750,0.61,-0.29,0.03
2020-08-12 20:26:07.8740,1.13,-0.05,0.14
2020-08-12 20:26:07.9730,-0.75,-0.39,-0.7
2020-08-12 20:26:08.0720,0.37,-0.08,0.15
2020-08-12 20:26:08.1720,-0.06,-0.04,-0.11
2020-08-12 20:26:08.2710,-0.01,-0.02,-0.03
2020-08-12 20:26:08.3700,0.03,0.03,-0.05
2020-08-12 20:26:08.4700,0.0,0.03,0.02
2020-08-12 20:26:08.5690,0.01,0.0,0.02
2020-08-12 20:26:08.6680,-0.01,0.02,-0.02
2020-08-12 20:26:08.7670,0.04,-0.0,-0.02
2020-08-12 20:26:08.8660,0.01,-0.0,-0.02
2020-08-12 20:26:08.9660,0.02,-0.0,-0.01
2020-08-12 20:26:09.0650,-0.02,-0.04,-0.01
2020-08-12 20:26:09.1640,-0.17,-0.31,0.05
2020-08-12 20:26:09.2630,-0.38,-0.32,0.12
2020-08-12 20:26:09.3630,-0.98,0.13,0.12
2020-08-12 20:26:09.4620,-0.61,0.03,0.08
2020-08-12 20:26:09.5610,-0.11,-0.33,0.02
2020-08-12 20:26:09.6610,0.39,-0.31,0.03
2020-08-12 20:26:09.7600,0.7,-0.11,0.1
2020-08-12 20:26:09.8590,0.88,0.01,0.11
2020-08-12 20:26:09.9580,0.12,-0.26,-0.21
2020-08-12 20:26:10.0580,0.2,0.1,-0.07
2020-08-12 20:26:10.1570,0.08,-0.04,-0.0
2020-08-12 20:26:10.2560,0.03,-0.02,0.01
2020-08-12 20:26:10.3550,-0.03,0.01,0.0
2020-08-12 20:26:10.4550,0.03,-0.02,-0.01
2020-08-12 20:26:10.5540,-0.03,-0.02,0.0
2020-08-12 20:26:10.6530,0.01,0.01,-0.0
2020-08-12 20:26:10.7520,-0.01,0.01,0.0
2020-08-12 20:26:10.8520,0.0,-0.01,-0.02
2020-08-12 20:26:10.9510,0.01,0.0,-0.02
2020-08-12 20:26:11.0500,-0.02,-0.02,-0.03
2020-08-12 20:26:11.1490,-0.09,-0.17,-0.07
2020-08-12 20:26:11.2490,-0.25,-0.07,0.01
2020-08-12 20:26:11.3480,-0.1,-0.46,0.36
2020-08-12 20:26:11.4460,-0.81,0.12,0.01
2020-08-12 20:26:11.5460,-0.22,-0.29,-0.08
2020-08-12 20:26:11.6450,0.17,-0.31,0.12
2020-08-12 20:26:11.7450,0.62,-0.2,0.06
2020-08-12 20:26:11.8430,1.06,-0.01,0.11
2020-08-12 20:26:11.9430,-0.85,-0.2,-0.1
2020-08-12 20:26:12.0430,0.24,-0.1,0.1
2020-08-12 20:26:12.1420,-0.01,0.03,0.0
2020-08-12 20:26:12.2410,-0.11,0.06,0.11
2020-08-12 20:26:12.3400,-0.1,0.01,0.02
2020-08-12 20:26:12.4400,0.02,-0.01,-0.0
2020-08-12 20:26:12.5390,-0.03,-0.0,0.0
2020-08-12 20:26:12.6380,0.01,-0.0,-0.02
2020-08-12 20:26:12.7370,-0.01,0.01,0.0
2020-08-12 20:26:12.8360,0.0,0.01,-0.01
2020-08-12 20:26:12.9360,0.05,0.0,-0.05
2020-08-12 20:26:13.0350,0.01,-0.09,-0.02
2020-08-12 20:26:13.1340,-0.16,-0.2,-0.05
2020-08-12 20:26:13.2340,-0.29,-0.18,0.06
2020-08-12 20:26:13.3330,-0.67,-0.14,0.24
2020-08-12 20:26:13.4320,-0.72,0.1,0.07
2020-08-12 20:26:13.5310,-0.19,-0.26,0.02
2020-08-12 20:26:13.6310,0.2,-0.32,0.07
2020-08-12 20:26:13.7300,0.56,-0.13,0.03
2020-08-12 20:26:13.8290,0.85,0.02,0.02
2020-08-12 20:26:13.9270,-0.69,-0.21,-0.71
2020-08-12 20:26:14.0280,0.56,-0.17,-0.11
2020-08-12 20:26:14.1270,0.13,0.01,-0.12
2020-08-12 20:26:14.2260,-0.03,0.06,0.08
2020-08-12 20:26:14.3250,0.05,-0.02,-0.05
2020-08-12 20:26:14.4240,0.0,0.01,-0.02
2020-08-12 20:26:14.5240,-0.06,0.04,0.05
2020-08-12 20:26:14.6220,-0.02,0.0,0.03
2020-08-12 20:26:14.7220,-0.05,0.03,0.05
2020-08-12 20:26:14.8220,-0.05,0.01,0.01
2020-08-12 20:26:14.9210,-0.05,0.0,-0.0
2020-08-12 20:26:15.0200,-0.04,0.0,-0.01
2020-08-12 20:26:15.1180,-0.08,-0.04,0.02
2020-08-12 20:26:15.2190,-0.26,-0.2,-0.03
2020-08-12 20:26:15.3180,-0.26,-0.19,0.32
2020-08-12 20:26:15.4170,-1.17,0.3,0.04
2020-08-12 20:26:15.5160,-0.53,-0.03,0.09
2020-08-12 20:26:15.6160,0.02,-0.3,0.03
2020-08-12 20:26:15.7140,0.32,-0.29,0.1
2020-08-12 20:26:15.8140,0.72,-0.13,0.07
2020-08-12 20:26:15.9130,0.89,0.01,0.06
2020-08-12 20:26:16.0130,-1.06,-0.18,0.17
2020-08-12 20:26:16.1120,0.25,0.0,0.5
2020-08-12 20:26:16.2110,-0.04,-0.04,0.01
2020-08-12 20:26:16.3100,-0.01,-0.0,-0.01
2020-08-12 20:26:16.4100,0.0,0.01,0.01
2020-08-12 20:26:16.5090,-0.08,0.0,0.05
2020-08-12 20:26:16.6080,-0.01,-0.02,-0.04
2020-08-12 20:26:16.7070,-0.0,-0.0,-0.0
2020-08-12 20:26:16.8070,-0.02,0.02,0.01
2020-08-12 20:26:16.9060,0.0,-0.0,0.01
2020-08-12 20:26:17.0050,-0.0,0.0,-0.01
2020-08-12 20:26:17.1030,-0.08,-0.1,-0.04
2020-08-12 20:26:17.2040,-0.2,-0.11,-0.05
2020-08-12 20:26:17.3030,-0.34,-0.21,0.24
2020-08-12 20:26:17.4020,-0.83,-0.07,0.09
2020-08-12 20:26:17.5010,-0.65,0.09,0.02
2020-08-12 20:26:17.6010,-0.09,-0.29,0.06
2020-08-12 20:26:17.7000,0.27,-0.29,-0.02
2020-08-12 20:26:17.7990,0.64,-0.13,0.06
2020-08-12 20:26:17.8980,1.1,-0.01,0.19
2020-08-12 20:26:17.9980,-0.53,-0.32,0.19
2020-08-12 20:26:18.0970,0.22,-0.12,0.18
2020-08-12 20:26:18.1960,-0.07,0.01,0.06
2020-08-12 20:26:18.2950,0.01,0.01,0.04
2020-08-12 20:26:18.3950,-0.03,0.02,0.01
2020-08-12 20:26:18.4940,-0.02,-0.01,-0.01
2020-08-12 20:26:18.5930,0.0,0.0,-0.0
2020-08-12 20:26:18.6920,0.03,0.0,-0.01
2020-08-12 20:26:18.7920,0.01,0.01,0.04
2020-08-12 20:26:18.8910,0.02,-0.04,-0.03
2020-08-12 20:26:18.9900,0.02,-0.04,-0.02
2020-08-12 20:26:19.0890,-0.01,-0.04,-0.02
2020-08-12 20:26:19.1890,-0.11,-0.24,-0.09
2020-08-12 20:26:19.2880,-0.42,-0.23,0.17
2020-08-12 20:26:19.3870,-0.78,-0.0,0.16
2020-08-12 20:26:19.4860,-0.62,0.01,0.12
2020-08-12 20:26:19.5860,-0.11,-0.31,0.01
2020-08-12 20:26:19.6850,0.31,-0.31,0.01
2020-08-12 20:26:19.7840,0.67,-0.01,0.06
2020-08-12 20:26:19.8830,0.7,0.06,0.06
2020-08-12 20:26:19.9830,-1.4,0.11,-0.23
2020-08-12 20:26:20.0820,0.5,-0.02,0.02
2020-08-12 20:26:20.1810,-0.11,-0.0,-0.11
2020-08-12 20:26:20.2800,-0.05,0.03,0.03
2020-08-12 20:26:20.3800,-0.01,0.02,0.02
2020-08-12 20:26:20.4790,0.0,-0.02,-0.0
2020-08-12 20:26:20.5780,0.03,-0.0,-0.02
2020-08-12 20:26:20.6780,-0.01,0.0,0.03
2020-08-12 20:26:20.7770,-0.01,-0.0,-0.01
2020-08-12 20:26:20.8760,-0.02,0.0,-0.0
2020-08-12 20:26:20.9750,0.02,-0.01,-0.02
2020-08-12 20:26:21.0740,-0.01,-0.04,0.01
2020-08-12 20:26:21.1740,-0.14,-0.16,-0.1
2020-08-12 20:26:21.2730,-0.32,-0.16,0.16
2020-08-12 20:26:21.3720,-0.99,-0.0,0.1
2020-08-12 20:26:21.4710,-0.69,0.06,0.09
2020-08-12 20:26:21.5710,-0.17,-0.32,0.06
2020-08-12 20:26:21.6700,0.38,-0.33,0.03
2020-08-12 20:26:21.7690,0.74,-0.1,0.03
2020-08-12 20:26:21.8680,1.03,0.02,0.19
2020-08-12 20:26:21.9680,0.02,-0.5,-0.07
2020-08-12 20:26:22.0670,0.05,-0.11,0.25
2020-08-12 20:26:22.1660,-0.08,0.0,0.12
2020-08-12 20:26:22.2650,-0.0,0.0,-0.05
2020-08-12 20:26:22.3650,-0.0,0.01,0.03
2020-08-12 20:26:22.4640,0.02,-0.01,-0.04
2020-08-12 20:26:22.5620,0.01,0.0,-0.02
2020-08-12 20:26:22.6620,-0.03,0.0,0.03
2020-08-12 20:26:22.7620,-0.02,0.0,-0.01
2020-08-12 20:26:22.8610,-0.01,-0.0,-0.02
2020-08-12 20:26:22.9600,-0.01,-0.0,-0.0
2020-08-12 20:26:23.0590,-0.1,-0.34,0.09
2020-08-12 20:26:23.1590,-0.36,-0.18,-0.0
2020-08-12 20:26:23.2580,-0.03,-0.31,0.23
2020-08-12 20:26:23.3570,-0.95,0.19,0.09
2020-08-12 20:26:23.4560,-0.39,-0.21,-0.05
2020-08-12 20:26:23.5560,0.02,-0.29,0.07
2020-08-12 20:26:23.6550,0.54,-0.3,0.04
2020-08-12 20:26:23.7540,1.04,-0.06,0.09
2020-08-12 20:26:23.8530,0.37,-0.21,-0.12
2020-08-12 20:26:23.9530,0.59,-0.31,-0.01
2020-08-12 20:26:24.0520,0.04,0.02,-0.07
2020-08-12 20:26:24.1510,0.04,-0.01,0.12
2020-08-12 20:26:24.2510,0.03,0.0,-0.02
2020-08-12 20:26:24.3500,0.01,-0.01,-0.02
2020-08-12 20:26:24.4490,0.01,-0.0,0.03
2020-08-12 20:26:24.5480,-0.02,0.0,0.02
2020-08-12 20:26:24.6470,-0.03,-0.01,0.02
2020-08-12 20:26:24.7470,0.01,-0.01,-0.03
2020-08-12 20:26:24.8460,0.02,-0.01,-0.02
2020-08-12 20:26:24.9450,-0.03,-0.04,-0.06
2020-08-12 20:26:25.0440,-0.22,-0.36,0.14
2020-08-12 20:26:25.1440,-0.43,-0.11,0.1
2020-08-12 20:26:25.2430,-0.77,0.01,0.1
2020-08-12 20:26:25.3420,-0.67,0.04,0.1
2020-08-12 20:26:25.4420,-0.08,-0.31,0.04
2020-08-12 20:26:25.5410,0.19,-0.28,0.08
2020-08-12 20:26:25.6400,0.66,-0.22,0.08
2020-08-12 20:26:25.7390,0.97,0.01,0.09
2020-08-12 20:26:25.8380,-1.14,0.16,-0.3
2020-08-12 20:26:25.9380,0.06,-0.02,0.11
2020-08-12 20:26:26.0370,-0.05,-0.03,-0.11
2020-08-12 20:26:26.1360,-0.02,-0.01,0.04
2020-08-12 20:26:26.2350,-0.02,0.03,-0.01
2020-08-12 20:26:26.3350,0.02,-0.01,-0.02
2020-08-12 20:26:26.4330,0.04,-0.01,-0.03
2020-08-12 20:26:26.5330,-0.03,-0.0,0.01
2020-08-12 20:26:26.6320,-0.06,-0.03,0.0
2020-08-12 20:26:26.7320,-0.01,-0.02,0.0
2020-08-12 20:26:26.8310,-0.01,-0.03,-0.02
2020-08-12 20:26:26.9300,0.01,-0.03,-0.03
2020-08-12 20:26:27.0290,-0.24,-0.45,0.08
2020-08-12 20:26:27.1290,-0.65,-0.15,0.13
2020-08-12 20:26:27.2280,-0.25,-0.06,0.23
2020-08-12 20:26:27.3270,-0.7,0.09,-0.0
2020-08-12 20:26:27.4270,-0.14,-0.18,0.02
2020-08-12 20:26:27.5260,0.17,-0.26,0.09
2020-08-12 20:26:27.6250,0.51,-0.2,0.06
2020-08-12 20:26:27.7240,0.85,-0.05,0.05
2020-08-12 20:26:27.8240,0.01,-0.3,-0.42
2020-08-12 20:26:27.9230,0.42,-0.34,0.19
2020-08-12 20:26:28.0220,0.14,-0.07,-0.01
2020-08-12 20:26:28.1210,0.0,0.01,0.01
2020-08-12 20:26:28.2210,0.09,-0.03,-0.06
2020-08-12 20:26:28.3190,0.04,0.02,-0.05
2020-08-12 20:26:28.4190,0.01,0.01,0.01
2020-08-12 20:26:28.5180,-0.02,-0.0,0.02
2020-08-12 20:26:28.6180,-0.03,0.0,-0.01
2020-08-12 20:26:28.7170,0.0,-0.0,-0.02
2020-08-12 20:26:28.8160,0.04,-0.0,-0.09
2020-08-12 20:26:28.9150,-0.0,-0.04,-0.0
2020-08-12 20:26:29.0150,-0.17,-0.19,-0.09
2020-08-12 20:26:29.1140,-0.41,-0.14,0.24
2020-08-12 20:26:29.2130,-1.04,0.15,0.15
2020-08-12 20:26:29.3120,-0.57,-0.01,0.09
2020-08-12 20:26:29.4110,0.13,-0.37,0.04
2020-08-12 20:26:29.5110,0.34,-0.25,0.03
2020-08-12 20:26:29.6100,0.61,-0.08,0.03
2020-08-12 20:26:29.7090,0.8,0.02,0.01
2020-08-12 20:26:29.8090,-1.1,-0.11,-0.42
2020-08-12 20:26:29.9080,0.28,-0.01,0.03
2020-08-12 20:26:30.0070,0.05,-0.02,-0.16
2020-08-12 20:26:30.1060,-0.03,0.03,0.02
2020-08-12 20:26:30.2060,0.0,0.01,0.04
2020-08-12 20:26:30.3040,0.03,-0.02,-0.01
2020-08-12 20:26:30.4040,-0.02,-0.02,-0.01
2020-08-12 20:26:30.5030,-0.01,0.02,-0.0
2020-08-12 20:26:30.6030,-0.01,-0.01,-0.02
2020-08-12 20:26:30.7020,0.01,-0.01,-0.01
2020-08-12 20:26:30.8010,-0.01,-0.05,-0.02
2020-08-12 20:26:30.9000,-0.03,-0.03,-0.02
2020-08-12 20:26:31.0000,-0.1,-0.33,0.08
2020-08-12 20:26:31.0990,-0.42,-0.09,0.04
2020-08-12 20:26:31.1980,-0.47,-0.07,0.09
2020-08-12 20:26:31.2970,-0.82,0.1,0.09
2020-08-12 20:26:31.3970,-0.22,-0.31,0.1
2020-08-12 20:26:31.4960,0.08,-0.34,0.1
2020-08-12 20:26:31.5940,0.59,-0.25,0.1
2020-08-12 20:26:31.6940,0.89,-0.03,0.05
2020-08-12 20:26:31.7940,0.45,-0.23,-0.12
2020-08-12 20:26:31.8930,0.37,-0.29,0.1
2020-08-12 20:26:31.9920,0.09,-0.0,0.07
2020-08-12 20:26:32.0910,0.08,0.02,0.07
2020-08-12 20:26:32.1910,0.07,-0.03,-0.02
2020-08-12 20:26:32.2900,0.01,0.01,0.02
2020-08-12 20:26:32.3890,-0.05,0.03,0.02
2020-08-12 20:26:32.4880,0.01,-0.01,-0.01
2020-08-12 20:26:32.5880,-0.02,0.0,0.02
2020-08-12 20:26:32.6870,-0.03,0.01,0.0
2020-08-12 20:26:32.7860,-0.0,-0.01,-0.02
2020-08-12 20:26:32.8850,0.02,-0.04,-0.05
2020-08-12 20:26:32.9850,-0.16,-0.3,0.03
2020-08-12 20:26:33.0840,-0.31,-0.29,-0.05
2020-08-12 20:26:33.1830,-0.9,-0.06,-0.09
2020-08-12 20:26:33.2820,-0.67,0.09,0.05
2020-08-12 20:26:33.3820,-0.17,-0.25,0.11
2020-08-12 20:26:33.4810,0.17,-0.35,0.14
2020-08-12 20:26:33.5800,0.44,-0.17,0.08
2020-08-12 20:26:33.6790,0.76,0.01,0.09
2020-08-12 20:26:33.7790,0.69,0.02,0.19
2020-08-12 20:26:33.8780,0.27,-0.24,-0.11
2020-08-12 20:26:33.9770,0.19,-0.02,-0.09
2020-08-12 20:26:34.0760,0.04,0.03,0.11
2020-08-12 20:26:34.1760,-0.03,0.02,-0.0
2020-08-12 20:26:34.2750,0.05,0.01,-0.01
2020-08-12 20:26:34.3740,0.01,-0.0,-0.0
2020-08-12 20:26:34.4730,-0.01,-0.0,0.01
2020-08-12 20:26:34.5730,-0.02,0.01,-0.01
2020-08-12 20:26:34.6710,-0.04,0.01,0.01
2020-08-12 20:26:34.7710,-0.04,0.01,0.01
2020-08-12 20:26:34.8710,-0.04,-0.04,-0.01
2020-08-12 20:26:34.9700,-0.18,-0.31,0.1
2020-08-12 20:26:35.0690,-0.43,-0.15,-0.08
2020-08-12 20:26:35.1680,0.11,-0.32,0.2
2020-08-12 20:26:35.2670,-0.89,0.13,0.04
2020-08-12 20:26:35.3670,-0.24,-0.24,0.0
2020-08-12 20:26:35.4660,0.12,-0.36,0.12
2020-08-12 20:26:35.5650,0.67,-0.22,0.1
2020-08-12 20:26:35.6640,0.65,0.0,0.05
2020-08-12 20:26:35.7630,0.71,-0.07,0.07
2020-08-12 20:26:35.8630,0.51,-0.29,-0.04
2020-08-12 20:26:35.9620,0.02,-0.06,0.05
2020-08-12 20:26:36.0610,-0.01,0.04,0.08
2020-08-12 20:26:36.1610,-0.05,0.01,0.02
2020-08-12 20:26:36.2600,0.0,-0.01,-0.02
2020-08-12 20:26:36.3590,-0.03,-0.0,0.01
2020-08-12 20:26:36.4590,-0.01,-0.01,0.01
2020-08-12 20:26:36.5580,-0.03,0.03,0.01
2020-08-12 20:26:36.6570,-0.06,0.0,0.02
2020-08-12 20:26:36.7560,-0.03,0.0,-0.01
2020-08-12 20:26:36.8550,-0.02,-0.04,-0.04
2020-08-12 20:26:36.9550,-0.18,-0.25,0.07
2020-08-12 20:26:37.0540,-0.46,-0.1,0.05
2020-08-12 20:26:37.1530,-0.38,0.03,0.28
2020-08-12 20:26:37.2530,-0.72,0.16,0.05
2020-08-12 20:26:37.3520,-0.18,-0.35,0.03
2020-08-12 20:26:37.4510,0.15,-0.3,0.12
2020-08-12 20:26:37.5500,0.52,-0.19,0.08
2020-08-12 20:26:37.6490,0.88,-0.02,0.08
2020-08-12 20:26:37.7490,-0.19,-0.37,-0.56
2020-08-12 20:26:37.8480,0.45,-0.28,0.13
2020-08-12 20:26:37.9470,0.13,-0.03,-0.09
2020-08-12 20:26:38.0460,0.14,-0.03,0.02
2020-08-12 20:26:38.1460,0.02,-0.01,-0.01
2020-08-12 20:26:38.2450,-0.0,-0.01,-0.01
2020-08-12 20:26:38.3440,0.0,0.0,0.01
2020-08-12 20:26:38.4430,0.0,0.01,0.03
2020-08-12 20:26:38.5430,-0.04,-0.01,0.01
2020-08-12 20:26:38.6420,-0.04,0.01,-0.0
2020-08-12 20:26:38.7410,-0.01,-0.03,-0.03
2020-08-12 20:26:38.8400,-0.05,-0.02,0.0
2020-08-12 20:26:38.9400,-0.13,-0.35,-0.12
2020-08-12 20:26:39.0390,-0.34,-0.0,0.22
2020-08-12 20:26:39.1380,-1.0,0.13,0.01
2020-08-12 20:26:39.2380,-0.57,0.01,0.15
2020-08-12 20:26:39.3370,-0.12,-0.31,0.15
2020-08-12 20:26:39.4360,0.21,-0.26,0.15
2020-08-12 20:26:39.5350,0.49,-0.14,0.06
2020-08-12 20:26:39.6350,0.78,0.03,0.02
2020-08-12 20:26:39.7340,0.48,-0.31,-0.12
2020-08-12 20:26:39.8330,0.4,-0.28,0.08
2020-08-12 20:26:39.9320,0.16,-0.01,-0.13
2020-08-12 20:26:40.0320,0.13,-0.01,0.07
2020-08-12 20:26:40.1310,-0.04,0.03,0.01
2020-08-12 20:26:40.2290,-0.03,0.02,0.02
2020-08-12 20:26:40.3290,-0.01,0.02,0.02
2020-08-12 20:26:40.4280,-0.05,-0.0,-0.0
2020-08-12 20:26:40.5280,-0.08,0.02,0.05
2020-08-12 20:26:40.6270,-0.05,-0.0,0.01
2020-08-12 20:26:40.7260,-0.02,-0.01,-0.01
2020-08-12 20:26:40.8250,-0.0,-0.03,-0.04
2020-08-12 20:26:40.9240,-0.18,-0.24,0.09
2020-08-12 20:26:41.0240,-0.4,-0.15,0.06
2020-08-12 20:26:41.1230,-0.3,-0.12,0.27
2020-08-12 20:26:41.2220,-0.76,0.17,0.03
2020-08-12 20:26:41.3220,-0.18,-0.33,0.06
2020-08-12 20:26:41.4210,0.07,-0.27,0.11
2020-08-12 20:26:41.5200,0.55,-0.25,0.04
2020-08-12 20:26:41.6200,0.78,-0.03,0.04
2020-08-12 20:26:41.7190,0.61,-0.26,0.01
2020-08-12 20:26:41.8180,0.47,-0.29,0.13
2020-08-12 20:26:41.9170,-0.03,-0.05,-0.04
2020-08-12 20:26:42.0170,-0.02,0.01,0.1
2020-08-12 20:26:42.1160,-0.01,-0.0,-0.05
2020-08-12 20:26:42.2150,0.01,0.01,0.0
2020-08-12 20:26:42.3140,0.0,0.0,0.01
2020-08-12 20:26:42.4140,-0.01,0.01,-0.02
2020-08-12 20:26:42.5130,-0.03,0.01,0.0
2020-08-12 20:26:42.6120,0.0,-0.0,-0.01
2020-08-12 20:26:42.7110,0.02,-0.02,-0.04
2020-08-12 20:26:42.8110,0.06,0.01,-0.04
2020-08-12 20:26:42.9100,-0.11,-0.23,0.13
2020-08-12 20:26:43.0100,-0.44,-0.18,0.05
2020-08-12 20:26:43.1070,-0.6,-0.14,0.1
2020-08-12 20:26:43.2070,-0.8,0.1,0.07
2020-08-12 20:26:43.3070,-0.17,-0.28,0.02
2020-08-12 20:26:43.4060,0.2,-0.3,0.09
2020-08-12 20:26:43.5050,0.56,-0.16,0.03
2020-08-12 20:26:43.6050,0.89,0.01,-0.05
2020-08-12 20:26:43.7040,-0.57,-0.2,-0.3
2020-08-12 20:26:43.8030,0.42,-0.14,-0.1
2020-08-12 20:26:43.9020,0.03,0.07,-0.14
2020-08-12 20:26:44.0020,0.12,-0.01,0.03
2020-08-12 20:26:44.1010,0.02,-0.0,0.0
2020-08-12 20:26:44.2000,0.03,0.0,-0.05
2020-08-12 20:26:44.2990,-0.04,0.01,0.08
2020-08-12 20:26:44.3990,-0.01,0.02,0.05
2020-08-12 20:26:44.4980,0.03,-0.02,-0.03
2020-08-12 20:26:44.5970,-0.03,0.01,-0.02
2020-08-12 20:26:44.6960,0.02,-0.01,-0.1
2020-08-12 20:26:44.7950,0.0,-0.01,-0.01
2020-08-12 20:26:44.8950,-0.03,-0.1,0.03
2020-08-12 20:26:44.9940,-0.23,-0.23,-0.09
2020-08-12 20:26:45.0930,-0.18,-0.21,0.29
2020-08-12 20:26:45.1930,-1.11,0.24,0.05
2020-08-12 20:26:45.2920,-0.42,-0.08,0.03
2020-08-12 20:26:45.3910,-0.0,-0.26,0.07
2020-08-12 20:26:45.4900,0.49,-0.32,0.07
2020-08-12 20:26:45.5900,0.9,-0.11,0.01
2020-08-12 20:26:45.6890,0.7,0.02,0.09
2020-08-12 20:26:45.7880,0.15,-0.36,-0.1
2020-08-12 20:26:45.8880,0.21,-0.16,0.35
2020-08-12 20:26:45.9870,0.01,-0.01,0.06
2020-08-12 20:26:46.0860,0.03,0.02,-0.02
2020-08-12 20:26:46.1850,0.03,0.01,-0.05
2020-08-12 20:26:46.2840,0.04,-0.0,-0.06
2020-08-12 20:26:46.3830,0.0,-0.01,0.03
2020-08-12 20:26:46.4830,-0.02,-0.0,0.02
2020-08-12 20:26:46.5820,-0.01,-0.0,-0.0
2020-08-12 20:26:46.6810,-0.02,-0.01,-0.02
2020-08-12 20:26:46.7810,0.01,-0.02,-0.02
2020-08-12 20:26:46.8800,-0.0,-0.05,-0.01
2020-08-12 20:26:46.9790,-0.11,-0.17,-0.09
2020-08-12 20:26:47.0790,-0.44,-0.13,0.07
2020-08-12 20:26:47.1770,-0.5,-0.15,0.16
2020-08-12 20:26:47.2770,-0.7,0.14,0.09
2020-08-12 20:26:47.3760,-0.08,-0.4,0.04
2020-08-12 20:26:47.4750,0.2,-0.31,0.05
2020-08-12 20:26:47.5750,0.77,-0.16,0.03
2020-08-12 20:26:47.6740,0.93,0.02,0.02
2020-08-12 20:26:47.7730,-1.04,0.01,0.01
2020-08-12 20:26:47.8720,0.07,0.01,0.1
2020-08-12 20:26:47.9720,0.03,-0.03,-0.11
2020-08-12 20:26:48.0710,0.06,-0.02,0.0
2020-08-12 20:26:48.1700,-0.0,-0.0,-0.03
2020-08-12 20:26:48.2690,0.02,0.01,-0.0
2020-08-12 20:26:48.3690,0.02,0.01,-0.0
2020-08-12 20:26:48.4680,-0.04,0.01,0.02
2020-08-12 20:26:48.5670,-0.02,-0.0,-0.01
2020-08-12 20:26:48.6660,-0.02,-0.0,-0.01
2020-08-12 20:26:48.7660,-0.01,-0.03,-0.03
2020-08-12 20:26:48.8650,-0.02,-0.04,-0.02
2020-08-12 20:26:48.9640,-0.18,-0.3,0.11
2020-08-12 20:26:49.0630,-0.48,-0.1,-0.04
2020-08-12 20:26:49.1630,0.16,-0.26,0.2
2020-08-12 20:26:49.2620,-0.96,0.16,0.13
2020-08-12 20:26:49.3610,-0.27,-0.32,0.03
2020-08-12 20:26:49.4600,0.18,-0.36,0.05
2020-08-12 20:26:49.5600,0.58,-0.11,0.11
2020-08-12 20:26:49.6590,0.9,0.02,-0.01
2020-08-12 20:26:49.7580,0.51,-0.32,-0.1
2020-08-12 20:26:49.8570,0.66,-0.3,-0.13
2020-08-12 20:26:49.9570,0.04,0.04,-0.14
2020-08-12 20:26:50.0560,0.09,-0.02,0.03
2020-08-12 20:26:50.1550,0.06,0.02,-0.04
2020-08-12 20:26:50.2540,0.01,-0.0,-0.03
2020-08-12 20:26:50.3540,0.02,0.0,-0.02
2020-08-12 20:26:50.4530,0.0,0.0,0.0
2020-08-12 20:26:50.5510,-0.01,-0.0,0.03
2020-08-12 20:26:50.6510,-0.02,-0.0,0.01
2020-08-12 20:26:50.7510,-0.05,0.0,-0.01
2020-08-12 20:26:50.8500,-0.12,-0.09,0.09
2020-08-12 20:26:50.9490,-0.17,-0.32,-0.17
2020-08-12 20:26:51.0480,-0.33,-0.12,0.35
2020-08-12 20:26:51.1480,-1.21,0.26,0.11
2020-08-12 20:26:51.2470,-0.49,-0.02,-0.04
2020-08-12 20:26:51.3460,0.01,-0.32,-0.03
2020-08-12 20:26:51.4450,0.4,-0.33,-0.05
2020-08-12 20:26:51.5450,0.85,-0.05,-0.01
2020-08-12 20:26:51.6440,0.81,0.02,0.08
2020-08-12 20:26:51.7430,0.05,-0.04,-0.33
2020-08-12 20:26:51.8420,0.24,0.07,-0.0
2020-08-12 20:26:51.9420,0.22,-0.0,-0.04
2020-08-12 20:26:52.0410,0.03,-0.04,-0.05
2020-08-12 20:26:52.1400,-0.01,0.04,0.08
2020-08-12 20:26:52.2400,-0.05,0.03,0.05
2020-08-12 20:26:52.3390,0.03,0.02,-0.05
2020-08-12 20:26:52.4380,0.01,-0.02,-0.05
2020-08-12 20:26:52.5370,-0.06,-0.0,0.05
2020-08-12 20:26:52.6370,-0.03,0.0,-0.03
2020-08-12 20:26:52.7360,0.03,-0.03,-0.01
2020-08-12 20:26:52.8350,-0.05,-0.11,-0.04
2020-08-12 20:26:52.9340,-0.43,-0.3,-0.11
2020-08-12 20:26:53.0330,-0.13,-0.19,0.19
2020-08-12 20:26:53.1320,-0.95,0.14,0.06
2020-08-12 20:26:53.2320,-0.5,-0.01,0.06
2020-08-12 20:26:53.3320,-0.06,-0.41,0.1
2020-08-12 20:26:53.4300,0.38,-0.33,0.07
2020-08-12 20:26:53.5300,0.71,-0.1,0.06
2020-08-12 20:26:53.6290,0.71,0.07,0.14
2020-08-12 20:26:53.7280,-1.14,0.06,-0.1
2020-08-12 20:26:53.8280,0.28,0.04,-0.07
2020-08-12 20:26:53.9270,0.04,0.03,-0.1
2020-08-12 20:26:54.0260,-0.04,0.0,-0.02
2020-08-12 20:26:54.1250,-0.0,0.02,0.02
2020-08-12 20:26:54.2240,0.08,-0.03,-0.04
2020-08-12 20:26:54.3240,-0.07,0.06,0.05
2020-08-12 20:26:54.4230,-0.11,0.03,0.05
2020-08-12 20:26:54.5220,-0.06,0.03,0.02
2020-08-12 20:26:54.6210,-0.01,0.0,-0.01
2020-08-12 20:26:54.7200,0.03,-0.0,-0.03
2020-08-12 20:26:54.8200,0.01,-0.03,-0.02
2020-08-12 20:26:54.9190,-0.22,-0.29,0.0
2020-08-12 20:26:55.0190,-0.25,-0.25,0.27
2020-08-12 20:26:55.1180,-0.89,0.26,-0.03
2020-08-12 20:26:55.2170,-0.38,0.03,-0.03
2020-08-12 20:26:55.3160,0.05,-0.21,0.09
2020-08-12 20:26:55.4160,0.08,-0.15,0.09
2020-08-12 20:26:55.5150,0.52,-0.17,0.07
2020-08-12 20:26:55.6140,0.63,0.03,0.05
2020-08-12 20:26:55.7130,0.19,-0.28,-0.42
2020-08-12 20:26:55.8120,0.64,-0.44,0.06
2020-08-12 20:26:55.9120,-0.24,0.08,-0.03
2020-08-12 20:26:56.0110,-0.05,0.01,0.03
2020-08-12 20:26:56.1100,-0.0,-0.0,0.01
2020-08-12 20:26:56.2090,0.07,-0.0,-0.04
2020-08-12 20:26:56.3090,0.02,-0.01,-0.01
2020-08-12 20:26:56.4080,0.0,0.01,0.0
2020-08-12 20:26:56.5070,0.03,0.02,-0.03
2020-08-12 20:26:56.6060,0.01,0.0,-0.01
2020-08-12 20:26:56.7060,0.02,-0.0,-0.04
2020-08-12 20:26:56.8050,0.01,-0.03,-0.09
2020-08-12 20:26:56.9040,-0.04,-0.24,-0.04
2020-08-12 20:26:57.0030,-0.47,-0.14,0.09
2020-08-12 20:26:57.1030,-0.29,-0.09,0.27
2020-08-12 20:26:57.2020,-0.75,0.06,-0.11
2020-08-12 20:26:57.3010,-0.12,-0.35,-0.12
2020-08-12 20:26:57.4010,0.39,-0.35,0.09
2020-08-12 20:26:57.4990,0.69,-0.05,-0.01
2020-08-12 20:26:57.5990,0.57,0.11,0.13
2020-08-12 20:26:57.6980,0.25,-0.37,-0.37
2020-08-12 20:26:57.7980,0.72,-0.19,-0.05
2020-08-12 20:26:57.8970,0.12,0.02,-0.1
2020-08-12 20:26:57.9950,0.19,-0.05,0.08
2020-08-12 20:26:58.0950,0.02,0.03,0.01
2020-08-12 20:26:58.1950,-0.02,0.04,0.05
2020-08-12 20:26:58.2940,0.11,-0.03,-0.11
2020-08-12 20:26:58.3930,0.03,-0.0,0.01
2020-08-12 20:26:58.4920,0.03,0.01,-0.03
2020-08-12 20:26:58.5920,0.03,-0.02,-0.02
2020-08-12 20:26:58.6910,0.04,-0.01,0.02
2020-08-12 20:26:58.7900,-0.01,-0.01,-0.02
2020-08-12 20:26:58.8890,-0.08,-0.26,-0.06
2020-08-12 20:26:58.9890,-0.28,-0.17,0.06
2020-08-12 20:26:59.0880,-1.03,0.19,-0.02
2020-08-12 20:26:59.1870,-0.59,0.06,0.08
2020-08-12 20:26:59.2870,-0.06,-0.3,0.04
2020-08-12 20:26:59.3860,0.23,-0.23,0.12
2020-08-12 20:26:59.4850,0.6,-0.13,0.13
2020-08-12 20:26:59.5830,0.89,0.06,0.09
2020-08-12 20:26:59.6830,-1.04,-0.18,0.31
2020-08-12 20:26:59.7830,-0.02,0.02,0.35
2020-08-12 20:26:59.8820,-0.1,0.02,-0.01
2020-08-12 20:26:59.9810,-0.05,-0.01,-0.02
2020-08-12 20:27:00.0800,-0.01,0.02,0.0
2020-08-12 20:27:00.1800,-0.05,0.01,0.05
2020-08-12 20:27:00.2780,0.02,0.0,-0.01
2020-08-12 20:27:00.3770,0.0,-0.0,0.03
2020-08-12 20:27:00.4770,-0.04,0.02,0.03
2020-08-12 20:27:00.5760,-0.06,-0.01,0.01
2020-08-12 20:27:00.6760,-0.08,-0.01,-0.0
2020-08-12 20:27:00.7750,0.04,-0.04,-0.06
2020-08-12 20:27:00.8740,-0.12,-0.24,0.04
2020-08-12 20:27:00.9740,-0.47,-0.12,-0.0
2020-08-12 20:27:01.0730,-0.42,-0.23,0.23
2020-08-12 20:27:01.1720,-0.82,0.08,0.02
2020-08-12 20:27:01.2710,-0.16,-0.34,0.05
2020-08-12 20:27:01.3710,0.42,-0.38,0.07
2020-08-12 20:27:01.4700,0.87,-0.13,0.06
2020-08-12 20:27:01.5690,0.91,0.04,0.26
2020-08-12 20:27:01.6670,-0.06,-0.46,0.07
2020-08-12 20:27:01.7680,-0.04,0.01,0.44
2020-08-12 20:27:01.8670,-0.02,-0.02,0.03
2020-08-12 20:27:01.9660,-0.02,0.0,0.04
2020-08-12 20:27:02.0650,0.0,-0.0,-0.02
2020-08-12 20:27:02.1650,0.09,-0.03,-0.09
2020-08-12 20:27:02.2640,0.01,-0.0,0.05
2020-08-12 20:27:02.3630,-0.04,0.05,0.06
2020-08-12 20:27:02.4610,-0.01,-0.0,0.01
2020-08-12 20:27:02.5620,-0.01,-0.03,-0.03
2020-08-12 20:27:02.6610,-0.06,-0.02,0.0
2020-08-12 20:27:02.7600,-0.07,-0.06,-0.02
2020-08-12 20:27:02.8590,-0.21,-0.23,-0.1
2020-08-12 20:27:02.9590,-0.17,-0.23,0.28
2020-08-12 20:27:03.0580,-1.38,0.25,0.14
2020-08-12 20:27:03.1570,-0.48,-0.07,-0.01
2020-08-12 20:27:03.2560,0.06,-0.28,-0.01
2020-08-12 20:27:03.3560,0.42,-0.25,0.08
2020-08-12 20:27:03.4550,0.92,-0.09,0.11
2020-08-12 20:27:03.5540,0.72,-0.13,0.05
2020-08-12 20:27:03.6530,0.58,-0.24,-0.21
2020-08-12 20:27:03.7530,0.14,-0.09,-0.03
2020-08-12 20:27:03.8520,0.13,0.01,0.07
2020-08-12 20:27:03.9510,0.08,-0.02,-0.05
2020-08-12 20:27:04.0500,0.03,-0.01,0.01
2020-08-12 20:27:04.1500,0.0,0.01,-0.01
2020-08-12 20:27:04.2490,-0.05,0.02,0.04
2020-08-12 20:27:04.3470,-0.06,0.03,-0.01
2020-08-12 20:27:04.4470,-0.04,-0.02,-0.01
2020-08-12 20:27:04.5470,-0.04,-0.0,0.01
2020-08-12 20:27:04.6460,-0.05,-0.01,-0.02
2020-08-12 20:27:04.7450,-0.18,-0.28,0.05
2020-08-12 20:27:04.8440,-0.33,-0.09,-0.09
2020-08-12 20:27:04.9430,-0.09,-0.4,0.19
2020-08-12 20:27:05.0430,-1.39,0.26,0.07
2020-08-12 20:27:05.1420,-0.58,-0.09,-0.01
2020-08-12 20:27:05.2410,0.07,-0.37,0.06
2020-08-12 20:27:05.3410,0.48,-0.35,0.05
2020-08-12 20:27:05.4400,1.13,-0.06,0.04
2020-08-12 20:27:05.5390,0.14,-0.53,-0.28
2020-08-12 20:27:05.6390,0.58,-0.24,0.03
2020-08-12 20:27:05.7380,0.2,0.02,-0.28
2020-08-12 20:27:05.8370,0.15,-0.01,0.12
2020-08-12 20:27:05.9360,0.08,-0.01,-0.05
2020-08-12 20:27:06.0350,0.03,0.01,-0.02
2020-08-12 20:27:06.1350,-0.06,0.03,0.04
2020-08-12 20:27:06.2340,-0.05,0.02,-0.04
2020-08-12 20:27:06.3330,0.04,-0.04,-0.05
2020-08-12 20:27:06.4320,-0.04,0.01,-0.03
2020-08-12 20:27:06.5320,-0.01,-0.03,0.01
2020-08-12 20:27:06.6310,0.03,-0.02,-0.03
2020-08-12 20:27:06.7300,-0.19,-0.3,-0.0
2020-08-12 20:27:06.8290,-0.46,-0.31,-0.0
2020-08-12 20:27:06.9290,-0.6,0.03,0.08
2020-08-12 20:27:07.0280,-0.73,0.13,0.01
2020-08-12 20:27:07.1270,-0.13,-0.26,0.05
2020-08-12 20:27:07.2260,0.1,-0.25,0.03
2020-08-12 20:27:07.3260,0.32,-0.11,0.04
2020-08-12 20:27:07.4260,0.69,-0.05,0.05
2020-08-12 20:27:07.5240,0.79,0.03,0.16
2020-08-12 20:27:07.6230,-0.15,-0.35,-0.01
2020-08-12 20:27:07.7220,0.09,-0.13,0.64
2020-08-12 20:27:07.8220,-0.17,0.0,0.05
2020-08-12 20:27:07.9210,0.0,-0.0,-0.07
2020-08-12 20:27:08.0200,0.0,-0.03,-0.01
2020-08-12 20:27:08.1200,0.03,-0.01,0.0
2020-08-12 20:27:08.2180,-0.0,-0.03,0.01
2020-08-12 20:27:08.3180,-0.04,0.03,0.01
2020-08-12 20:27:08.4170,0.0,0.0,-0.04
2020-08-12 20:27:08.5170,-0.02,-0.02,-0.03
2020-08-12 20:27:08.6160,0.03,-0.02,-0.07
2020-08-12 20:27:08.7140,-0.05,-0.02,0.05
2020-08-12 20:27:08.8140,-0.37,-0.35,0.13
2020-08-12 20:27:08.9140,-0.16,-0.26,0.31
2020-08-12 20:27:09.0130,-0.99,0.25,0.11
2020-08-12 20:27:09.1120,-0.43,-0.11,-0.02
2020-08-12 20:27:09.2110,-0.03,-0.28,0.04
2020-08-12 20:27:09.3110,0.24,-0.27,0.08
2020-08-12 20:27:09.4090,0.62,-0.14,0.07
2020-08-12 20:27:09.5090,0.95,-0.01,0.14
2020-08-12 20:27:09.6090,-1.07,-0.02,-0.14
2020-08-12 20:27:09.7080,0.01,-0.04,0.39
2020-08-12 20:27:09.8060,-0.05,-0.04,0.0
2020-08-12 20:27:09.9060,0.06,-0.03,-0.05
2020-08-12 20:27:10.0050,-0.01,0.0,-0.01
2020-08-12 20:27:10.1050,0.01,0.0,-0.01
2020-08-12 20:27:10.2040,-0.0,0.0,-0.0
2020-08-12 20:27:10.3030,-0.03,-0.02,0.02
2020-08-12 20:27:10.4030,-0.01,-0.0,0.0
2020-08-12 20:27:10.5020,0.07,0.01,-0.07
2020-08-12 20:27:10.6000,0.03,-0.06,0.02
2020-08-12 20:27:10.7000,-0.19,-0.28,0.08
2020-08-12 20:27:10.7990,-0.43,-0.25,-0.0
2020-08-12 20:27:10.8990,-0.16,-0.09,0.33
2020-08-12 20:27:10.9980,-0.8,0.13,0.07
2020-08-12 20:27:11.0960,-0.28,-0.18,-0.02
2020-08-12 20:27:11.1960,0.08,-0.31,0.06
2020-08-12 20:27:11.2960,0.6,-0.27,0.02
2020-08-12 20:27:11.3950,0.75,0.01,0.02
2020-08-12 20:27:11.4950,-0.4,-0.32,-0.45
2020-08-12 20:27:11.5930,0.38,-0.13,-0.16
2020-08-12 20:27:11.6930,0.08,0.02,-0.12
2020-08-12 20:27:11.7910,0.03,-0.01,0.03
2020-08-12 20:27:11.8910,-0.02,0.03,0.01
2020-08-12 20:27:11.9900,-0.01,-0.01,-0.01
2020-08-12 20:27:12.0890,-0.0,0.02,0.03
2020-08-12 20:27:12.1890,0.0,0.02,0.0
2020-08-12 20:27:12.2880,0.02,-0.02,-0.04
2020-08-12 20:27:12.3870,0.04,-0.0,-0.05
2020-08-12 20:27:12.4870,0.01,-0.04,-0.04
2020-08-12 20:27:12.5860,-0.07,-0.1,0.01
2020-08-12 20:27:12.6840,-0.34,-0.19,-0.07
2020-08-12 20:27:12.7840,-0.42,-0.32,0.36
2020-08-12 20:27:12.8840,-1.41,0.29,0.13
2020-08-12 20:27:12.9830,-0.63,-0.01,-0.06
2020-08-12 20:27:13.0820,-0.04,-0.28,0.03
2020-08-12 20:27:13.1810,0.5,-0.28,-0.03
2020-08-12 20:27:13.2810,1.19,-0.13,0.14
2020-08-12 20:27:13.3800,-1.11,-0.16,-0.23
2020-08-12 20:27:13.4780,0.06,-0.12,0.05
2020-08-12 20:27:13.5790,-0.0,0.0,-0.06
2020-08-12 20:27:13.6780,-0.04,-0.01,0.04
2020-08-12 20:27:13.7760,-0.01,-0.01,0.02
2020-08-12 20:27:13.8750,0.01,-0.02,0.0
2020-08-12 20:27:13.9750,-0.0,0.01,-0.01
2020-08-12 20:27:14.0740,-0.03,-0.01,-0.0
2020-08-12 20:27:14.1740,-0.02,0.0,0.01
2020-08-12 20:27:14.2730,-0.01,0.02,0.0
2020-08-12 20:27:14.3720,-0.0,-0.04,-0.01
2020-08-12 20:27:14.4720,-0.07,-0.18,-0.03
2020-08-12 20:27:14.5710,-0.45,-0.2,-0.03
2020-08-12 20:27:14.6700,0.01,-0.32,0.16
2020-08-12 20:27:14.7700,-0.91,0.17,0.02
2020-08-12 20:27:14.8690,-0.24,-0.24,-0.07
2020-08-12 20:27:14.9680,0.08,-0.28,0.03
2020-08-12 20:27:15.0670,0.55,-0.27,-0.03
2020-08-12 20:27:15.1660,1.05,-0.02,0.09
2020-08-12 20:27:15.2660,0.08,-0.37,-0.32
2020-08-12 20:27:15.3640,0.61,-0.3,-0.12
2020-08-12 20:27:15.4640,0.11,0.02,-0.06
2020-08-12 20:27:15.5640,0.05,-0.02,0.03
2020-08-12 20:27:15.6630,0.07,0.01,-0.01
2020-08-12 20:27:15.7620,0.04,-0.02,-0.01
2020-08-12 20:27:15.8610,-0.06,0.08,0.05
2020-08-12 20:27:15.9610,-0.09,0.02,0.03
2020-08-12 20:27:16.0600,-0.0,-0.0,0.0
2020-08-12 20:27:16.1580,-0.03,-0.0,-0.01
2020-08-12 20:27:16.2580,-0.02,-0.0,-0.03
2020-08-12 20:27:16.3580,-0.05,-0.08,0.02
2020-08-12 20:27:16.4570,-0.18,-0.3,-0.13
2020-08-12 20:27:16.5560,-0.46,-0.14,0.33
2020-08-12 20:27:16.6550,-1.19,0.17,0.03
2020-08-12 20:27:16.7540,-0.59,0.0,0.02
2020-08-12 20:27:16.8530,0.03,-0.39,0.04
2020-08-12 20:27:16.9530,0.55,-0.28,0.11
2020-08-12 20:27:17.0520,0.79,-0.05,0.05
2020-08-12 20:27:17.1510,0.88,0.01,0.13
2020-08-12 20:27:17.2510,0.21,-0.34,-0.19
2020-08-12 20:27:17.3500,0.12,-0.11,0.33
2020-08-12 20:27:17.4500,-0.03,0.01,0.09
2020-08-12 20:27:17.5480,0.05,-0.02,-0.06
2020-08-12 20:27:17.6480,-0.03,-0.02,0.06
2020-08-12 20:27:17.7470,-0.02,0.01,0.01
2020-08-12 20:27:17.8460,-0.06,0.0,0.0
2020-08-12 20:27:17.9450,-0.03,0.01,0.01
2020-08-12 20:27:18.0450,-0.04,0.02,0.01
2020-08-12 20:27:18.1440,-0.03,-0.01,-0.0
2020-08-12 20:27:18.2430,-0.02,0.01,0.01
2020-08-12 20:27:18.3420,-0.11,-0.05,0.03
2020-08-12 20:27:18.4410,-0.22,-0.2,-0.03
2020-08-12 20:27:18.5400,-0.38,-0.14,0.19
2020-08-12 20:27:18.6400,-1.05,0.2,-0.06
2020-08-12 20:27:18.7390,-0.64,0.04,0.13
2020-08-12 20:27:18.8390,-0.11,-0.29,0.03
2020-08-12 20:27:18.9380,0.32,-0.29,0.08
2020-08-12 20:27:19.0370,0.77,-0.12,0.03
2020-08-12 20:27:19.1360,0.8,0.02,0.09
2020-08-12 20:27:19.2360,0.03,-0.53,-0.0
2020-08-12 20:27:19.3350,0.18,-0.17,0.46
2020-08-12 20:27:19.4330,0.02,-0.02,0.02
2020-08-12 20:27:19.5340,0.05,-0.0,-0.07
2020-08-12 20:27:19.6330,-0.0,0.0,0.01
2020-08-12 20:27:19.7320,0.05,-0.01,-0.07
2020-08-12 20:27:19.8300,0.01,0.0,-0.01
2020-08-12 20:27:19.9310,0.01,0.0,0.03
2020-08-12 20:27:20.0300,-0.03,-0.01,-0.02
2020-08-12 20:27:20.1290,-0.02,-0.02,-0.02
2020-08-12 20:27:20.2270,-0.02,0.0,-0.01
2020-08-12 20:27:20.3270,-0.25,-0.41,0.1
2020-08-12 20:27:20.4260,-0.37,-0.04,0.38
2020-08-12 20:27:20.5260,-1.04,0.05,0.02
2020-08-12 20:27:20.6250,-0.68,0.01,0.08
2020-08-12 20:27:20.7240,-0.17,-0.29,0.09
2020-08-12 20:27:20.8240,0.16,-0.28,0.11
2020-08-12 20:27:20.9230,0.41,-0.16,0.03
2020-08-12 20:27:21.0220,0.86,-0.02,0.05
2020-08-12 20:27:21.1220,0.51,-0.18,0.07
2020-08-12 20:27:21.2210,0.52,-0.17,-0.17
2020-08-12 20:27:21.3200,0.23,-0.11,-0.12
2020-08-12 20:27:21.4190,0.19,-0.0,0.09
2020-08-12 20:27:21.5190,0.02,0.01,-0.04
2020-08-12 20:27:21.6180,0.03,0.01,-0.05
2020-08-12 20:27:21.7170,0.02,0.0,0.03
2020-08-12 20:27:21.8160,0.02,-0.0,0.03
2020-08-12 20:27:21.9150,-0.03,-0.01,0.01
2020-08-12 20:27:22.0150,-0.02,0.01,-0.0
2020-08-12 20:27:22.1140,-0.02,0.0,0.02
2020-08-12 20:27:22.2120,-0.01,-0.02,-0.0
2020-08-12 20:27:22.3130,-0.06,-0.22,-0.02
2020-08-12 20:27:22.4120,-0.27,-0.14,-0.03
2020-08-12 20:27:22.5110,-0.13,-0.28,0.3
2020-08-12 20:27:22.6100,-0.94,0.25,0.14
2020-08-12 20:27:22.7100,-0.35,-0.22,-0.12
2020-08-12 20:27:22.8090,-0.0,-0.28,-0.04
2020-08-12 20:27:22.9080,0.41,-0.32,-0.04
2020-08-12 20:27:23.0070,0.77,-0.05,0.08
2020-08-12 20:27:23.1060,0.73,0.04,0.2
2020-08-12 20:27:23.2060,-0.3,-0.34,0.02
2020-08-12 20:27:23.3050,0.06,-0.04,0.34
2020-08-12 20:27:23.4040,-0.01,-0.03,-0.01
2020-08-12 20:27:23.5040,0.02,-0.01,-0.0
2020-08-12 20:27:23.6030,0.0,0.01,0.02
2020-08-12 20:27:23.7020,-0.02,-0.0,0.01
2020-08-12 20:27:23.8010,0.05,-0.02,-0.02
2020-08-12 20:27:23.9010,-0.03,-0.01,-0.0
2020-08-12 20:27:24.0000,-0.03,0.0,0.01
2020-08-12 20:27:24.0990,-0.01,-0.0,-0.0
2020-08-12 20:27:24.1980,0.01,0.01,-0.02
2020-08-12 20:27:24.2970,-0.12,-0.04,0.08
2020-08-12 20:27:24.3970,-0.18,-0.27,0.08
2020-08-12 20:27:24.4960,-0.34,-0.32,-0.01
2020-08-12 20:27:24.5950,-0.22,-0.14,0.19
2020-08-12 20:27:24.6950,-0.77,0.1,0.05
2020-08-12 20:27:24.7940,-0.08,-0.24,-0.07
2020-08-12 20:27:24.8930,0.09,-0.23,0.01
2020-08-12 20:27:24.9910,0.61,-0.29,-0.03
2020-08-12 20:27:25.0920,0.76,-0.03,0.04
2020-08-12 20:27:25.1900,0.16,-0.28,-0.06
2020-08-12 20:27:25.2900,0.45,-0.21,-0.12
2020-08-12 20:27:25.3890,0.11,-0.05,-0.06
2020-08-12 20:27:25.4890,0.14,-0.03,0.05
2020-08-12 20:27:25.5880,0.0,0.02,0.01
2020-08-12 20:27:25.6870,0.01,-0.02,-0.01
2020-08-12 20:27:25.7860,-0.03,0.0,0.01
2020-08-12 20:27:25.8860,-0.02,-0.0,0.01
2020-08-12 20:27:25.9850,-0.02,0.01,-0.0
2020-08-12 20:27:26.0840,-0.02,0.01,-0.02
2020-08-12 20:27:26.1830,0.01,-0.03,-0.0
2020-08-12 20:27:26.2830,0.02,-0.02,-0.03
2020-08-12 20:27:26.3810,-0.06,-0.07,0.01
2020-08-12 20:27:26.4810,-0.28,-0.25,-0.07
2020-08-12 20:27:26.5800,-0.19,-0.27,0.35
2020-08-12 20:27:26.6790,-1.25,0.22,0.2
2020-08-12 20:27:26.7790,-0.48,-0.1,0.01
2020-08-12 20:27:26.8780,0.09,-0.29,-0.01
2020-08-12 20:27:26.9780,0.37,-0.22,0.16
2020-08-12 20:27:27.0770,0.84,-0.09,0.13
2020-08-12 20:27:27.1760,0.87,-0.1,0.1
2020-08-12 20:27:27.2750,0.32,-0.22,-0.1
2020-08-12 20:27:27.3740,0.31,-0.06,0.03
2020-08-12 20:27:27.4740,0.15,-0.03,-0.05
2020-08-12 20:27:27.5730,0.05,-0.02,-0.03
2020-08-12 20:27:27.6720,0.03,-0.0,0.01
2020-08-12 20:27:27.7720,0.01,-0.01,0.01
2020-08-12 20:27:27.8710,0.03,-0.03,-0.0
2020-08-12 20:27:27.9700,-0.01,-0.02,-0.04
2020-08-12 20:27:28.0690,-0.03,-0.0,0.01
2020-08-12 20:27:28.1680,-0.01,-0.0,-0.02
2020-08-12 20:27:28.2680,0.01,0.0,-0.02
2020-08-12 20:27:28.3670,-0.11,-0.07,-0.0
2020-08-12 20:27:28.4660,-0.16,-0.18,-0.19
2020-08-12 20:27:28.5650,-0.14,-0.18,0.26
2020-08-12 20:27:28.6650,-1.07,0.22,-0.04
2020-08-12 20:27:28.7640,-0.54,-0.02,0.05
2020-08-12 20:27:28.8630,-0.11,-0.31,0.08
2020-08-12 20:27:28.9620,0.3,-0.3,0.05
2020-08-12 20:27:29.0620,0.74,-0.16,0.06
2020-08-12 20:27:29.1610,0.69,0.04,0.14
2020-08-12 20:27:29.2590,-0.89,-0.05,-0.26
2020-08-12 20:27:29.3590,0.03,-0.06,0.32
2020-08-12 20:27:29.4590,-0.11,-0.03,-0.14
2020-08-12 20:27:29.5580,-0.02,-0.0,0.01
2020-08-12 20:27:29.6570,-0.09,0.02,0.05
2020-08-12 20:27:29.7560,-0.0,0.01,-0.0
2020-08-12 20:27:29.8560,0.02,-0.02,-0.01
2020-08-12 20:27:29.9540,-0.0,0.01,-0.02
2020-08-12 20:27:30.0540,-0.01,0.01,0.01
2020-08-12 20:27:30.1530,-0.03,0.0,-0.01
2020-08-12 20:27:30.2530,-0.01,-0.01,-0.04
2020-08-12 20:27:30.3520,-0.02,-0.04,0.02
2020-08-12 20:27:30.4510,-0.13,-0.24,-0.0
2020-08-12 20:27:30.5500,-0.27,-0.08,-0.02
2020-08-12 20:27:30.6500,-0.21,-0.45,0.29
2020-08-12 20:27:30.7480,-1.25,0.22,0.18
2020-08-12 20:27:30.8480,-0.45,-0.12,-0.09
2020-08-12 20:27:30.9460,-0.01,-0.37,0.06
2020-08-12 20:27:31.0470,0.56,-0.37,0.03
2020-08-12 20:27:31.1460,1.09,-0.09,0.03
2020-08-12 20:27:31.2450,-0.04,-0.45,-0.41
2020-08-12 20:27:31.3440,0.43,-0.12,-0.05
2020-08-12 20:27:31.4440,0.06,0.01,0.01
2020-08-12 20:27:31.5430,0.06,-0.03,-0.04
2020-08-12 20:27:31.6420,0.04,0.01,0.03
2020-08-12 20:27:31.7420,-0.01,-0.0,-0.0
2020-08-12 20:27:31.8410,0.02,-0.0,0.01
2020-08-12 20:27:31.9400,0.02,-0.02,0.01
2020-08-12 20:27:32.0390,-0.01,0.02,0.01
2020-08-12 20:27:32.1380,0.01,-0.02,-0.02
2020-08-12 20:27:32.2380,-0.04,-0.01,-0.01
2020-08-12 20:27:32.3370,0.01,-0.01,-0.03
2020-08-12 20:27:32.4360,0.05,-0.0,-0.08
2020-08-12 20:27:32.5350,-0.11,-0.24,0.07
2020-08-12 20:27:32.6350,-0.29,-0.06,-0.01
2020-08-12 20:27:32.7340,-0.01,-0.43,0.31
2020-08-12 20:27:32.8330,-0.95,0.21,0.03
2020-08-12 20:27:32.9320,-0.45,-0.15,-0.05
2020-08-12 20:27:33.0320,-0.0,-0.31,0.09
2020-08-12 20:27:33.1310,0.6,-0.38,0.07
2020-08-12 20:27:33.2300,1.07,-0.05,0.04
2020-08-12 20:27:33.3290,-0.33,-0.34,-0.56
2020-08-12 20:27:33.4290,0.27,-0.05,-0.06
2020-08-12 20:27:33.5280,0.37,-0.09,-0.21
2020-08-12 20:27:33.6260,0.16,0.02,0.05
2020-08-12 20:27:33.7260,0.01,0.01,0.01
2020-08-12 20:27:33.8260,0.02,0.01,-0.02
2020-08-12 20:27:33.9250,0.03,0.0,0.02
2020-08-12 20:27:34.0240,0.0,-0.01,-0.01
2020-08-12 20:27:34.1230,-0.0,-0.0,-0.02
2020-08-12 20:27:34.2230,-0.01,0.01,-0.02
2020-08-12 20:27:34.3220,-0.01,0.0,-0.01
2020-08-12 20:27:34.4210,-0.02,0.01,-0.03
2020-08-12 20:27:34.5210,-0.1,-0.13,0.04
2020-08-12 20:27:34.6200,-0.16,-0.2,-0.17
2020-08-12 20:27:34.7190,-0.33,-0.28,0.19
2020-08-12 20:27:34.8180,-1.11,0.1,0.01
2020-08-12 20:27:34.9170,-0.66,0.05,0.02
2020-08-12 20:27:35.0170,-0.12,-0.33,0.0
2020-08-12 20:27:35.1160,0.43,-0.36,0.14
2020-08-12 20:27:35.2150,0.86,-0.1,0.04
2020-08-12 20:27:35.3140,0.96,-0.11,0.15
2020-08-12 20:27:35.4140,0.25,-0.16,-0.12
2020-08-12 20:27:35.5130,0.24,-0.14,-0.0
2020-08-12 20:27:35.6120,0.08,-0.02,0.08
2020-08-12 20:27:35.7110,-0.06,0.02,0.04
2020-08-12 20:27:35.8110,0.06,-0.02,-0.05
2020-08-12 20:27:35.9100,-0.01,0.01,0.01
2020-08-12 20:27:36.0090,0.01,-0.01,0.01
2020-08-12 20:27:36.1090,-0.08,0.0,0.0
2020-08-12 20:27:36.2080,-0.04,0.03,0.0
2020-08-12 20:27:36.3060,-0.01,-0.01,-0.03
2020-08-12 20:27:36.4060,0.02,-0.0,-0.01
2020-08-12 20:27:36.5050,0.03,-0.01,-0.02
2020-08-12 20:27:36.6050,-0.12,-0.2,0.05
2020-08-12 20:27:36.7040,-0.2,-0.0,-0.06
2020-08-12 20:27:36.8030,-0.42,-0.46,0.1
2020-08-12 20:27:36.9030,-1.64,0.37,-0.16
2020-08-12 20:27:37.0020,-0.62,-0.12,-0.12
2020-08-12 20:27:37.1010,-0.01,-0.4,0.06
2020-08-12 20:27:37.2000,0.87,-0.33,0.2
2020-08-12 20:27:37.2990,1.13,-0.03,0.22
2020-08-12 20:27:37.3990,-1.24,0.14,-0.11
2020-08-12 20:27:37.4980,0.09,-0.03,0.1
2020-08-12 20:27:37.5970,0.12,-0.06,-0.14
2020-08-12 20:27:37.6970,0.11,-0.02,-0.05
2020-08-12 20:27:37.7960,0.02,-0.0,0.02
2020-08-12 20:27:37.8950,-0.02,0.01,-0.01
2020-08-12 20:27:37.9940,-0.02,0.01,0.05
2020-08-12 20:27:38.0930,-0.01,-0.01,-0.02
2020-08-12 20:27:38.1930,0.01,-0.0,-0.02
2020-08-12 20:27:38.2920,-0.04,0.01,0.02
2020-08-12 20:27:38.3910,0.01,0.01,-0.02
2020-08-12 20:27:38.4900,-0.03,-0.01,-0.04
2020-08-12 20:27:38.5890,-0.14,-0.26,0.07
2020-08-12 20:27:38.6890,-0.4,-0.23,-0.06
2020-08-12 20:27:38.7880,-0.27,-0.33,0.21
2020-08-12 20:27:38.8870,-0.75,0.15,0.11
2020-08-12 20:27:38.9870,-0.14,-0.29,0.0
2020-08-12 20:27:39.0850,0.18,-0.29,0.1
2020-08-12 20:27:39.1850,0.41,-0.15,0.1
2020-08-12 20:27:39.2850,0.94,-0.02,0.06
2020-08-12 20:27:39.3840,-0.38,-0.17,-0.24
2020-08-12 20:27:39.4830,0.4,-0.12,-0.13
2020-08-12 20:27:39.5820,0.21,-0.08,-0.03
2020-08-12 20:27:39.6820,0.15,-0.03,0.0
2020-08-12 20:27:39.7810,0.04,0.01,0.01
2020-08-12 20:27:39.8800,-0.01,0.0,-0.01
2020-08-12 20:27:39.9800,-0.02,-0.0,0.04
2020-08-12 20:27:40.0790,0.01,0.0,0.0
2020-08-12 20:27:40.1780,-0.01,0.0,0.01
2020-08-12 20:27:40.2770,-0.02,-0.01,0.01
2020-08-12 20:27:40.3760,-0.0,-0.02,-0.03
2020-08-12 20:27:40.4760,0.01,-0.02,-0.0
2020-08-12 20:27:40.5750,-0.11,-0.23,-0.01
2020-08-12 20:27:40.6740,-0.33,-0.21,-0.09
2020-08-12 20:27:40.7730,-0.13,-0.37,0.42
2020-08-12 20:27:40.8730,-1.11,0.24,0.18
2020-08-12 20:27:40.9720,-0.35,-0.11,-0.03
2020-08-12 20:27:41.0700,0.06,-0.31,0.03
2020-08-12 20:27:41.1700,0.56,-0.31,0.05
2020-08-12 20:27:41.2690,0.89,-0.1,0.1
2020-08-12 20:27:41.3690,0.75,0.03,0.12
2020-08-12 20:27:41.4680,-0.6,-0.39,0.27
2020-08-12 20:27:41.5670,0.04,0.08,0.36
2020-08-12 20:27:41.6670,-0.12,-0.05,0.04
2020-08-12 20:27:41.7660,-0.08,0.01,0.03
2020-08-12 20:27:41.8650,0.02,-0.02,-0.01
2020-08-12 20:27:41.9640,0.0,0.03,0.03
2020-08-12 20:27:42.0630,-0.01,0.01,-0.0
2020-08-12 20:27:42.1630,0.02,-0.0,-0.04
2020-08-12 20:27:42.2620,-0.03,-0.01,0.01
2020-08-12 20:27:42.3610,-0.0,0.01,0.01
2020-08-12 20:27:42.4610,0.05,-0.01,-0.02
2020-08-12 20:27:42.5600,-0.0,-0.03,-0.02
2020-08-12 20:27:42.6590,-0.16,-0.23,0.08
2020-08-12 20:27:42.7580,-0.22,-0.2,-0.18
2020-08-12 20:27:42.8580,-0.1,-0.32,0.29
2020-08-12 20:27:42.9570,-1.13,0.24,0.04
2020-08-12 20:27:43.0560,-0.52,-0.1,-0.0
2020-08-12 20:27:43.1550,0.02,-0.36,0.05
2020-08-12 20:27:43.2550,0.71,-0.35,0.05
2020-08-12 20:27:43.3540,0.91,-0.04,0.08
2020-08-12 20:27:43.4530,-0.1,-0.42,-0.44
2020-08-12 20:27:43.5520,0.27,-0.07,-0.03
2020-08-12 20:27:43.6520,0.22,-0.09,-0.05
2020-08-12 20:27:43.7510,0.13,0.01,0.04
2020-08-12 20:27:43.8500,0.05,0.01,0.02
2020-08-12 20:27:43.9490,0.09,-0.01,-0.08
2020-08-12 20:27:44.0490,0.02,0.02,0.01
2020-08-12 20:27:44.1480,-0.03,0.03,-0.01
2020-08-12 20:27:44.2470,-0.05,0.02,0.02
2020-08-12 20:27:44.3460,-0.04,-0.01,0.0
2020-08-12 20:27:44.4450,-0.02,-0.01,0.01
2020-08-12 20:27:44.5450,0.01,-0.02,-0.04
2020-08-12 20:27:44.6440,-0.11,-0.23,0.01
2020-08-12 20:27:44.7430,-0.2,-0.08,-0.04
2020-08-12 20:27:44.8430,-0.45,-0.27,0.14
2020-08-12 20:27:44.9420,-0.47,-0.07,0.09
2020-08-12 20:27:45.0410,-0.7,0.08,0.0
2020-08-12 20:27:45.1410,-0.13,-0.35,0.01
2020-08-12 20:27:45.2400,0.15,-0.34,0.06
2020-08-12 20:27:45.3380,0.87,-0.24,0.08
2020-08-12 20:27:45.4380,0.98,0.02,0.16
2020-08-12 20:27:45.5370,-0.83,-0.19,0.06
2020-08-12 20:27:45.6370,0.03,-0.01,0.2
2020-08-12 20:27:45.7360,-0.05,-0.01,-0.02
2020-08-12 20:27:45.8350,-0.02,-0.01,0.01
2020-08-12 20:27:45.9330,-0.01,0.01,-0.0
2020-08-12 20:27:46.0340,0.05,-0.02,-0.04
2020-08-12 20:27:46.1330,-0.0,-0.02,0.01
2020-08-12 20:27:46.2320,-0.03,0.0,0.0
2020-08-12 20:27:46.3310,-0.02,-0.01,0.0
2020-08-12 20:27:46.4310,-0.0,-0.02,0.0
2020-08-12 20:27:46.5300,-0.05,-0.05,-0.03
2020-08-12 20:27:46.6290,-0.07,-0.19,0.07
2020-08-12 20:27:46.7280,-0.37,-0.34,-0.12
2020-08-12 20:27:46.8280,0.07,-0.47,0.18
2020-08-12 20:27:46.9270,-0.91,0.18,0.12
2020-08-12 20:27:47.0260,-0.31,-0.12,-0.04
2020-08-12 20:27:47.1250,0.05,-0.26,-0.0
2020-08-12 20:27:47.2240,0.47,-0.31,0.03
2020-08-12 20:27:47.3240,0.73,-0.11,0.04
2020-08-12 20:27:47.4230,0.93,0.02,0.16
2020-08-12 20:27:47.5220,-0.34,-0.39,-0.04
2020-08-12 20:27:47.6220,0.09,0.13,0.14
2020-08-12 20:27:47.7210,0.06,-0.08,-0.03
2020-08-12 20:27:47.8200,-0.02,0.03,0.04
2020-08-12 20:27:47.9190,-0.01,0.03,0.01
2020-08-12 20:27:48.0190,0.15,-0.11,-0.15
2020-08-12 20:27:48.1180,0.02,-0.01,-0.04
2020-08-12 20:27:48.2170,-0.0,0.01,-0.01
2020-08-12 20:27:48.3160,-0.0,-0.0,-0.03
2020-08-12 20:27:48.4150,0.01,-0.02,-0.01
2020-08-12 20:27:48.5150,-0.02,-0.02,-0.0
2020-08-12 20:27:48.6140,-0.07,-0.1,-0.01
2020-08-12 20:27:48.7130,-0.22,-0.18,-0.15
2020-08-12 20:27:48.8130,-0.11,-0.21,0.4
2020-08-12 20:27:48.9120,-1.01,0.17,0.05
2020-08-12 20:27:49.0110,-0.51,-0.01,-0.0
2020-08-12 20:27:49.1100,-0.06,-0.27,0.13
2020-08-12 20:27:49.2100,0.23,-0.33,0.1
2020-08-12 20:27:49.3090,0.61,-0.18,0.08
2020-08-12 20:27:49.4080,0.84,-0.0,0.03
2020-08-12 20:27:49.5070,0.59,-0.2,-0.01
2020-08-12 20:27:49.6070,0.56,-0.35,0.04
2020-08-12 20:27:49.7060,-0.1,0.09,0.04
2020-08-12 20:27:49.8050,0.06,-0.03,-0.02
2020-08-12 20:27:49.9040,0.02,-0.01,-0.01
2020-08-12 20:27:50.0040,-0.05,0.05,0.01
2020-08-12 20:27:50.1030,-0.01,-0.0,0.03
2020-08-12 20:27:50.2020,-0.01,0.02,0.01
2020-08-12 20:27:50.3010,-0.01,0.0,0.0
2020-08-12 20:27:50.4010,-0.04,0.01,0.02
2020-08-12 20:27:50.5000,0.01,-0.03,-0.02
2020-08-12 20:27:50.5990,-0.02,-0.03,-0.02
2020-08-12 20:27:50.6980,-0.15,-0.24,-0.02
2020-08-12 20:27:50.7980,-0.44,-0.35,-0.05
2020-08-12 20:27:50.8970,-0.39,-0.12,0.19
2020-08-12 20:27:50.9960,-0.78,0.04,0.09
2020-08-12 20:27:51.0950,0.01,-0.32,0.11
2020-08-12 20:27:51.1950,0.2,-0.26,0.11
2020-08-12 20:27:51.2930,0.47,-0.14,0.09
2020-08-12 20:27:51.3930,0.73,-0.02,0.1
2020-08-12 20:27:51.4920,0.55,-0.16,-0.04
2020-08-12 20:27:51.5920,0.58,-0.37,-0.09
2020-08-12 20:27:51.6910,0.33,-0.03,-0.18
2020-08-12 20:27:51.7900,0.08,0.04,0.05
2020-08-12 20:27:51.8890,0.06,-0.05,-0.06
2020-08-12 20:27:51.9890,0.07,-0.02,-0.06
2020-08-12 20:27:52.0880,0.02,-0.01,-0.01
2020-08-12 20:27:52.1880,-0.03,-0.01,0.0
2020-08-12 20:27:52.2860,0.03,-0.01,-0.07
2020-08-12 20:27:52.3860,-0.01,0.0,-0.02
2020-08-12 20:27:52.4850,-0.03,-0.03,-0.02
2020-08-12 20:27:52.5840,-0.07,-0.14,-0.0
2020-08-12 20:27:52.6830,-0.2,-0.26,-0.19
2020-08-12 20:27:52.7830,-0.17,-0.22,0.23
2020-08-12 20:27:52.8820,-1.26,0.12,0.09
2020-08-12 20:27:52.9810,-0.52,-0.01,0.01
2020-08-12 20:27:53.0800,0.01,-0.35,0.02
2020-08-12 20:27:53.1800,0.38,-0.39,0.05
2020-08-12 20:27:53.2790,0.85,-0.03,0.06
2020-08-12 20:27:53.3780,0.97,0.02,0.13
2020-08-12 20:27:53.4770,0.27,-0.39,-0.21
2020-08-12 20:27:53.5770,0.14,-0.1,0.29
2020-08-12 20:27:53.6760,0.01,-0.02,0.08
2020-08-12 20:27:53.7750,0.05,-0.03,-0.04
2020-08-12 20:27:53.8740,-0.09,0.06,0.08
2020-08-12 20:27:53.9740,0.02,-0.01,-0.0
2020-08-12 20:27:54.0730,-0.04,0.0,0.05
2020-08-12 20:27:54.1720,0.01,-0.01,-0.04
2020-08-12 20:27:54.2710,-0.03,0.03,-0.0
2020-08-12 20:27:54.3700,-0.02,0.01,0.01
2020-08-12 20:27:54.4700,0.05,0.03,-0.03
2020-08-12 20:27:54.5690,-0.03,-0.04,-0.01
2020-08-12 20:27:54.6670,-0.16,-0.35,-0.13
2020-08-12 20:27:54.7680,-0.19,-0.09,0.32
2020-08-12 20:27:54.8670,-0.81,0.14,0.09
2020-08-12 20:27:54.9660,-0.51,0.02,0.12
2020-08-12 20:27:55.0660,-0.08,-0.31,0.09
2020-08-12 20:27:55.1650,0.23,-0.19,0.2
2020-08-12 20:27:55.2650,0.57,-0.13,0.11
2020-08-12 20:27:55.3630,0.76,0.05,0.06
2020-08-12 20:27:55.4630,0.2,-0.38,-0.34
2020-08-12 20:27:55.5620,0.61,-0.44,0.05
2020-08-12 20:27:55.6610,-0.03,0.1,-0.09
2020-08-12 20:27:55.7600,0.05,0.02,0.07
2020-08-12 20:27:55.8600,0.02,-0.01,-0.01
2020-08-12 20:27:55.9590,0.01,-0.01,-0.01
2020-08-12 20:27:56.0580,0.0,-0.0,-0.01
2020-08-12 20:27:56.1570,-0.03,-0.01,0.01
2020-08-12 20:27:56.2560,0.01,-0.0,0.03
2020-08-12 20:27:56.3560,-0.03,-0.0,0.0
2020-08-12 20:27:56.4550,-0.03,0.01,-0.0
2020-08-12 20:27:56.5540,-0.02,-0.03,-0.03
2020-08-12 20:27:56.6540,-0.17,-0.25,0.17
2020-08-12 20:27:56.7530,-0.33,-0.11,-0.09
2020-08-12 20:27:56.8520,-0.2,-0.13,0.3
2020-08-12 20:27:56.9510,-0.79,0.09,-0.0
2020-08-12 20:27:57.0500,-0.13,-0.26,-0.05
2020-08-12 20:27:57.1500,0.06,-0.26,0.01
2020-08-12 20:27:57.2490,0.48,-0.23,0.02
2020-08-12 20:27:57.3470,0.6,-0.02,0.06
2020-08-12 20:27:57.4480,0.7,0.06,0.11
2020-08-12 20:27:57.5470,0.01,-0.46,-0.01
2020-08-12 20:27:57.6450,0.12,-0.17,0.34
2020-08-12 20:27:57.7450,0.03,-0.03,-0.01
2020-08-12 20:27:57.8440,0.03,0.0,0.01
2020-08-12 20:27:57.9440,0.01,-0.02,-0.01
2020-08-12 20:27:58.0430,-0.02,0.0,-0.0
2020-08-12 20:27:58.1420,0.01,-0.01,-0.01
2020-08-12 20:27:58.2410,0.05,-0.02,-0.01
2020-08-12 20:27:58.3410,-0.05,0.0,0.03
2020-08-12 20:27:58.4400,0.04,0.03,-0.02
2020-08-12 20:27:58.5390,0.08,0.04,-0.0
2020-08-12 20:27:58.6380,-0.04,0.08,0.03
2020-08-12 20:27:58.7380,-0.15,0.05,0.03
2020-08-12 20:27:58.8370,-0.03,0.11,0.02
2020-08-12 20:27:58.9360,-0.03,-0.01,0.02
2020-08-12 20:27:59.0360,-0.04,-0.06,0.02
2020-08-12 20:27:59.1350,-0.06,0.0,-0.03
2020-08-12 20:27:59.2340,0.01,0.01,0.0
2020-08-12 20:27:59.3330,0.01,-0.01,0.02
2020-08-12 20:27:59.4320,0.01,0.02,-0.03
2020-08-12 20:27:59.5310,-0.05,-0.03,-0.05
2020-08-12 20:27:59.6310,0.02,-0.05,0.01
2020-08-12 20:27:59.7300,-0.02,0.02,0.0
2020-08-12 20:27:59.8290,-0.0,0.01,0.01
2020-08-12 20:27:59.9290,0.01,-0.0,-0.01
2020-08-12 20:28:00.0280,-0.01,0.0,-0.0
2020-08-12 20:28:00.1270,0.01,-0.02,0.01
2020-08-12 20:28:00.2260,0.01,0.01,-0.05
