time,ax,ay,az
2020-08-12 19:50:58.2900,0.03,0.01,-0.03
2020-08-12 19:50:58.3890,-0.0,0.01,-0.01
2020-08-12 19:50:58.4880,-0.01,0.0,0.02
2020-08-12 19:50:58.5870,0.01,-0.01,0.03
2020-08-12 19:50:58.6870,0.04,0.01,-0.02
2020-08-12 19:50:58.7860,-0.04,0.03,-0.01
2020-08-12 19:50:58.8850,0.02,-0.0,-0.05
2020-08-12 19:50:58.9850,0.07,-0.03,0.01
2020-08-12 19:50:59.0840,-0.05,-0.03,0.09
2020-08-12 19:50:59.1830,-0.06,0.04,0.02
2020-08-12 19:50:59.2820,-0.0,0.04,0.02
2020-08-12 19:50:59.3810,-0.05,0.03,0.03
2020-08-12 19:50:59.4810,-0.04,0.03,0.02
2020-08-12 19:50:59.5800,0.01,-0.02,0.01
2020-08-12 19:50:59.6790,-0.01,-0.0,0.03
2020-08-12 19:50:59.7790,-0.02,0.04,0.01
2020-08-12 19:50:59.8780,0.01,0.05,-0.01
2020-08-12 19:50:59.9770,-0.01,-0.0,-0.06
2020-08-12 19:51:00.0760,-0.01,0.02,0.08
2020-08-12 19:51:00.1750,-0.1,-0.07,-0.03
2020-08-12 19:51:00.2750,-0.04,-0.0,0.09
2020-08-12 19:51:00.3740,-0.21,-0.26,0.12
2020-08-12 19:51:00.4730,0.0,-0.27,0.34
2020-08-12 19:51:00.5720,-0.85,0.34,0.07
2020-08-12 19:51:00.6720,-0.19,-0.15,-0.19
2020-08-12 19:51:00.7710,0.16,-0.27,-0.15
2020-08-12 19:51:00.8710,0.41,-0.02,-0.1
2020-08-12 19:51:00.9700,0.51,0.09,-0.04
2020-08-12 19:51:01.0690,0.7,0.05,0.16
2020-08-12 19:51:01.1680,0.69,-0.96,0.08
2020-08-12 19:51:01.2680,0.18,-0.17,0.23
2020-08-12 19:51:01.3670,-0.06,0.01,0.02
2020-08-12 19:51:01.4660,0.0,-0.01,0.02
2020-08-12 19:51:01.5650,0.0,0.02,0.04
2020-08-12 19:51:01.6640,0.03,-0.03,-0.02
2020-08-12 19:51:01.7640,0.0,0.01,0.02
2020-08-12 19:51:01.8630,0.07,0.03,0.01
2020-08-12 19:51:01.9620,-0.1,-0.02,0.07
2020-08-12 19:51:02.0610,-0.06,-0.01,0.06
2020-08-12 19:51:02.1610,-0.22,-0.7,0.08
2020-08-12 19:51:02.2600,-0.62,-0.09,0.13
2020-08-12 19:51:02.3590,-0.8,0.14,-0.03
2020-08-12 19:51:02.4580,0.06,-0.33,-0.04
2020-08-12 19:51:02.5580,0.37,-0.19,-0.02
2020-08-12 19:51:02.6570,0.39,0.05,-0.02
2020-08-12 19:51:02.7560,0.16,0.17,-0.0
2020-08-12 19:51:02.8550,0.66,0.18,0.06
2020-08-12 19:51:02.9540,1.04,-0.32,-0.43
2020-08-12 19:51:03.0540,0.23,-0.03,0.04
2020-08-12 19:51:03.1530,-0.03,0.02,0.02
2020-08-12 19:51:03.2520,0.0,0.01,0.05
2020-08-12 19:51:03.3520,0.04,-0.01,0.02
2020-08-12 19:51:03.4510,0.02,-0.0,-0.01
2020-08-12 19:51:03.5500,-0.04,0.02,0.08
2020-08-12 19:51:03.6500,0.01,0.01,0.04
2020-08-12 19:51:03.7490,-0.05,0.0,0.05
2020-08-12 19:51:03.8480,-0.36,-0.12,0.07
2020-08-12 19:51:03.9470,-0.1,-0.43,0.08
2020-08-12 19:51:04.0470,-0.93,0.12,0.03
2020-08-12 19:51:04.1460,-0.69,-0.08,-0.13
2020-08-12 19:51:04.2450,-0.04,-0.29,-0.08
2020-08-12 19:51:04.3440,0.08,-0.06,0.01
2020-08-12 19:51:04.4430,0.52,0.07,0.19
2020-08-12 19:51:04.5430,1.1,0.05,0.17
2020-08-12 19:51:04.6420,0.79,-0.15,0.29
2020-08-12 19:51:04.7410,0.26,-0.04,-0.26
2020-08-12 19:51:04.8400,0.01,-0.0,0.02
2020-08-12 19:51:04.9400,0.03,0.0,0.1
2020-08-12 19:51:05.0390,-0.01,0.02,0.0
2020-08-12 19:51:05.1380,0.1,-0.03,-0.08
2020-08-12 19:51:05.2370,-0.09,0.02,0.09
2020-08-12 19:51:05.3370,-0.05,0.01,0.02
2020-08-12 19:51:05.4360,-0.02,0.0,0.02
2020-08-12 19:51:05.5350,-0.05,-0.04,0.06
2020-08-12 19:51:05.6350,-0.36,-0.37,0.16
2020-08-12 19:51:05.7340,-0.69,-0.24,0.46
2020-08-12 19:51:05.8330,-1.03,0.18,-0.02
2020-08-12 19:51:05.9320,-0.11,-0.29,-0.04
2020-08-12 19:51:06.0320,0.36,-0.27,-0.08
2020-08-12 19:51:06.1310,0.56,-0.07,-0.02
2020-08-12 19:51:06.2300,1.08,0.17,0.06
2020-08-12 19:51:06.3290,0.51,-1.15,1.37
2020-08-12 19:51:06.4290,0.14,-0.18,0.09
2020-08-12 19:51:06.5280,-0.08,0.02,0.02
2020-08-12 19:51:06.6270,-0.0,0.0,0.01
2020-08-12 19:51:06.7260,0.05,0.02,0.08
2020-08-12 19:51:06.8260,0.1,0.01,-0.02
2020-08-12 19:51:06.9250,0.07,0.0,-0.01
2020-08-12 19:51:07.0240,0.05,0.03,0.04
2020-08-12 19:51:07.1230,-0.0,0.02,0.02
2020-08-12 19:51:07.2230,-0.02,0.07,0.09
2020-08-12 19:51:07.3220,-0.5,-0.32,0.16
2020-08-12 19:51:07.4210,-0.6,-0.26,0.37
2020-08-12 19:51:07.5200,-1.08,0.07,0.01
2020-08-12 19:51:07.6200,-0.05,-0.35,0.02
2020-08-12 19:51:07.7190,0.38,-0.03,0.01
2020-08-12 19:51:07.8180,0.63,0.0,0.07
2020-08-12 19:51:07.9170,1.07,0.19,0.12
2020-08-12 19:51:08.0170,0.27,-1.26,1.15
2020-08-12 19:51:08.1160,0.08,-0.21,0.18
2020-08-12 19:51:08.2150,-0.0,0.05,0.01
2020-08-12 19:51:08.3150,0.05,-0.01,-0.03
2020-08-12 19:51:08.4140,0.01,-0.0,0.03
2020-08-12 19:51:08.5130,0.01,-0.0,-0.01
2020-08-12 19:51:08.6120,0.02,0.01,0.03
2020-08-12 19:51:08.7120,0.02,0.0,0.02
2020-08-12 19:51:08.8110,0.02,0.02,0.01
2020-08-12 19:51:08.9100,0.04,0.01,0.03
2020-08-12 19:51:09.0100,-0.18,0.02,0.04
2020-08-12 19:51:09.1090,-0.39,-0.64,0.2
2020-08-12 19:51:09.2080,-1.01,0.2,0.03
2020-08-12 19:51:09.3070,-0.33,-0.19,-0.18
2020-08-12 19:51:09.4060,0.21,-0.21,-0.05
2020-08-12 19:51:09.5050,0.39,0.0,0.15
2020-08-12 19:51:09.6050,0.86,0.06,0.19
2020-08-12 19:51:09.7040,0.24,-0.93,0.54
2020-08-12 19:51:09.8030,0.41,-0.07,0.12
2020-08-12 19:51:09.9030,-0.06,0.03,-0.08
2020-08-12 19:51:10.0020,-0.03,0.02,0.05
2020-08-12 19:51:10.1010,-0.08,0.02,0.05
2020-08-12 19:51:10.2000,-0.1,0.03,0.08
2020-08-12 19:51:10.2990,0.05,0.01,0.01
2020-08-12 19:51:10.3990,0.01,0.03,0.01
2020-08-12 19:51:10.4980,0.01,0.0,0.01
2020-08-12 19:51:10.5970,0.03,0.0,0.01
2020-08-12 19:51:10.6960,-0.15,-0.07,0.03
2020-08-12 19:51:10.7960,-0.56,-0.65,0.07
2020-08-12 19:51:10.8950,-1.15,0.18,-0.07
2020-08-12 19:51:10.9940,-0.7,-0.07,-0.03
2020-08-12 19:51:11.0930,0.14,-0.38,0.11
2020-08-12 19:51:11.1930,0.73,-0.1,0.15
2020-08-12 19:51:11.2920,1.5,0.15,0.13
2020-08-12 19:51:11.3910,0.75,-0.08,-0.42
2020-08-12 19:51:11.4910,0.11,-0.19,0.04
2020-08-12 19:51:11.5900,-0.19,0.03,0.04
2020-08-12 19:51:11.6890,-0.01,-0.01,0.02
2020-08-12 19:51:11.7880,0.06,0.03,0.01
2020-08-12 19:51:11.8880,0.04,-0.01,0.02
2020-08-12 19:51:11.9870,-0.06,-0.02,0.05
2020-08-12 19:51:12.0860,0.0,-0.01,0.04
2020-08-12 19:51:12.1850,0.03,0.01,-0.0
2020-08-12 19:51:12.2850,0.02,0.02,0.02
2020-08-12 19:51:12.3840,0.01,0.0,0.03
2020-08-12 19:51:12.4830,-0.03,0.01,-0.01
2020-08-12 19:51:12.5820,-0.41,-0.62,0.02
2020-08-12 19:51:12.6820,-1.21,0.12,0.0
2020-08-12 19:51:12.7810,-0.69,-0.12,-0.04
2020-08-12 19:51:12.8800,0.22,-0.32,-0.0
2020-08-12 19:51:12.9790,0.63,-0.06,0.08
2020-08-12 19:51:13.0790,0.86,0.03,0.16
2020-08-12 19:51:13.1780,-1.45,-0.97,0.15
2020-08-12 19:51:13.2770,0.02,-0.05,0.1
2020-08-12 19:51:13.3760,0.04,0.05,-0.06
2020-08-12 19:51:13.4760,0.01,0.04,0.04
2020-08-12 19:51:13.5750,0.04,-0.05,0.0
2020-08-12 19:51:13.6740,-0.04,-0.01,0.04
2020-08-12 19:51:13.7730,-0.05,0.02,0.04
2020-08-12 19:51:13.8730,-0.07,-0.0,0.05
2020-08-12 19:51:13.9720,-0.03,-0.02,0.01
2020-08-12 19:51:14.0710,-0.08,0.01,0.05
2020-08-12 19:51:14.1700,-0.04,-0.04,0.07
2020-08-12 19:51:14.2700,-0.46,-0.33,0.06
2020-08-12 19:51:14.3690,-0.41,-0.19,0.44
2020-08-12 19:51:14.4680,-1.03,0.19,0.03
2020-08-12 19:51:14.5670,-0.25,-0.37,-0.12
2020-08-12 19:51:14.6670,0.36,-0.22,0.01
2020-08-12 19:51:14.7660,0.81,-0.08,0.1
2020-08-12 19:51:14.8650,1.14,-0.05,-0.09
2020-08-12 19:51:14.9650,1.4,-0.1,-0.38
2020-08-12 19:51:15.0640,0.05,0.01,0.04
2020-08-12 19:51:15.1630,-0.03,0.02,0.07
2020-08-12 19:51:15.2620,0.04,0.01,0.0
2020-08-12 19:51:15.3610,-0.14,-0.03,0.09
2020-08-12 19:51:15.4610,-0.03,0.03,0.04
2020-08-12 19:51:15.5600,-0.04,0.01,-0.01
2020-08-12 19:51:15.6590,0.01,-0.01,-0.01
2020-08-12 19:51:15.7590,0.01,-0.0,0.03
2020-08-12 19:51:15.8580,-0.01,0.01,0.04
2020-08-12 19:51:15.9570,-0.04,-0.01,0.03
2020-08-12 19:51:16.0560,-0.35,-0.23,0.05
2020-08-12 19:51:16.1560,-0.55,-0.32,0.43
2020-08-12 19:51:16.2550,-1.0,0.25,-0.0
2020-08-12 19:51:16.3540,-0.21,-0.25,-0.07
2020-08-12 19:51:16.4530,0.3,-0.19,0.03
2020-08-12 19:51:16.5520,0.73,0.0,0.15
2020-08-12 19:51:16.6520,0.94,0.12,0.09
2020-08-12 19:51:16.7510,0.79,0.04,-0.32
2020-08-12 19:51:16.8500,-0.05,-0.02,0.06
2020-08-12 19:51:16.9500,0.01,0.03,0.06
2020-08-12 19:51:17.0490,0.01,0.0,0.0
2020-08-12 19:51:17.1480,-0.05,0.02,-0.01
2020-08-12 19:51:17.2470,0.05,0.01,0.03
2020-08-12 19:51:17.3470,-0.11,0.02,0.04
2020-08-12 19:51:17.4460,-0.07,0.01,0.0
2020-08-12 19:51:17.5450,-0.01,0.01,0.0
2020-08-12 19:51:17.6440,-0.05,-0.01,0.06
2020-08-12 19:51:17.7430,-0.06,0.02,0.01
2020-08-12 19:51:17.8430,-0.04,0.03,-0.03
2020-08-12 19:51:17.9420,-0.02,-0.57,-0.22
2020-08-12 19:51:18.0410,-0.23,0.01,0.28
2020-08-12 19:51:18.1400,-0.79,0.04,0.07
2020-08-12 19:51:18.2400,-0.03,-0.28,-0.05
2020-08-12 19:51:18.3390,0.41,-0.24,-0.02
2020-08-12 19:51:18.4380,0.64,0.04,0.1
2020-08-12 19:51:18.5380,0.97,0.24,-0.02
2020-08-12 19:51:18.6370,1.26,0.19,-0.53
2020-08-12 19:51:18.7360,0.14,-0.03,-0.15
2020-08-12 19:51:18.8350,-0.09,0.03,0.12
2020-08-12 19:51:18.9350,-0.07,0.01,0.01
2020-08-12 19:51:19.0340,0.01,-0.0,0.02
2020-08-12 19:51:19.1330,0.03,-0.01,-0.04
2020-08-12 19:51:19.2320,0.04,0.01,0.05
2020-08-12 19:51:19.3320,-0.11,-0.01,0.06
2020-08-12 19:51:19.4310,-0.14,0.03,0.05
2020-08-12 19:51:19.5300,0.01,-0.0,0.02
2020-08-12 19:51:19.6300,-0.35,-0.13,0.05
2020-08-12 19:51:19.7290,-0.43,-0.39,0.35
2020-08-12 19:51:19.8280,-0.99,0.29,-0.02
2020-08-12 19:51:19.9270,-0.14,-0.2,-0.02
2020-08-12 19:51:20.0260,0.38,-0.25,0.07
2020-08-12 19:51:20.1260,0.92,-0.0,0.24
2020-08-12 19:51:20.2250,0.05,-0.03,0.23
2020-08-12 19:51:20.3240,0.21,0.04,0.03
2020-08-12 19:51:20.4240,0.0,-0.04,0.02
2020-08-12 19:51:20.5230,-0.07,0.03,0.04
2020-08-12 19:51:20.6220,-0.02,0.01,0.0
2020-08-12 19:51:20.7210,-0.02,0.02,0.03
2020-08-12 19:51:20.8200,-0.02,0.0,0.01
2020-08-12 19:51:20.9200,0.03,0.01,0.04
2020-08-12 19:51:21.0190,0.02,0.01,0.02
2020-08-12 19:51:21.1180,-0.03,-0.01,0.03
2020-08-12 19:51:21.2180,-0.05,-0.01,0.04
2020-08-12 19:51:21.3170,-0.2,0.01,0.05
2020-08-12 19:51:21.4160,-0.56,-0.78,0.09
2020-08-12 19:51:21.5150,-0.84,0.11,-0.01
2020-08-12 19:51:21.6150,-0.73,0.16,-0.07
2020-08-12 19:51:21.7140,0.07,-0.32,-0.01
2020-08-12 19:51:21.8130,0.5,-0.16,0.14
2020-08-12 19:51:21.9120,1.25,0.03,0.12
2020-08-12 19:51:22.0120,0.01,-0.24,-0.51
2020-08-12 19:51:22.1110,0.1,-0.02,0.13
2020-08-12 19:51:22.2100,0.03,0.02,-0.01
2020-08-12 19:51:22.3090,-0.02,0.01,-0.02
2020-08-12 19:51:22.4090,-0.01,0.01,0.04
2020-08-12 19:51:22.5080,0.01,0.01,0.04
2020-08-12 19:51:22.6070,-0.04,0.01,-0.0
2020-08-12 19:51:22.7060,0.0,-0.0,0.0
2020-08-12 19:51:22.8060,0.0,0.0,0.01
2020-08-12 19:51:22.9050,-0.03,0.01,0.03
2020-08-12 19:51:23.0040,-0.01,-0.0,0.01
2020-08-12 19:51:23.1030,-0.09,-0.06,0.02
2020-08-12 19:51:23.2030,-0.51,-1.0,0.07
2020-08-12 19:51:23.3020,-0.91,0.09,-0.23
2020-08-12 19:51:23.4010,-0.76,0.14,-0.1
2020-08-12 19:51:23.5000,0.41,-0.45,-0.0
2020-08-12 19:51:23.6000,1.04,-0.19,0.24
2020-08-12 19:51:23.6990,1.21,-0.02,0.08
2020-08-12 19:51:23.7980,1.2,-0.4,-0.27
2020-08-12 19:51:23.8970,-0.01,0.01,-0.04
2020-08-12 19:51:23.9970,-0.16,0.04,0.08
2020-08-12 19:51:24.0960,0.03,-0.02,-0.03
2020-08-12 19:51:24.1950,0.03,-0.0,-0.01
2020-08-12 19:51:24.2940,0.08,-0.0,0.0
2020-08-12 19:51:24.3940,-0.05,0.02,0.06
2020-08-12 19:51:24.4930,-0.01,-0.01,-0.0
2020-08-12 19:51:24.5920,0.02,-0.02,0.02
2020-08-12 19:51:24.6920,-0.02,-0.01,0.04
2020-08-12 19:51:24.7910,-0.09,-0.04,0.0
2020-08-12 19:51:24.8900,-0.52,-0.76,0.22
2020-08-12 19:51:24.9890,-1.1,0.38,-0.09
2020-08-12 19:51:25.0890,-0.49,-0.15,-0.14
2020-08-12 19:51:25.1880,0.45,-0.34,0.04
2020-08-12 19:51:25.2880,1.15,-0.04,0.16
2020-08-12 19:51:25.3860,0.6,-0.34,0.71
2020-08-12 19:51:25.4860,0.32,0.03,-0.06
2020-08-12 19:51:25.5850,-0.15,-0.05,0.09
2020-08-12 19:51:25.6840,-0.03,0.04,0.03
2020-08-12 19:51:25.7830,0.02,0.01,0.0
2020-08-12 19:51:25.8830,0.07,-0.05,-0.06
2020-08-12 19:51:25.9820,-0.11,0.02,0.03
2020-08-12 19:51:26.0810,0.02,-0.0,-0.01
2020-08-12 19:51:26.1800,-0.03,0.0,0.03
2020-08-12 19:51:26.2790,-0.03,0.02,-0.01
2020-08-12 19:51:26.3790,-0.02,-0.0,0.0
2020-08-12 19:51:26.4780,-0.06,0.04,0.03
2020-08-12 19:51:26.5770,-0.22,-0.73,0.11
2020-08-12 19:51:26.6770,-0.68,0.09,0.28
2020-08-12 19:51:26.7760,-0.78,0.16,-0.06
2020-08-12 19:51:26.8750,0.15,-0.4,-0.02
2020-08-12 19:51:26.9740,0.8,-0.18,0.12
2020-08-12 19:51:27.0740,1.09,0.03,-0.03
2020-08-12 19:51:27.1730,0.48,-0.16,-0.72
2020-08-12 19:51:27.2720,0.33,0.01,0.09
2020-08-12 19:51:27.3710,-0.03,0.03,0.02
2020-08-12 19:51:27.4710,0.1,-0.0,-0.09
2020-08-12 19:51:27.5700,0.07,0.0,0.01
2020-08-12 19:51:27.6690,-0.02,0.02,0.05
2020-08-12 19:51:27.7680,-0.03,0.01,0.02
2020-08-12 19:51:27.8680,0.01,0.01,-0.0
2020-08-12 19:51:27.9670,-0.04,-0.01,-0.0
2020-08-12 19:51:28.0660,0.01,-0.03,0.01
2020-08-12 19:51:28.1650,-0.04,-0.0,0.02
2020-08-12 19:51:28.2650,-0.23,-0.03,0.04
2020-08-12 19:51:28.3640,-0.29,-0.69,0.11
2020-08-12 19:51:28.4630,-1.1,0.42,0.02
2020-08-12 19:51:28.5620,-0.43,-0.16,-0.16
2020-08-12 19:51:28.6620,0.43,-0.29,-0.02
2020-08-12 19:51:28.7610,0.78,-0.08,0.1
2020-08-12 19:51:28.8600,1.13,0.01,0.05
2020-08-12 19:51:28.9590,0.74,-0.16,-0.43
2020-08-12 19:51:29.0590,0.27,-0.0,-0.03
2020-08-12 19:51:29.1580,0.03,-0.01,0.01
2020-08-12 19:51:29.2570,0.05,-0.03,-0.03
2020-08-12 19:51:29.3570,0.07,0.0,0.02
2020-08-12 19:51:29.4560,0.02,0.0,0.03
2020-08-12 19:51:29.5550,0.04,0.01,-0.0
2020-08-12 19:51:29.6540,-0.04,0.02,-0.0
2020-08-12 19:51:29.7530,-0.04,-0.0,0.01
2020-08-12 19:51:29.8530,-0.03,0.01,0.01
2020-08-12 19:51:29.9520,-0.05,-0.0,0.0
2020-08-12 19:51:30.0510,-0.28,-0.1,0.01
2020-08-12 19:51:30.1510,-0.56,-0.55,0.27
2020-08-12 19:51:30.2500,-0.98,0.32,0.11
2020-08-12 19:51:30.3490,-0.36,-0.32,-0.05
2020-08-12 19:51:30.4480,0.59,-0.35,0.01
2020-08-12 19:51:30.5480,0.87,0.03,0.06
2020-08-12 19:51:30.6470,0.85,-0.39,0.17
2020-08-12 19:51:30.7460,0.55,-0.02,-0.18
2020-08-12 19:51:30.8450,-0.18,-0.03,0.04
2020-08-12 19:51:30.9450,-0.09,-0.0,0.04
2020-08-12 19:51:31.0440,0.02,0.01,-0.02
2020-08-12 19:51:31.1430,0.05,0.02,0.02
2020-08-12 19:51:31.2420,0.04,0.01,0.0
2020-08-12 19:51:31.3410,0.04,0.01,-0.02
2020-08-12 19:51:31.4410,-0.01,0.0,0.04
2020-08-12 19:51:31.5400,0.01,0.01,-0.01
2020-08-12 19:51:31.6390,-0.11,-0.03,0.07
2020-08-12 19:51:31.7390,-0.62,-1.04,0.27
2020-08-12 19:51:31.8380,-1.58,0.34,0.11
2020-08-12 19:51:31.9370,-0.58,-0.02,-0.11
2020-08-12 19:51:32.0360,0.36,-0.4,-0.01
2020-08-12 19:51:32.1360,1.17,-0.14,0.22
2020-08-12 19:51:32.2350,0.95,0.06,-0.02
2020-08-12 19:51:32.3340,0.98,-0.09,-0.39
2020-08-12 19:51:32.4330,0.18,-0.01,-0.03
2020-08-12 19:51:32.5330,-0.06,-0.0,0.02
2020-08-12 19:51:32.6320,-0.02,0.01,-0.02
2020-08-12 19:51:32.7310,-0.05,0.02,-0.01
2020-08-12 19:51:32.8300,-0.02,-0.01,0.0
2020-08-12 19:51:32.9300,-0.06,0.01,0.01
2020-08-12 19:51:33.0290,-0.01,-0.01,0.01
2020-08-12 19:51:33.1280,-0.04,0.0,-0.01
2020-08-12 19:51:33.2270,-0.02,0.01,-0.04
2020-08-12 19:51:33.3270,-0.33,-0.05,-0.02
2020-08-12 19:51:33.4270,-0.43,-0.52,0.26
2020-08-12 19:51:33.5250,-1.05,0.34,-0.11
2020-08-12 19:51:33.6240,-0.04,-0.27,-0.16
2020-08-12 19:51:33.7240,0.55,-0.33,-0.09
2020-08-12 19:51:33.8230,0.62,-0.06,0.1
2020-08-12 19:51:33.9220,0.87,0.03,0.15
2020-08-12 19:51:34.0220,0.9,-0.01,-0.29
2020-08-12 19:51:34.1210,0.09,0.02,0.03
2020-08-12 19:51:34.2200,-0.1,0.02,0.02
2020-08-12 19:51:34.3190,0.06,-0.0,0.01
2020-08-12 19:51:34.4180,0.04,-0.02,-0.01
2020-08-12 19:51:34.5180,0.0,0.0,-0.02
2020-08-12 19:51:34.6170,0.03,-0.0,0.01
2020-08-12 19:51:34.7160,-0.06,0.02,0.01
2020-08-12 19:51:34.8160,-0.01,0.05,0.03
2020-08-12 19:51:34.9150,-0.25,-0.04,-0.12
2020-08-12 19:51:35.0140,-0.45,-0.22,0.36
2020-08-12 19:51:35.1130,-0.96,0.24,-0.13
2020-08-12 19:51:35.2120,0.07,-0.36,-0.16
2020-08-12 19:51:35.3120,0.31,-0.09,0.13
2020-08-12 19:51:35.4110,0.72,-0.01,0.17
2020-08-12 19:51:35.5100,-1.3,-0.62,-0.22
2020-08-12 19:51:35.6090,-0.21,0.16,0.18
2020-08-12 19:51:35.7090,0.1,-0.03,-0.16
2020-08-12 19:51:35.8080,-0.02,0.02,0.06
2020-08-12 19:51:35.9070,-0.02,0.01,0.03
2020-08-12 19:51:36.0070,0.12,-0.02,-0.09
2020-08-12 19:51:36.1060,0.0,0.0,0.02
2020-08-12 19:51:36.2050,-0.02,0.02,0.01
2020-08-12 19:51:36.3040,-0.05,-0.0,0.02
2020-08-12 19:51:36.4040,-0.09,0.01,0.06
2020-08-12 19:51:36.5030,-0.13,-0.02,0.03
2020-08-12 19:51:36.6020,-0.44,-0.59,0.51
2020-08-12 19:51:36.7010,-0.82,0.18,0.5
2020-08-12 19:51:36.8010,-0.87,0.08,-0.11
2020-08-12 19:51:36.9000,0.25,-0.43,-0.11
2020-08-12 19:51:36.9990,0.58,-0.15,0.03
2020-08-12 19:51:37.0980,1.27,0.01,0.08
2020-08-12 19:51:37.1980,-0.09,-1.18,1.16
2020-08-12 19:51:37.2970,0.08,-0.02,0.16
2020-08-12 19:51:37.3960,-0.05,0.01,-0.0
2020-08-12 19:51:37.4960,-0.03,0.01,0.01
2020-08-12 19:51:37.5950,-0.03,-0.01,-0.03
2020-08-12 19:51:37.6940,0.05,-0.02,-0.02
2020-08-12 19:51:37.7930,-0.03,-0.01,0.03
2020-08-12 19:51:37.8920,-0.03,0.01,0.01
2020-08-12 19:51:37.9920,-0.04,-0.0,0.02
2020-08-12 19:51:38.0910,-0.05,-0.02,0.04
2020-08-12 19:51:38.1900,-0.07,0.01,-0.01
2020-08-12 19:51:38.2890,-0.43,-0.73,0.19
2020-08-12 19:51:38.3890,-1.39,0.07,0.14
2020-08-12 19:51:38.4880,-0.68,-0.03,-0.05
2020-08-12 19:51:38.5870,0.4,-0.35,-0.02
2020-08-12 19:51:38.6860,0.82,-0.02,0.16
2020-08-12 19:51:38.7860,0.85,-0.01,0.09
2020-08-12 19:51:38.8850,0.75,0.03,-0.51
2020-08-12 19:51:38.9840,0.36,-0.01,0.01
2020-08-12 19:51:39.0840,0.07,0.0,0.02
2020-08-12 19:51:39.1830,0.02,-0.0,0.0
2020-08-12 19:51:39.2820,0.01,0.0,-0.03
2020-08-12 19:51:39.3810,-0.03,-0.0,0.02
2020-08-12 19:51:39.4810,0.02,0.01,0.02
2020-08-12 19:51:39.5800,-0.0,-0.01,-0.02
2020-08-12 19:51:39.6790,-0.05,-0.02,0.07
2020-08-12 19:51:39.7780,-0.1,0.0,0.05
2020-08-12 19:51:39.8770,-0.48,-1.05,0.2
2020-08-12 19:51:39.9770,-1.36,0.34,0.09
2020-08-12 19:51:40.0760,-0.68,-0.07,-0.16
2020-08-12 19:51:40.1750,0.24,-0.34,-0.11
2020-08-12 19:51:40.2740,0.95,-0.26,0.09
2020-08-12 19:51:40.3740,1.49,0.01,0.25
2020-08-12 19:51:40.4730,1.05,0.08,-0.06
2020-08-12 19:51:40.5720,0.1,-0.07,-0.08
2020-08-12 19:51:40.6710,-0.08,0.04,0.06
2020-08-12 19:51:40.7710,-0.05,0.02,0.05
2020-08-12 19:51:40.8700,-0.02,0.02,-0.03
2020-08-12 19:51:40.9700,-0.04,0.06,0.07
2020-08-12 19:51:41.0680,0.03,-0.02,-0.05
2020-08-12 19:51:41.1680,-0.01,-0.01,0.03
2020-08-12 19:51:41.2670,-0.08,0.02,0.07
2020-08-12 19:51:41.3660,-0.05,0.01,0.03
2020-08-12 19:51:41.4660,-0.03,0.01,-0.02
2020-08-12 19:51:41.5650,-0.14,-0.08,-0.04
2020-08-12 19:51:41.6640,-0.31,-0.44,0.3
2020-08-12 19:51:41.7630,-1.11,0.25,-0.0
2020-08-12 19:51:41.8630,-0.35,-0.31,-0.1
2020-08-12 19:51:41.9620,0.3,-0.18,0.06
2020-08-12 19:51:42.0610,0.65,-0.09,0.17
2020-08-12 19:51:42.1600,1.1,-0.16,0.01
2020-08-12 19:51:42.2600,0.59,0.02,-0.31
2020-08-12 19:51:42.3590,-0.02,-0.09,-0.02
2020-08-12 19:51:42.4580,-0.02,-0.0,0.08
2020-08-12 19:51:42.5570,-0.0,-0.0,-0.01
2020-08-12 19:51:42.6570,-0.09,0.0,-0.01
2020-08-12 19:51:42.7560,-0.05,-0.01,0.02
2020-08-12 19:51:42.8540,0.01,0.01,-0.04
2020-08-12 19:51:42.9540,-0.14,0.01,-0.01
2020-08-12 19:51:43.0540,0.02,-0.01,0.01
2020-08-12 19:51:43.1530,-0.02,0.01,0.0
2020-08-12 19:51:43.2520,-0.08,-0.01,-0.14
2020-08-12 19:51:43.3510,-0.02,-0.52,0.42
2020-08-12 19:51:43.4510,-1.07,0.33,0.1
2020-08-12 19:51:43.5500,-0.39,-0.28,-0.12
2020-08-12 19:51:43.6490,0.37,-0.19,-0.02
2020-08-12 19:51:43.7480,0.71,-0.06,0.13
2020-08-12 19:51:43.8480,1.14,-0.05,0.14
2020-08-12 19:51:43.9470,0.63,-0.19,-0.23
2020-08-12 19:51:44.0460,-0.18,-0.02,-0.04
2020-08-12 19:51:44.1450,0.01,-0.02,0.01
2020-08-12 19:51:44.2450,-0.01,0.01,0.03
2020-08-12 19:51:44.3440,-0.0,0.01,-0.0
2020-08-12 19:51:44.4430,-0.02,0.0,0.01
2020-08-12 19:51:44.5430,0.03,0.01,-0.0
2020-08-12 19:51:44.6420,0.01,0.02,-0.01
2020-08-12 19:51:44.7410,-0.05,0.0,0.01
2020-08-12 19:51:44.8400,-0.06,0.01,0.01
2020-08-12 19:51:44.9390,-0.07,-0.09,-0.02
2020-08-12 19:51:45.0390,-0.5,-0.87,0.18
2020-08-12 19:51:45.1380,-1.39,0.42,0.03
2020-08-12 19:51:45.2370,-0.4,-0.22,-0.07
2020-08-12 19:51:45.3370,0.33,-0.41,0.05
2020-08-12 19:51:45.4360,1.19,-0.12,0.08
2020-08-12 19:51:45.5350,0.65,-0.09,0.8
2020-08-12 19:51:45.6340,0.7,-0.29,-0.26
2020-08-12 19:51:45.7340,-0.08,0.01,0.02
2020-08-12 19:51:45.8330,0.01,0.0,0.05
2020-08-12 19:51:45.9320,-0.0,0.01,-0.0
2020-08-12 19:51:46.0310,0.0,0.0,-0.03
2020-08-12 19:51:46.1310,0.03,-0.0,0.01
2020-08-12 19:51:46.2300,-0.02,0.01,0.01
2020-08-12 19:51:46.3290,-0.03,0.01,0.03
2020-08-12 19:51:46.4280,-0.07,0.0,0.03
2020-08-12 19:51:46.5280,-0.04,0.01,-0.0
2020-08-12 19:51:46.6270,-0.01,-0.03,-0.0
2020-08-12 19:51:46.7260,-0.35,-0.8,0.16
2020-08-12 19:51:46.8250,-0.69,0.16,0.5
2020-08-12 19:51:46.9250,-0.83,0.04,-0.07
2020-08-12 19:51:47.0240,0.34,-0.47,-0.03
2020-08-12 19:51:47.1230,0.99,-0.17,0.09
2020-08-12 19:51:47.2220,1.31,-0.04,0.02
2020-08-12 19:51:47.3220,0.94,-0.25,-0.21
2020-08-12 19:51:47.4210,-0.1,0.02,0.01
2020-08-12 19:51:47.5200,-0.04,0.02,0.03
2020-08-12 19:51:47.6190,0.02,0.0,-0.03
2020-08-12 19:51:47.7190,-0.02,0.02,-0.02
2020-08-12 19:51:47.8180,0.01,0.0,-0.02
2020-08-12 19:51:47.9170,-0.0,0.0,0.02
2020-08-12 19:51:48.0160,-0.0,0.0,0.01
2020-08-12 19:51:48.1160,0.0,-0.0,-0.03
2020-08-12 19:51:48.2150,-0.08,0.01,0.05
2020-08-12 19:51:48.3140,-0.06,-0.03,-0.02
2020-08-12 19:51:48.4130,-0.4,-0.68,0.3
2020-08-12 19:51:48.5130,-1.25,0.33,0.1
2020-08-12 19:51:48.6120,-0.63,0.0,-0.11
2020-08-12 19:51:48.7110,0.21,-0.29,-0.03
2020-08-12 19:51:48.8100,0.68,-0.19,0.06
2020-08-12 19:51:48.9100,1.11,0.02,-0.06
2020-08-12 19:51:49.0090,1.0,-0.07,-0.38
2020-08-12 19:51:49.1080,0.15,0.03,-0.05
2020-08-12 19:51:49.2080,-0.05,-0.0,0.01
2020-08-12 19:51:49.3070,-0.0,0.03,0.02
2020-08-12 19:51:49.4060,-0.04,0.07,0.04
2020-08-12 19:51:49.5040,-0.06,-0.02,0.05
2020-08-12 19:51:49.6040,0.01,0.01,-0.06
2020-08-12 19:51:49.7040,0.05,-0.01,-0.01
2020-08-12 19:51:49.8030,-0.07,0.0,0.04
2020-08-12 19:51:49.9020,-0.04,0.0,0.01
2020-08-12 19:51:50.0010,-0.01,-0.01,0.03
2020-08-12 19:51:50.1010,-0.32,-0.16,0.08
2020-08-12 19:51:50.2000,-0.38,-0.44,0.44
2020-08-12 19:51:50.2990,-1.03,0.28,-0.01
2020-08-12 19:51:50.3980,-0.2,-0.32,-0.04
2020-08-12 19:51:50.4980,0.37,-0.11,-0.02
2020-08-12 19:51:50.5970,0.8,-0.1,0.1
2020-08-12 19:51:50.6960,1.14,-0.12,0.24
2020-08-12 19:51:50.7960,0.78,-0.16,-0.29
2020-08-12 19:51:50.8950,-0.04,0.01,-0.04
2020-08-12 19:51:50.9940,0.0,0.0,0.04
2020-08-12 19:51:51.0930,0.02,0.0,-0.04
2020-08-12 19:51:51.1920,0.01,-0.01,-0.01
2020-08-12 19:51:51.2920,-0.07,0.03,0.04
2020-08-12 19:51:51.3910,-0.05,0.01,0.01
2020-08-12 19:51:51.4900,0.02,-0.0,-0.02
2020-08-12 19:51:51.5900,0.02,-0.0,0.02
2020-08-12 19:51:51.6890,-0.02,0.01,0.02
2020-08-12 19:51:51.7880,-0.18,-0.01,0.06
2020-08-12 19:51:51.8870,-0.44,-0.39,0.16
2020-08-12 19:51:51.9870,-0.97,0.13,0.69
2020-08-12 19:51:52.0860,-0.86,0.04,-0.11
2020-08-12 19:51:52.1850,0.19,-0.36,-0.12
2020-08-12 19:51:52.2840,0.85,-0.1,0.06
2020-08-12 19:51:52.3840,1.25,0.05,-0.0
2020-08-12 19:51:52.4830,0.42,-0.84,-0.06
2020-08-12 19:51:52.5820,0.24,-0.12,0.06
2020-08-12 19:51:52.6810,-0.02,0.02,0.12
2020-08-12 19:51:52.7810,0.03,-0.0,-0.03
2020-08-12 19:51:52.8800,0.01,-0.01,0.01
2020-08-12 19:51:52.9790,0.02,-0.0,-0.01
2020-08-12 19:51:53.0780,-0.03,-0.01,-0.01
2020-08-12 19:51:53.1780,-0.02,0.0,0.0
2020-08-12 19:51:53.2770,-0.01,0.01,-0.0
2020-08-12 19:51:53.3760,-0.16,-0.06,-0.03
2020-08-12 19:51:53.4750,-0.04,-0.81,0.11
2020-08-12 19:51:53.5750,-1.06,0.36,0.01
2020-08-12 19:51:53.6740,-0.59,-0.14,-0.06
2020-08-12 19:51:53.7730,0.12,-0.33,-0.02
2020-08-12 19:51:53.8730,0.56,-0.12,0.01
2020-08-12 19:51:53.9720,1.18,0.01,-0.01
2020-08-12 19:51:54.0710,-1.22,-0.72,0.3
2020-08-12 19:51:54.1700,0.23,-0.12,0.35
2020-08-12 19:51:54.2700,0.11,0.0,0.01
2020-08-12 19:51:54.3690,0.13,-0.02,-0.04
2020-08-12 19:51:54.4680,0.01,-0.01,-0.01
2020-08-12 19:51:54.5670,0.02,0.0,0.01
2020-08-12 19:51:54.6660,0.01,-0.02,0.01
2020-08-12 19:51:54.7660,0.03,-0.01,0.02
2020-08-12 19:51:54.8650,-0.05,0.02,0.02
2020-08-12 19:51:54.9640,0.06,0.0,-0.0
2020-08-12 19:51:55.0630,-0.14,-0.05,-0.11
2020-08-12 19:51:55.1630,0.04,-0.76,0.24
2020-08-12 19:51:55.2620,-1.04,0.38,0.04
2020-08-12 19:51:55.3610,-0.58,-0.11,-0.09
2020-08-12 19:51:55.4600,0.13,-0.3,-0.07
2020-08-12 19:51:55.5600,0.32,-0.03,-0.06
2020-08-12 19:51:55.6590,0.79,-0.06,0.05
2020-08-12 19:51:55.7580,0.63,-0.11,0.35
2020-08-12 19:51:55.8580,0.62,-0.19,-0.27
2020-08-12 19:51:55.9570,0.04,-0.06,-0.14
2020-08-12 19:51:56.0560,-0.04,0.01,0.04
2020-08-12 19:51:56.1550,0.05,-0.01,-0.08
2020-08-12 19:51:56.2550,-0.01,0.03,0.09
2020-08-12 19:51:56.3540,-0.02,0.01,0.01
2020-08-12 19:51:56.4530,0.02,-0.01,-0.0
2020-08-12 19:51:56.5520,-0.09,0.01,0.03
2020-08-12 19:51:56.6520,-0.01,0.01,0.01
2020-08-12 19:51:56.7510,-0.0,-0.0,0.01
2020-08-12 19:51:56.8500,-0.07,0.01,-0.03
2020-08-12 19:51:56.9490,-0.23,-0.73,0.11
2020-08-12 19:51:57.0490,-1.22,0.36,0.09
2020-08-12 19:51:57.1480,-0.45,-0.3,-0.11
2020-08-12 19:51:57.2470,0.5,-0.22,0.05
2020-08-12 19:51:57.3460,1.37,-0.16,0.14
2020-08-12 19:51:57.4460,-1.17,-0.84,-0.29
2020-08-12 19:51:57.5460,0.05,0.11,0.04
2020-08-12 19:51:57.6440,-0.02,-0.06,-0.03
2020-08-12 19:51:57.7430,0.01,0.05,0.01
2020-08-12 19:51:57.8430,-0.02,0.01,-0.01
2020-08-12 19:51:57.9420,0.07,-0.01,-0.07
2020-08-12 19:51:58.0410,0.03,0.02,-0.02
2020-08-12 19:51:58.1400,0.07,-0.01,-0.02
2020-08-12 19:51:58.2400,0.04,-0.03,-0.01
2020-08-12 19:51:58.3390,-0.1,0.01,0.08
2020-08-12 19:51:58.4380,-0.1,0.02,0.06
2020-08-12 19:51:58.5380,-0.21,-0.01,-0.1
2020-08-12 19:51:58.6370,-0.36,-0.46,0.23
2020-08-12 19:51:58.7360,-1.22,0.29,0.01
2020-08-12 19:51:58.8350,-0.34,-0.4,-0.15
2020-08-12 19:51:58.9340,0.4,-0.25,0.07
2020-08-12 19:51:59.0340,1.16,-0.11,0.19
2020-08-12 19:51:59.1330,0.11,-0.32,0.02
2020-08-12 19:51:59.2320,1.37,-0.51,-0.27
2020-08-12 19:51:59.3310,0.02,0.02,-0.06
2020-08-12 19:51:59.4310,-0.0,0.04,0.06
2020-08-12 19:51:59.5300,0.01,0.01,-0.03
2020-08-12 19:51:59.6290,0.03,-0.0,-0.09
2020-08-12 19:51:59.7290,-0.06,0.01,0.06
2020-08-12 19:51:59.8270,0.01,-0.01,0.01
2020-08-12 19:51:59.9270,-0.03,0.02,0.02
2020-08-12 19:52:00.0260,0.0,0.01,-0.0
2020-08-12 19:52:00.1250,-0.05,0.04,-0.01
2020-08-12 19:52:00.2250,-0.1,0.03,0.05
2020-08-12 19:52:00.3240,-0.55,-0.96,0.1
2020-08-12 19:52:00.4230,-1.39,0.36,0.0
2020-08-12 19:52:00.5230,-0.64,-0.2,-0.14
2020-08-12 19:52:00.6220,0.3,-0.32,0.0
2020-08-12 19:52:00.7210,0.71,-0.1,0.11
2020-08-12 19:52:00.8200,1.06,0.03,0.17
2020-08-12 19:52:00.9200,0.52,0.07,-0.52
2020-08-12 19:52:01.0190,0.29,0.01,0.1
2020-08-12 19:52:01.1180,0.1,-0.02,-0.03
2020-08-12 19:52:01.2170,0.01,-0.02,0.0
2020-08-12 19:52:01.3170,-0.01,0.03,0.08
2020-08-12 19:52:01.4160,0.05,-0.07,-0.11
2020-08-12 19:52:01.5150,0.01,-0.01,-0.02
2020-08-12 19:52:01.6140,-0.04,0.0,0.03
2020-08-12 19:52:01.7140,-0.05,-0.01,0.01
2020-08-12 19:52:01.8130,-0.12,0.0,0.08
2020-08-12 19:52:01.9120,-0.14,0.02,-0.08
2020-08-12 19:52:02.0120,0.12,-0.62,0.09
2020-08-12 19:52:02.1110,-0.88,0.39,0.01
2020-08-12 19:52:02.2100,-0.5,-0.1,-0.17
2020-08-12 19:52:02.3090,0.04,-0.27,-0.06
2020-08-12 19:52:02.4080,0.53,-0.13,0.05
2020-08-12 19:52:02.5080,0.88,0.04,0.03
2020-08-12 19:52:02.6070,-2.66,-0.15,-0.49
2020-08-12 19:52:02.7060,-0.0,-0.01,-0.01
2020-08-12 19:52:02.8050,0.08,0.01,-0.14
2020-08-12 19:52:02.9050,0.05,-0.0,-0.01
2020-08-12 19:52:03.0040,0.02,0.0,0.02
2020-08-12 19:52:03.1030,-0.02,-0.0,0.04
2020-08-12 19:52:03.2020,0.01,-0.01,0.01
2020-08-12 19:52:03.3020,0.05,0.0,-0.01
2020-08-12 19:52:03.4010,0.04,0.02,-0.02
2020-08-12 19:52:03.5000,0.09,-0.01,-0.0
2020-08-12 19:52:03.6000,-0.03,0.03,0.04
2020-08-12 19:52:03.6990,-0.1,-0.04,-0.05
2020-08-12 19:52:03.7980,-0.38,-0.7,0.45
2020-08-12 19:52:03.8970,-1.41,0.44,0.01
2020-08-12 19:52:03.9970,-0.57,-0.29,-0.13
2020-08-12 19:52:04.0960,0.54,-0.37,0.02
2020-08-12 19:52:04.1950,0.86,-0.1,0.13
2020-08-12 19:52:04.2940,1.16,-0.05,0.45
2020-08-12 19:52:04.3940,1.0,-0.35,-0.54
2020-08-12 19:52:04.4930,-0.13,-0.03,-0.0
2020-08-12 19:52:04.5920,-0.07,0.01,0.0
2020-08-12 19:52:04.6910,0.01,0.02,-0.0
2020-08-12 19:52:04.7910,0.06,0.03,0.02
2020-08-12 19:52:04.8900,0.06,-0.03,-0.09
2020-08-12 19:52:04.9890,0.1,-0.02,-0.06
2020-08-12 19:52:05.0880,-0.05,-0.02,-0.0
2020-08-12 19:52:05.1880,-0.08,0.0,0.02
2020-08-12 19:52:05.2870,-0.06,-0.02,0.02
2020-08-12 19:52:05.3860,-0.02,0.02,0.01
2020-08-12 19:52:05.4850,-0.64,-1.1,0.23
2020-08-12 19:52:05.5840,-1.43,0.28,-0.08
2020-08-12 19:52:05.6840,-0.8,-0.09,-0.13
2020-08-12 19:52:05.7830,0.34,-0.42,-0.01
2020-08-12 19:52:05.8820,1.09,-0.18,0.19
2020-08-12 19:52:05.9820,1.29,0.04,0.08
2020-08-12 19:52:06.0810,1.07,-0.03,-0.44
2020-08-12 19:52:06.1800,0.19,0.02,-0.17
2020-08-12 19:52:06.2790,-0.11,0.01,0.05
2020-08-12 19:52:06.3780,-0.02,-0.0,-0.03
2020-08-12 19:52:06.4780,-0.0,0.0,0.0
2020-08-12 19:52:06.5770,0.06,0.02,-0.02
2020-08-12 19:52:06.6760,0.0,0.01,0.0
2020-08-12 19:52:06.7760,-0.02,-0.02,0.01
2020-08-12 19:52:06.8750,-0.04,0.01,0.06
2020-08-12 19:52:06.9740,0.0,0.01,0.03
2020-08-12 19:52:07.0730,0.01,-0.02,-0.03
2020-08-12 19:52:07.1730,-0.56,-0.45,0.18
2020-08-12 19:52:07.2720,-0.59,-0.08,0.33
2020-08-12 19:52:07.3710,-0.88,0.23,-0.02
2020-08-12 19:52:07.4700,-0.17,-0.3,-0.07
2020-08-12 19:52:07.5700,0.3,-0.14,-0.03
2020-08-12 19:52:07.6690,0.69,-0.1,0.04
2020-08-12 19:52:07.7680,0.85,-0.15,-0.01
2020-08-12 19:52:07.8670,0.5,0.09,-0.33
2020-08-12 19:52:07.9670,0.05,-0.04,-0.13
2020-08-12 19:52:08.0660,-0.08,0.01,0.0
2020-08-12 19:52:08.1650,-0.03,-0.04,-0.0
2020-08-12 19:52:08.2640,0.04,0.01,-0.01
2020-08-12 19:52:08.3640,-0.0,0.02,0.02
2020-08-12 19:52:08.4630,0.03,-0.03,-0.01
2020-08-12 19:52:08.5620,-0.02,0.01,0.01
2020-08-12 19:52:08.6610,-0.12,0.02,0.06
2020-08-12 19:52:08.7610,-0.07,-0.0,0.02
2020-08-12 19:52:08.8600,-0.08,0.02,0.02
2020-08-12 19:52:08.9590,-0.15,-0.0,-0.02
2020-08-12 19:52:09.0590,-0.76,-0.91,0.1
2020-08-12 19:52:09.1580,-1.36,0.42,0.19
2020-08-12 19:52:09.2570,-0.68,-0.08,-0.06
2020-08-12 19:52:09.3560,0.21,-0.49,0.02
2020-08-12 19:52:09.4550,1.08,-0.17,0.1
2020-08-12 19:52:09.5550,1.3,0.0,0.04
2020-08-12 19:52:09.6540,0.82,-0.07,-0.18
2020-08-12 19:52:09.7530,0.19,-0.05,-0.16
2020-08-12 19:52:09.8520,-0.04,0.01,0.02
2020-08-12 19:52:09.9520,-0.04,0.01,-0.01
2020-08-12 19:52:10.0510,0.02,0.01,0.02
2020-08-12 19:52:10.1500,0.06,-0.01,-0.02
2020-08-12 19:52:10.2500,0.03,-0.01,-0.01
2020-08-12 19:52:10.3490,-0.01,0.0,-0.05
2020-08-12 19:52:10.4480,-0.07,0.0,0.02
2020-08-12 19:52:10.5470,-0.01,-0.0,0.01
2020-08-12 19:52:10.6470,-0.04,0.01,0.04
2020-08-12 19:52:10.7460,-0.32,-0.14,-0.03
2020-08-12 19:52:10.8450,-0.43,-0.46,0.3
2020-08-12 19:52:10.9440,-1.09,0.19,-0.04
2020-08-12 19:52:11.0430,-0.22,-0.37,-0.13
2020-08-12 19:52:11.1430,0.56,-0.15,0.0
2020-08-12 19:52:11.2420,0.87,-0.11,0.09
2020-08-12 19:52:11.3410,1.17,0.03,0.07
2020-08-12 19:52:11.4410,1.11,-0.17,-0.35
2020-08-12 19:52:11.5400,-0.18,0.05,0.12
2020-08-12 19:52:11.6390,-0.06,-0.0,-0.01
2020-08-12 19:52:11.7380,-0.01,0.0,-0.02
2020-08-12 19:52:11.8380,-0.06,-0.0,0.0
2020-08-12 19:52:11.9370,-0.0,0.02,-0.01
2020-08-12 19:52:12.0360,0.08,0.0,-0.1
2020-08-12 19:52:12.1350,0.01,-0.01,-0.01
2020-08-12 19:52:12.2350,-0.01,0.02,-0.02
2020-08-12 19:52:12.3340,0.04,0.01,-0.01
2020-08-12 19:52:12.4330,0.01,0.0,0.01
2020-08-12 19:52:12.5320,-0.09,-0.13,-0.01
2020-08-12 19:52:12.6320,-0.72,-0.65,0.16
2020-08-12 19:52:12.7310,-0.35,0.05,0.55
2020-08-12 19:52:12.8300,-0.72,0.1,0.02
2020-08-12 19:52:12.9290,0.08,-0.42,-0.05
2020-08-12 19:52:13.0290,0.91,-0.3,0.02
2020-08-12 19:52:13.1280,1.37,0.02,0.09
2020-08-12 19:52:13.2270,0.4,-0.45,-0.26
2020-08-12 19:52:13.3260,0.23,-0.13,-0.05
2020-08-12 19:52:13.4260,0.01,-0.01,-0.02
2020-08-12 19:52:13.5250,0.03,-0.01,-0.01
2020-08-12 19:52:13.6240,0.02,0.01,0.05
2020-08-12 19:52:13.7230,-0.07,-0.0,-0.01
2020-08-12 19:52:13.8230,-0.06,-0.02,0.04
2020-08-12 19:52:13.9220,-0.02,0.02,0.01
2020-08-12 19:52:14.0210,0.02,-0.0,0.0
2020-08-12 19:52:14.1200,0.02,-0.0,0.02
2020-08-12 19:52:14.2200,0.01,0.0,-0.01
2020-08-12 19:52:14.3190,-0.02,0.02,-0.01
2020-08-12 19:52:14.4180,-0.09,-0.08,-0.01
2020-08-12 19:52:14.5180,-0.67,-0.6,0.17
2020-08-12 19:52:14.6170,-1.15,0.25,0.26
2020-08-12 19:52:14.7160,-0.61,-0.15,0.01
2020-08-12 19:52:14.8150,0.16,-0.28,0.04
2020-08-12 19:52:14.9140,0.59,-0.1,0.01
2020-08-12 19:52:15.0140,1.22,-0.04,0.03
2020-08-12 19:52:15.1130,0.44,-0.74,-0.01
2020-08-12 19:52:15.2120,0.23,0.02,0.17
2020-08-12 19:52:15.3120,0.03,-0.0,-0.01
2020-08-12 19:52:15.4110,0.17,-0.03,-0.1
2020-08-12 19:52:15.5100,0.03,-0.0,-0.04
2020-08-12 19:52:15.6090,-0.01,0.01,0.05
2020-08-12 19:52:15.7080,0.05,0.01,0.0
2020-08-12 19:52:15.8080,0.03,0.01,-0.02
2020-08-12 19:52:15.9070,-0.05,-0.0,0.03
2020-08-12 19:52:16.0060,-0.07,-0.01,0.02
2020-08-12 19:52:16.1060,-0.12,-0.02,0.03
2020-08-12 19:52:16.2050,-0.37,-0.96,0.24
2020-08-12 19:52:16.3040,-1.43,0.25,0.07
2020-08-12 19:52:16.4030,-0.82,-0.05,-0.17
2020-08-12 19:52:16.5030,0.06,-0.26,-0.04
2020-08-12 19:52:16.6020,0.87,-0.28,0.08
2020-08-12 19:52:16.7010,1.58,-0.04,0.1
2020-08-12 19:52:16.8000,0.7,-0.12,-0.51
2020-08-12 19:52:16.9000,-0.07,-0.04,0.02
2020-08-12 19:52:16.9990,-0.08,0.03,0.07
2020-08-12 19:52:17.0980,0.02,0.0,0.03
2020-08-12 19:52:17.1970,0.02,0.02,-0.0
2020-08-12 19:52:17.2970,0.0,0.01,0.0
2020-08-12 19:52:17.3960,-0.03,0.01,0.01
2020-08-12 19:52:17.4950,-0.02,0.01,0.01
2020-08-12 19:52:17.5940,-0.05,-0.0,-0.0
2020-08-12 19:52:17.6940,-0.04,-0.01,0.01
2020-08-12 19:52:17.7930,-0.06,-0.02,-0.02
2020-08-12 19:52:17.8920,-0.15,-0.16,0.05
2020-08-12 19:52:17.9910,-0.71,-0.71,0.34
2020-08-12 19:52:18.0910,-1.22,0.35,0.35
2020-08-12 19:52:18.1900,-0.91,0.01,-0.02
2020-08-12 19:52:18.2890,0.12,-0.51,-0.15
2020-08-12 19:52:18.3880,0.96,-0.36,0.09
2020-08-12 19:52:18.4880,1.45,-0.03,0.13
2020-08-12 19:52:18.5870,0.18,-0.32,-0.39
2020-08-12 19:52:18.6860,0.29,-0.12,0.11
2020-08-12 19:52:18.7850,0.07,0.04,0.05
2020-08-12 19:52:18.8850,0.02,-0.01,-0.04
2020-08-12 19:52:18.9840,0.07,-0.01,-0.05
2020-08-12 19:52:19.0830,0.01,0.0,0.02
2020-08-12 19:52:19.1820,-0.09,0.0,0.08
2020-08-12 19:52:19.2820,0.15,-0.08,-0.14
2020-08-12 19:52:19.3810,0.1,-0.01,-0.05
2020-08-12 19:52:19.4800,0.04,-0.0,-0.05
2020-08-12 19:52:19.5790,0.02,0.03,0.05
2020-08-12 19:52:19.6790,-0.18,-0.19,0.08
2020-08-12 19:52:19.7780,-0.53,-0.35,0.28
2020-08-12 19:52:19.8770,-1.14,0.3,0.05
2020-08-12 19:52:19.9770,-0.17,-0.29,-0.17
2020-08-12 19:52:20.0760,0.52,-0.33,-0.09
2020-08-12 19:52:20.1750,1.39,-0.15,0.14
2020-08-12 19:52:20.2740,-1.48,-0.33,0.07
2020-08-12 19:52:20.3730,0.07,-0.04,-0.08
2020-08-12 19:52:20.4730,-0.17,-0.02,-0.04
2020-08-12 19:52:20.5720,-0.09,0.03,-0.02
2020-08-12 19:52:20.6710,-0.02,-0.0,0.0
2020-08-12 19:52:20.7710,-0.02,0.02,0.02
2020-08-12 19:52:20.8700,0.09,-0.0,-0.01
2020-08-12 19:52:20.9690,-0.12,0.11,0.16
2020-08-12 19:52:21.0680,-0.15,0.02,0.07
2020-08-12 19:52:21.1680,-0.01,-0.0,0.02
2020-08-12 19:52:21.2670,0.0,-0.01,-0.0
2020-08-12 19:52:21.3660,-0.05,0.02,0.02
2020-08-12 19:52:21.4650,-0.13,-0.15,-0.02
2020-08-12 19:52:21.5650,-0.69,-0.72,0.13
2020-08-12 19:52:21.6640,-1.48,0.47,0.07
2020-08-12 19:52:21.7630,-0.63,-0.26,-0.11
2020-08-12 19:52:21.8620,0.41,-0.45,0.03
2020-08-12 19:52:21.9620,1.08,-0.19,0.15
2020-08-12 19:52:22.0610,1.28,-0.2,0.21
2020-08-12 19:52:22.1600,1.03,-0.18,-0.28
2020-08-12 19:52:22.2590,-0.13,0.04,-0.01
2020-08-12 19:52:22.3580,-0.1,0.07,0.07
2020-08-12 19:52:22.4580,-0.04,-0.02,-0.02
2020-08-12 19:52:22.5570,0.04,0.0,-0.04
2020-08-12 19:52:22.6560,-0.1,0.0,0.0
2020-08-12 19:52:22.7560,0.03,-0.0,-0.03
2020-08-12 19:52:22.8550,0.01,0.01,0.01
2020-08-12 19:52:22.9540,-0.04,0.03,0.01
2020-08-12 19:52:23.0520,-0.04,-0.0,0.01
2020-08-12 19:52:23.1520,-0.03,0.0,0.01
2020-08-12 19:52:23.2520,-0.04,-0.05,0.04
2020-08-12 19:52:23.3510,-0.52,-0.74,0.14
2020-08-12 19:52:23.4500,-0.55,0.02,0.64
2020-08-12 19:52:23.5500,-0.95,0.12,-0.02
2020-08-12 19:52:23.6490,0.01,-0.51,-0.19
2020-08-12 19:52:23.7480,0.64,-0.17,-0.06
2020-08-12 19:52:23.8470,1.11,-0.1,-0.01
2020-08-12 19:52:23.9470,-2.17,-0.06,0.08
2020-08-12 19:52:24.0460,0.5,-0.33,0.38
2020-08-12 19:52:24.1450,-0.03,0.0,-0.09
2020-08-12 19:52:24.2440,0.02,-0.01,-0.0
2020-08-12 19:52:24.3440,-0.01,0.0,-0.02
2020-08-12 19:52:24.4430,0.07,-0.03,-0.12
2020-08-12 19:52:24.5420,0.08,0.03,0.05
2020-08-12 19:52:24.6410,0.01,-0.02,0.01
2020-08-12 19:52:24.7410,0.02,0.01,0.01
2020-08-12 19:52:24.8400,-0.01,0.01,0.01
2020-08-12 19:52:24.9390,-0.01,-0.01,-0.01
2020-08-12 19:52:25.0380,-0.02,0.01,-0.05
2020-08-12 19:52:25.1380,-0.13,-0.1,-0.01
2020-08-12 19:52:25.2370,-0.93,-0.8,0.05
2020-08-12 19:52:25.3360,-1.02,0.15,0.09
2020-08-12 19:52:25.4350,-0.72,-0.03,-0.04
2020-08-12 19:52:25.5350,0.22,-0.53,-0.13
2020-08-12 19:52:25.6340,0.98,-0.37,0.19
2020-08-12 19:52:25.7330,1.44,0.06,0.26
2020-08-12 19:52:25.8320,0.95,-0.12,-0.23
2020-08-12 19:52:25.9310,-0.12,0.04,-0.04
2020-08-12 19:52:26.0310,-0.09,-0.02,-0.03
2020-08-12 19:52:26.1300,0.01,0.02,0.02
2020-08-12 19:52:26.2290,-0.11,0.08,0.15
2020-08-12 19:52:26.3290,-0.0,-0.01,-0.07
2020-08-12 19:52:26.4280,0.04,0.01,-0.03
2020-08-12 19:52:26.5270,-0.0,0.01,-0.0
2020-08-12 19:52:26.6270,0.01,-0.0,-0.02
2020-08-12 19:52:26.7260,-0.0,-0.01,-0.02
2020-08-12 19:52:26.8250,-0.02,-0.0,0.03
2020-08-12 19:52:26.9240,-0.1,-0.03,0.03
2020-08-12 19:52:27.0240,-0.31,-0.56,0.04
2020-08-12 19:52:27.1230,-0.21,-0.14,0.57
2020-08-12 19:52:27.2220,-1.15,0.18,-0.0
2020-08-12 19:52:27.3210,-0.11,-0.49,-0.11
2020-08-12 19:52:27.4210,0.7,-0.3,0.11
2020-08-12 19:52:27.5200,1.26,-0.13,0.06
2020-08-12 19:52:27.6190,-1.5,-0.37,0.18
2020-08-12 19:52:27.7180,0.6,-0.47,0.02
2020-08-12 19:52:27.8170,-0.01,0.02,0.02
2020-08-12 19:52:27.9170,-0.09,0.01,-0.04
2020-08-12 19:52:28.0160,-0.07,0.01,0.01
2020-08-12 19:52:28.1150,-0.02,0.0,0.01
2020-08-12 19:52:28.2150,-0.04,0.0,-0.01
2020-08-12 19:52:28.3140,0.0,-0.01,-0.02
2020-08-12 19:52:28.4130,-0.02,0.0,0.01
2020-08-12 19:52:28.5120,-0.02,-0.0,0.01
2020-08-12 19:52:28.6120,-0.07,0.0,0.04
2020-08-12 19:52:28.7110,-0.27,-0.13,-0.02
2020-08-12 19:52:28.8100,-0.67,-0.62,0.56
2020-08-12 19:52:28.9090,-1.19,0.31,0.1
2020-08-12 19:52:29.0090,-0.33,-0.37,-0.14
2020-08-12 19:52:29.1080,0.56,-0.37,-0.01
2020-08-12 19:52:29.2070,1.11,-0.1,0.14
2020-08-12 19:52:29.3060,-0.94,-0.68,-0.09
2020-08-12 19:52:29.4060,0.52,-0.16,-0.09
2020-08-12 19:52:29.5050,-0.14,0.02,0.01
2020-08-12 19:52:29.6040,-0.14,0.06,0.03
2020-08-12 19:52:29.7030,0.09,-0.08,-0.06
2020-08-12 19:52:29.8030,0.05,0.0,-0.02
2020-08-12 19:52:29.9020,0.05,-0.01,-0.04
2020-08-12 19:52:30.0010,0.01,0.02,0.02
2020-08-12 19:52:30.1000,-0.01,0.0,0.01
2020-08-12 19:52:30.2000,0.0,0.0,-0.02
2020-08-12 19:52:30.2990,-0.0,-0.02,0.02
2020-08-12 19:52:30.3980,-0.02,0.01,0.04
2020-08-12 19:52:30.4970,-0.17,-0.12,-0.01
2020-08-12 19:52:30.5970,-0.96,-0.65,0.28
2020-08-12 19:52:30.6960,-1.29,0.43,0.23
2020-08-12 19:52:30.7950,-0.72,-0.09,-0.07
2020-08-12 19:52:30.8940,0.4,-0.5,-0.13
2020-08-12 19:52:30.9940,0.87,-0.21,-0.03
2020-08-12 19:52:31.0930,1.35,-0.06,-0.07
2020-08-12 19:52:31.1920,0.62,-0.12,-0.59
2020-08-12 19:52:31.2920,0.52,-0.09,0.05
2020-08-12 19:52:31.3910,0.03,-0.01,0.02
2020-08-12 19:52:31.4900,0.13,-0.04,-0.06
2020-08-12 19:52:31.5890,0.06,0.0,0.01
2020-08-12 19:52:31.6880,0.01,0.0,0.03
2020-08-12 19:52:31.7880,0.02,-0.0,-0.01
2020-08-12 19:52:31.8870,0.01,-0.01,0.0
2020-08-12 19:52:31.9860,-0.07,0.0,0.02
2020-08-12 19:52:32.0850,-0.06,0.0,0.01
2020-08-12 19:52:32.1850,-0.07,0.02,0.03
2020-08-12 19:52:32.2840,-0.19,-0.02,0.04
2020-08-12 19:52:32.3830,-0.58,-0.77,0.14
2020-08-12 19:52:32.4820,-1.17,0.25,0.08
2020-08-12 19:52:32.5820,-0.84,-0.01,-0.07
2020-08-12 19:52:32.6810,-0.0,-0.46,-0.08
2020-08-12 19:52:32.7800,0.82,-0.28,0.12
2020-08-12 19:52:32.8800,1.26,-0.01,-0.02
2020-08-12 19:52:32.9790,0.43,-0.31,-0.33
2020-08-12 19:52:33.0780,0.58,-0.37,-0.01
2020-08-12 19:52:33.1770,0.13,0.01,0.0
2020-08-12 19:52:33.2770,0.02,-0.0,-0.04
2020-08-12 19:52:33.3760,-0.0,0.0,0.03
2020-08-12 19:52:33.4750,0.01,-0.01,-0.01
2020-08-12 19:52:33.5740,-0.01,0.01,0.01
2020-08-12 19:52:33.6740,-0.02,0.01,0.03
2020-08-12 19:52:33.7730,-0.01,0.02,0.01
2020-08-12 19:52:33.8720,-0.0,-0.01,-0.01
2020-08-12 19:52:33.9710,-0.02,-0.01,-0.01
2020-08-12 19:52:34.0710,-0.07,-0.04,-0.01
2020-08-12 19:52:34.1700,-0.65,-0.92,0.18
2020-08-12 19:52:34.2690,-1.3,0.47,0.05
2020-08-12 19:52:34.3680,-0.65,-0.12,-0.12
2020-08-12 19:52:34.4670,0.13,-0.46,-0.06
2020-08-12 19:52:34.5670,0.92,-0.25,0.13
2020-08-12 19:52:34.6660,1.29,0.02,0.09
2020-08-12 19:52:34.7650,0.65,0.09,-0.49
2020-08-12 19:52:34.8650,0.37,-0.07,0.02
2020-08-12 19:52:34.9640,-0.02,-0.01,0.04
2020-08-12 19:52:35.0630,-0.01,-0.03,-0.07
2020-08-12 19:52:35.1620,0.03,0.02,-0.02
2020-08-12 19:52:35.2610,0.03,0.01,-0.0
2020-08-12 19:52:35.3610,0.0,-0.02,-0.02
2020-08-12 19:52:35.4600,-0.02,0.01,0.02
2020-08-12 19:52:35.5590,-0.04,0.01,0.0
2020-08-12 19:52:35.6580,-0.04,0.01,-0.0
2020-08-12 19:52:35.7580,-0.05,-0.0,-0.0
2020-08-12 19:52:35.8570,-0.08,-0.02,0.01
2020-08-12 19:52:35.9560,-0.31,-0.41,-0.02
2020-08-12 19:52:36.0560,-0.06,-0.38,0.6
2020-08-12 19:52:36.1550,-1.23,0.49,0.15
2020-08-12 19:52:36.2540,-0.33,-0.32,-0.11
2020-08-12 19:52:36.3530,0.45,-0.36,0.08
2020-08-12 19:52:36.4530,0.99,-0.16,0.04
2020-08-12 19:52:36.5520,0.08,-0.49,0.09
2020-08-12 19:52:36.6510,0.55,0.03,-0.21
2020-08-12 19:52:36.7500,-0.21,0.0,-0.06
2020-08-12 19:52:36.8500,-0.11,0.0,0.06
2020-08-12 19:52:36.9490,-0.08,0.01,0.0
2020-08-12 19:52:37.0480,0.06,-0.0,-0.07
2020-08-12 19:52:37.1470,-0.03,-0.01,-0.09
2020-08-12 19:52:37.2470,-0.08,0.02,0.05
2020-08-12 19:52:37.3460,-0.02,0.01,0.01
2020-08-12 19:52:37.4450,-0.03,0.0,-0.01
2020-08-12 19:52:37.5440,-0.04,-0.01,-0.0
2020-08-12 19:52:37.6440,-0.04,0.0,0.0
2020-08-12 19:52:37.7430,-0.12,-0.04,0.01
2020-08-12 19:52:37.8420,-0.21,-0.31,-0.05
2020-08-12 19:52:37.9410,-0.67,-0.42,0.26
2020-08-12 19:52:38.0410,-1.19,0.52,0.34
2020-08-12 19:52:38.1400,-0.55,-0.12,-0.04
2020-08-12 19:52:38.2390,0.29,-0.41,-0.07
2020-08-12 19:52:38.3380,0.96,-0.31,0.01
2020-08-12 19:52:38.4380,1.34,0.01,0.08
2020-08-12 19:52:38.5370,0.59,-0.21,-0.3
2020-08-12 19:52:38.6360,0.33,-0.07,-0.05
2020-08-12 19:52:38.7350,0.14,-0.04,-0.0
2020-08-12 19:52:38.8350,0.13,-0.04,-0.04
2020-08-12 19:52:38.9340,0.04,0.01,0.02
2020-08-12 19:52:39.0330,0.05,-0.01,-0.03
2020-08-12 19:52:39.1330,-0.03,0.01,-0.01
2020-08-12 19:52:39.2320,-0.05,0.01,0.02
2020-08-12 19:52:39.3310,-0.03,0.01,0.03
2020-08-12 19:52:39.4300,0.01,-0.0,0.01
2020-08-12 19:52:39.5290,0.01,-0.02,0.02
2020-08-12 19:52:39.6290,-0.03,-0.04,0.0
2020-08-12 19:52:39.7280,-0.23,-0.26,-0.03
2020-08-12 19:52:39.8270,-0.56,-0.4,0.29
2020-08-12 19:52:39.9270,-1.2,0.39,0.28
2020-08-12 19:52:40.0260,-0.48,-0.2,-0.07
2020-08-12 19:52:40.1250,0.4,-0.41,-0.05
2020-08-12 19:52:40.2240,1.03,-0.23,0.07
2020-08-12 19:52:40.3240,0.27,-0.69,0.28
2020-08-12 19:52:40.4230,0.43,0.02,0.01
2020-08-12 19:52:40.5220,-0.27,0.01,-0.04
2020-08-12 19:52:40.6210,-0.05,-0.0,0.06
2020-08-12 19:52:40.7210,-0.0,0.02,-0.0
2020-08-12 19:52:40.8200,0.01,-0.0,-0.03
2020-08-12 19:52:40.9190,0.04,0.0,-0.11
2020-08-12 19:52:41.0180,0.01,-0.01,0.01
2020-08-12 19:52:41.1170,0.02,-0.01,-0.01
2020-08-12 19:52:41.2170,0.0,0.01,-0.01
2020-08-12 19:52:41.3160,0.02,0.0,0.01
2020-08-12 19:52:41.4150,0.05,-0.01,-0.01
2020-08-12 19:52:41.5150,-0.02,-0.08,-0.01
2020-08-12 19:52:41.6140,-0.65,-0.75,0.13
2020-08-12 19:52:41.7130,0.31,-0.12,0.68
2020-08-12 19:52:41.8130,-0.76,0.28,0.13
2020-08-12 19:52:41.9120,-0.22,-0.42,-0.08
2020-08-12 19:52:42.0110,0.61,-0.45,0.01
2020-08-12 19:52:42.1100,1.62,-0.08,-0.01
2020-08-12 19:52:42.2100,-0.51,-0.84,0.82
2020-08-12 19:52:42.3080,0.46,-0.25,0.09
2020-08-12 19:52:42.4080,0.14,0.04,-0.0
2020-08-12 19:52:42.5070,-0.03,0.0,0.03
2020-08-12 19:52:42.6060,-0.06,0.01,0.04
2020-08-12 19:52:42.7060,0.0,0.03,0.06
2020-08-12 19:52:42.8050,-0.05,0.01,0.07
2020-08-12 19:52:42.9040,-0.02,0.01,-0.04
2020-08-12 19:52:43.0030,-0.06,0.01,-0.01
2020-08-12 19:52:43.1030,-0.07,0.01,-0.0
2020-08-12 19:52:43.2020,-0.05,-0.02,0.06
2020-08-12 19:52:43.3010,-0.03,-0.03,0.02
2020-08-12 19:52:43.4000,-0.16,-0.21,-0.09
2020-08-12 19:52:43.5000,-0.52,-0.5,0.24
2020-08-12 19:52:43.5990,-1.47,0.49,0.07
2020-08-12 19:52:43.6980,-0.56,-0.27,-0.27
2020-08-12 19:52:43.7970,0.34,-0.45,-0.03
2020-08-12 19:52:43.8970,1.23,-0.28,0.25
2020-08-12 19:52:43.9960,0.28,-0.76,0.16
2020-08-12 19:52:44.0950,0.92,-0.11,-0.32
2020-08-12 19:52:44.1940,-0.08,-0.02,-0.01
2020-08-12 19:52:44.2940,-0.01,0.01,0.05
2020-08-12 19:52:44.3930,0.03,-0.02,-0.04
2020-08-12 19:52:44.4920,-0.14,0.11,0.16
2020-08-12 19:52:44.5910,-0.03,-0.02,-0.06
2020-08-12 19:52:44.6910,0.04,0.0,-0.0
2020-08-12 19:52:44.7900,0.01,0.0,0.01
2020-08-12 19:52:44.8890,-0.03,0.0,0.0
2020-08-12 19:52:44.9890,-0.05,0.02,0.03
2020-08-12 19:52:45.0880,-0.02,-0.01,0.01
2020-08-12 19:52:45.1870,-0.11,-0.01,0.04
2020-08-12 19:52:45.2860,-0.44,-0.71,-0.07
2020-08-12 19:52:45.3850,-0.67,-0.01,0.06
2020-08-12 19:52:45.4850,-0.81,0.21,0.04
2020-08-12 19:52:45.5840,-0.1,-0.41,0.02
2020-08-12 19:52:45.6830,0.54,-0.35,0.06
2020-08-12 19:52:45.7830,1.02,-0.16,-0.02
2020-08-12 19:52:45.8820,-0.66,-0.47,-0.1
2020-08-12 19:52:45.9810,0.6,-0.33,0.17
2020-08-12 19:52:46.0800,0.0,0.02,-0.09
2020-08-12 19:52:46.1800,0.03,0.01,0.02
2020-08-12 19:52:46.2790,-0.02,0.01,0.03
2020-08-12 19:52:46.3780,0.02,0.04,0.04
2020-08-12 19:52:46.4770,0.03,0.02,-0.03
2020-08-12 19:52:46.5770,0.03,0.01,-0.02
2020-08-12 19:52:46.6760,0.01,-0.03,0.0
2020-08-12 19:52:46.7750,-0.05,0.0,0.0
2020-08-12 19:52:46.8740,-0.02,-0.01,0.02
2020-08-12 19:52:46.9740,-0.04,-0.01,0.01
2020-08-12 19:52:47.0730,-0.11,-0.06,-0.01
2020-08-12 19:52:47.1720,-0.68,-0.51,0.29
2020-08-12 19:52:47.2710,-1.24,0.48,0.08
2020-08-12 19:52:47.3710,-0.6,-0.17,-0.07
2020-08-12 19:52:47.4700,0.24,-0.48,-0.02
2020-08-12 19:52:47.5690,0.98,-0.23,0.09
2020-08-12 19:52:47.6680,1.23,-0.03,0.11
2020-08-12 19:52:47.7680,0.62,-0.07,-0.42
2020-08-12 19:52:47.8670,0.22,0.01,-0.19
2020-08-12 19:52:47.9660,-0.03,-0.0,0.0
2020-08-12 19:52:48.0650,-0.09,0.01,0.0
2020-08-12 19:52:48.1650,0.02,0.02,0.03
2020-08-12 19:52:48.2640,-0.03,0.06,0.06
2020-08-12 19:52:48.3630,-0.03,0.01,-0.01
2020-08-12 19:52:48.4620,-0.05,0.03,0.02
2020-08-12 19:52:48.5620,-0.03,-0.01,0.02
2020-08-12 19:52:48.6610,-0.03,0.0,0.0
2020-08-12 19:52:48.7600,0.03,-0.01,0.01
2020-08-12 19:52:48.8590,-0.08,0.0,0.02
2020-08-12 19:52:48.9590,-0.25,-0.24,-0.01
2020-08-12 19:52:49.0580,-0.48,-0.36,0.34
2020-08-12 19:52:49.1570,-1.42,0.56,0.23
2020-08-12 19:52:49.2570,-0.55,-0.21,-0.08
2020-08-12 19:52:49.3560,0.37,-0.49,-0.03
2020-08-12 19:52:49.4550,1.03,-0.16,0.05
2020-08-12 19:52:49.5540,1.2,-0.07,0.16
2020-08-12 19:52:49.6530,0.76,-0.14,-0.33
2020-08-12 19:52:49.7530,0.0,0.01,-0.04
2020-08-12 19:52:49.8520,-0.1,0.07,0.12
2020-08-12 19:52:49.9510,-0.0,0.0,-0.08
2020-08-12 19:52:50.0500,0.02,0.01,-0.02
2020-08-12 19:52:50.1500,-0.03,0.0,0.04
2020-08-12 19:52:50.2490,-0.03,-0.01,0.01
2020-08-12 19:52:50.3480,-0.04,-0.01,0.02
2020-08-12 19:52:50.4480,-0.03,0.01,0.03
2020-08-12 19:52:50.5470,-0.05,0.0,0.0
2020-08-12 19:52:50.6460,-0.07,0.01,0.04
2020-08-12 19:52:50.7450,-0.25,-0.16,0.04
2020-08-12 19:52:50.8440,-0.91,-0.71,0.16
2020-08-12 19:52:50.9440,-1.28,0.45,0.17
2020-08-12 19:52:51.0430,-0.68,-0.01,-0.02
2020-08-12 19:52:51.1420,0.14,-0.43,-0.01
2020-08-12 19:52:51.2420,0.88,-0.24,0.08
2020-08-12 19:52:51.3410,1.18,-0.06,0.01
2020-08-12 19:52:51.4400,0.62,-0.17,-0.12
2020-08-12 19:52:51.5390,0.28,-0.11,-0.15
2020-08-12 19:52:51.6390,0.06,0.0,0.08
2020-08-12 19:52:51.7380,-0.06,0.05,0.02
2020-08-12 19:52:51.8370,-0.0,-0.01,-0.05
2020-08-12 19:52:51.9360,-0.06,-0.0,0.08
2020-08-12 19:52:52.0360,-0.02,0.0,0.01
2020-08-12 19:52:52.1350,0.01,-0.02,-0.06
2020-08-12 19:52:52.2340,-0.03,0.0,-0.0
2020-08-12 19:52:52.3330,-0.03,-0.02,-0.01
2020-08-12 19:52:52.4330,-0.06,0.02,0.03
2020-08-12 19:52:52.5320,-0.15,-0.05,-0.01
2020-08-12 19:52:52.6310,-0.98,-0.93,0.1
2020-08-12 19:52:52.7300,-1.35,0.43,0.04
2020-08-12 19:52:52.8300,-0.67,0.05,0.0
2020-08-12 19:52:52.9290,0.32,-0.64,-0.04
2020-08-12 19:52:53.0280,1.08,-0.32,0.09
2020-08-12 19:52:53.1270,1.2,-0.15,0.19
2020-08-12 19:52:53.2270,0.92,-0.25,-0.16
2020-08-12 19:52:53.3260,0.13,-0.06,-0.12
2020-08-12 19:52:53.4250,-0.03,0.02,-0.01
2020-08-12 19:52:53.5240,0.01,0.01,-0.02
2020-08-12 19:52:53.6240,0.01,-0.01,-0.01
2020-08-12 19:52:53.7230,0.04,-0.01,-0.02
2020-08-12 19:52:53.8220,0.0,0.03,-0.01
2020-08-12 19:52:53.9210,0.04,-0.04,-0.01
2020-08-12 19:52:54.0210,-0.08,0.0,0.07
2020-08-12 19:52:54.1200,-0.09,0.01,0.03
2020-08-12 19:52:54.2190,-0.08,0.01,0.02
2020-08-12 19:52:54.3180,-0.15,-0.02,-0.03
2020-08-12 19:52:54.4180,-0.65,-0.77,0.02
2020-08-12 19:52:54.5170,-1.02,0.1,0.05
2020-08-12 19:52:54.6160,-0.81,0.18,0.02
2020-08-12 19:52:54.7150,-0.01,-0.51,-0.05
2020-08-12 19:52:54.8150,0.67,-0.22,0.12
2020-08-12 19:52:54.9140,1.46,-0.08,0.04
2020-08-12 19:52:55.0130,-0.03,-0.19,-0.01
2020-08-12 19:52:55.1120,0.2,0.1,-0.03
2020-08-12 19:52:55.2120,0.09,0.02,-0.01
2020-08-12 19:52:55.3110,0.02,-0.0,-0.02
2020-08-12 19:52:55.4100,0.04,0.01,-0.03
2020-08-12 19:52:55.5100,-0.08,-0.0,0.02
2020-08-12 19:52:55.6090,-0.02,0.01,-0.0
2020-08-12 19:52:55.7080,-0.04,0.01,0.07
2020-08-12 19:52:55.8070,-0.02,0.01,0.01
2020-08-12 19:52:55.9070,-0.03,-0.01,-0.02
2020-08-12 19:52:56.0060,-0.05,-0.0,-0.0
2020-08-12 19:52:56.1050,-0.11,0.0,0.05
2020-08-12 19:52:56.2040,-0.29,-0.54,0.11
2020-08-12 19:52:56.3040,-0.3,-0.25,0.34
2020-08-12 19:52:56.4030,-0.96,0.34,0.09
2020-08-12 19:52:56.5020,-0.31,-0.23,-0.11
2020-08-12 19:52:56.6010,0.38,-0.28,0.07
2020-08-12 19:52:56.7010,0.92,-0.08,0.13
2020-08-12 19:52:56.8000,1.16,0.03,0.23
2020-08-12 19:52:56.8990,0.8,0.02,-0.4
2020-08-12 19:52:56.9980,-0.03,0.11,-0.09
2020-08-12 19:52:57.0980,-0.12,0.03,0.04
2020-08-12 19:52:57.1970,-0.07,0.02,0.05
2020-08-12 19:52:57.2960,-0.01,-0.0,-0.11
2020-08-12 19:52:57.3950,0.04,0.02,-0.05
2020-08-12 19:52:57.4950,0.01,0.0,0.01
2020-08-12 19:52:57.5940,0.0,0.0,0.02
2020-08-12 19:52:57.6930,-0.02,-0.01,0.04
2020-08-12 19:52:57.7920,-0.01,-0.03,0.02
2020-08-12 19:52:57.8910,0.01,0.03,-0.05
2020-08-12 19:52:57.9910,0.01,-0.01,-0.04
2020-08-12 19:52:58.0900,-0.53,-0.74,0.11
2020-08-12 19:52:58.1890,-0.52,-0.09,0.65
2020-08-12 19:52:58.2890,-0.84,0.17,-0.05
2020-08-12 19:52:58.3880,0.04,-0.51,0.01
2020-08-12 19:52:58.4870,0.69,-0.29,0.07
2020-08-12 19:52:58.5860,0.83,-0.12,-0.05
2020-08-12 19:52:58.6860,-2.01,-0.27,-0.62
2020-08-12 19:52:58.7850,0.18,-0.05,-0.07
2020-08-12 19:52:58.8840,0.11,-0.01,-0.02
2020-08-12 19:52:58.9830,0.09,-0.02,-0.04
2020-08-12 19:52:59.0830,0.01,0.05,0.05
2020-08-12 19:52:59.1820,0.04,-0.02,-0.02
2020-08-12 19:52:59.2810,-0.04,-0.01,0.04
2020-08-12 19:52:59.3800,0.0,0.0,0.02
2020-08-12 19:52:59.4800,-0.05,-0.0,0.01
2020-08-12 19:52:59.5790,-0.02,-0.0,0.02
2020-08-12 19:52:59.6780,-0.09,0.0,0.01
2020-08-12 19:52:59.7770,-0.14,-0.0,0.02
2020-08-12 19:52:59.8770,-0.5,-0.68,0.09
2020-08-12 19:52:59.9760,-0.22,-0.07,0.49
2020-08-12 19:53:00.0750,-0.95,0.33,0.07
2020-08-12 19:53:00.1740,-0.05,-0.5,-0.1
2020-08-12 19:53:00.2740,0.54,-0.26,0.04
2020-08-12 19:53:00.3730,0.67,-0.11,0.08
2020-08-12 19:53:00.4720,0.95,-0.07,0.0
2020-08-12 19:53:00.5710,0.79,-0.24,-0.02
2020-08-12 19:53:00.6710,-0.13,0.06,-0.05
2020-08-12 19:53:00.7700,-0.07,0.01,0.01
2020-08-12 19:53:00.8690,-0.03,0.01,-0.02
2020-08-12 19:53:00.9690,0.02,-0.0,-0.03
2020-08-12 19:53:01.0680,0.06,-0.01,0.01
2020-08-12 19:53:01.1670,0.02,0.0,0.0
2020-08-12 19:53:01.2660,-0.02,0.02,-0.0
2020-08-12 19:53:01.3650,-0.03,0.0,-0.01
2020-08-12 19:53:01.4650,-0.02,-0.0,0.02
2020-08-12 19:53:01.5640,-0.01,0.02,-0.01
2020-08-12 19:53:01.6630,-0.58,-0.4,0.2
2020-08-12 19:53:01.7620,-0.37,-0.22,0.47
2020-08-12 19:53:01.8620,-1.01,0.28,-0.01
2020-08-12 19:53:01.9610,-0.2,-0.32,-0.12
2020-08-12 19:53:02.0600,0.47,-0.26,-0.05
2020-08-12 19:53:02.1590,0.67,-0.09,-0.03
2020-08-12 19:53:02.2590,1.1,-0.01,-0.01
2020-08-12 19:53:02.3580,-0.37,-0.94,0.69
2020-08-12 19:53:02.4570,0.2,0.05,0.1
2020-08-12 19:53:02.5570,0.29,-0.03,0.02
2020-08-12 19:53:02.6560,0.13,-0.05,-0.04
2020-08-12 19:53:02.7550,0.03,0.04,0.03
2020-08-12 19:53:02.8540,-0.03,0.03,0.04
2020-08-12 19:53:02.9530,-0.06,0.01,0.03
2020-08-12 19:53:03.0530,-0.04,0.03,0.01
2020-08-12 19:53:03.1520,-0.06,0.01,0.0
2020-08-12 19:53:03.2510,-0.05,0.01,0.02
2020-08-12 19:53:03.3510,-0.06,0.03,0.01
2020-08-12 19:53:03.4500,-0.03,-0.06,-0.02
2020-08-12 19:53:03.5490,-0.63,-0.69,0.14
2020-08-12 19:53:03.6480,-0.89,0.19,0.16
2020-08-12 19:53:03.7480,-0.67,-0.03,-0.02
2020-08-12 19:53:03.8470,0.12,-0.4,-0.01
2020-08-12 19:53:03.9460,0.52,-0.19,-0.01
2020-08-12 19:53:04.0450,0.96,-0.08,-0.01
2020-08-12 19:53:04.1450,-1.41,-0.26,0.06
2020-08-12 19:53:04.2440,0.35,-0.26,0.08
2020-08-12 19:53:04.3430,-0.08,0.04,-0.05
2020-08-12 19:53:04.4420,0.0,-0.02,-0.04
2020-08-12 19:53:04.5420,-0.01,0.01,0.03
2020-08-12 19:53:04.6410,-0.02,0.01,0.02
2020-08-12 19:53:04.7400,0.03,0.0,-0.01
2020-08-12 19:53:04.8390,-0.01,-0.01,0.01
2020-08-12 19:53:04.9380,-0.0,0.0,0.01
2020-08-12 19:53:05.0380,-0.01,0.01,0.03
2020-08-12 19:53:05.1370,-0.0,-0.01,-0.01
2020-08-12 19:53:05.2360,-0.1,-0.05,0.03
2020-08-12 19:53:05.3360,-0.59,-0.69,0.06
2020-08-12 19:53:05.4350,-0.26,-0.11,0.21
2020-08-12 19:53:05.5340,-0.85,0.15,0.14
2020-08-12 19:53:05.6330,-0.09,-0.4,-0.01
2020-08-12 19:53:05.7330,0.46,-0.37,-0.01
2020-08-12 19:53:05.8320,1.04,-0.08,-0.04
2020-08-12 19:53:05.9310,0.52,-0.4,-0.02
2020-08-12 19:53:06.0300,0.61,-0.1,-0.13
2020-08-12 19:53:06.1300,-0.23,-0.0,-0.09
2020-08-12 19:53:06.2290,-0.1,0.03,0.01
2020-08-12 19:53:06.3280,0.0,0.01,-0.01
2020-08-12 19:53:06.4270,0.02,-0.0,-0.03
2020-08-12 19:53:06.5270,-0.02,0.01,-0.0
2020-08-12 19:53:06.6260,-0.01,-0.03,-0.01
2020-08-12 19:53:06.7250,-0.03,0.02,0.01
2020-08-12 19:53:06.8240,-0.02,-0.01,0.02
2020-08-12 19:53:06.9230,0.0,0.0,0.01
2020-08-12 19:53:07.0230,0.0,0.04,0.01
2020-08-12 19:53:07.1220,-0.14,-0.64,0.11
2020-08-12 19:53:07.2210,-0.22,-0.15,0.4
2020-08-12 19:53:07.3210,-1.06,0.33,0.1
2020-08-12 19:53:07.4200,-0.43,-0.26,-0.11
2020-08-12 19:53:07.5190,0.3,-0.38,0.01
2020-08-12 19:53:07.6180,0.94,-0.16,0.06
2020-08-12 19:53:07.7180,1.2,-0.18,0.06
2020-08-12 19:53:07.8170,0.8,-0.22,-0.03
2020-08-12 19:53:07.9160,-0.25,0.03,-0.09
2020-08-12 19:53:08.0160,-0.09,0.02,0.04
2020-08-12 19:53:08.1150,0.04,-0.01,-0.02
2020-08-12 19:53:08.2140,0.01,0.01,-0.0
2020-08-12 19:53:08.3130,-0.03,0.01,0.01
2020-08-12 19:53:08.4130,0.04,0.0,-0.06
2020-08-12 19:53:08.5120,-0.03,0.0,0.02
2020-08-12 19:53:08.6110,-0.03,-0.02,0.02
2020-08-12 19:53:08.7100,-0.02,-0.0,0.02
2020-08-12 19:53:08.8100,-0.06,-0.0,0.03
2020-08-12 19:53:08.9090,-0.34,-0.55,0.08
2020-08-12 19:53:09.0080,-0.26,-0.19,0.52
2020-08-12 19:53:09.1070,-1.06,0.36,0.05
2020-08-12 19:53:09.2070,-0.38,-0.32,-0.13
2020-08-12 19:53:09.3060,0.37,-0.35,-0.01
2020-08-12 19:53:09.4050,1.24,-0.18,0.14
2020-08-12 19:53:09.5040,-0.14,-0.65,-0.06
2020-08-12 19:53:09.6040,0.88,-0.35,0.47
2020-08-12 19:53:09.7030,-0.28,-0.01,-0.06
2020-08-12 19:53:09.8020,-0.03,-0.01,0.01
2020-08-12 19:53:09.9010,0.02,0.03,0.02
2020-08-12 19:53:10.0010,-0.01,0.02,0.01
2020-08-12 19:53:10.1000,-0.02,-0.03,-0.0
2020-08-12 19:53:10.1990,0.02,0.0,-0.01
2020-08-12 19:53:10.2980,0.0,0.0,0.0
2020-08-12 19:53:10.3980,-0.07,-0.02,0.02
2020-08-12 19:53:10.4970,-0.04,-0.01,0.0
2020-08-12 19:53:10.5960,-0.03,0.05,-0.03
2020-08-12 19:53:10.6950,-0.8,-0.67,0.19
2020-08-12 19:53:10.7950,-1.09,0.19,0.14
2020-08-12 19:53:10.8940,-0.73,0.02,-0.03
2020-08-12 19:53:10.9930,-0.0,-0.43,-0.08
2020-08-12 19:53:11.0920,0.68,-0.28,0.14
2020-08-12 19:53:11.1910,1.2,-0.03,-0.01
2020-08-12 19:53:11.2910,-1.47,-0.34,0.64
2020-08-12 19:53:11.3900,-0.11,0.05,0.2
2020-08-12 19:53:11.4890,0.05,0.0,-0.09
2020-08-12 19:53:11.5890,0.02,-0.01,0.0
2020-08-12 19:53:11.6880,0.03,0.01,-0.01
2020-08-12 19:53:11.7870,-0.02,-0.0,-0.0
2020-08-12 19:53:11.8870,-0.07,0.01,0.02
2020-08-12 19:53:11.9860,-0.05,0.01,0.0
2020-08-12 19:53:12.0850,-0.05,0.02,-0.01
2020-08-12 19:53:12.1840,-0.03,-0.0,-0.0
2020-08-12 19:53:12.2840,-0.05,-0.01,0.0
2020-08-12 19:53:12.3830,-0.07,-0.01,0.02
2020-08-12 19:53:12.4820,-0.23,-0.47,0.09
2020-08-12 19:53:12.5810,-0.29,-0.19,0.39
2020-08-12 19:53:12.6800,-1.05,0.33,0.06
2020-08-12 19:53:12.7800,-0.32,-0.23,-0.11
2020-08-12 19:53:12.8790,0.4,-0.36,-0.06
2020-08-12 19:53:12.9780,0.99,-0.24,0.09
2020-08-12 19:53:13.0770,0.94,-0.27,-0.15
2020-08-12 19:53:13.1770,1.63,-0.32,-0.11
2020-08-12 19:53:13.2760,0.01,0.03,-0.2
2020-08-12 19:53:13.3750,-0.05,0.02,0.03
2020-08-12 19:53:13.4740,-0.01,-0.01,-0.01
2020-08-12 19:53:13.5740,0.06,-0.01,-0.04
2020-08-12 19:53:13.6730,-0.03,0.02,0.03
2020-08-12 19:53:13.7720,0.02,-0.01,-0.01
2020-08-12 19:53:13.8710,0.01,-0.01,0.01
2020-08-12 19:53:13.9710,-0.03,-0.01,0.02
2020-08-12 19:53:14.0700,-0.03,0.01,0.02
2020-08-12 19:53:14.1690,-0.01,-0.03,0.0
2020-08-12 19:53:14.2680,-0.05,-0.03,-0.01
2020-08-12 19:53:14.3680,0.05,0.06,0.03
2020-08-12 19:53:14.4670,-0.56,-0.63,0.04
2020-08-12 19:53:14.5660,-0.07,-0.33,0.33
2020-08-12 19:53:14.6650,-0.97,0.16,-0.06
2020-08-12 19:53:14.7650,-0.13,-0.43,-0.2
2020-08-12 19:53:14.8640,0.53,-0.42,0.12
2020-08-12 19:53:14.9630,1.24,-0.11,0.21
2020-08-12 19:53:15.0630,-1.85,-0.13,0.0
2020-08-12 19:53:15.1620,0.01,0.06,0.13
2020-08-12 19:53:15.2610,-0.17,0.03,-0.01
2020-08-12 19:53:15.3600,-0.12,-0.01,-0.01
2020-08-12 19:53:15.4600,0.04,0.0,-0.0
2020-08-12 19:53:15.5590,0.01,0.0,-0.02
2020-08-12 19:53:15.6580,0.01,0.0,0.0
2020-08-12 19:53:15.7570,-0.01,0.01,0.03
2020-08-12 19:53:15.8570,-0.02,0.0,0.01
2020-08-12 19:53:15.9560,0.01,-0.0,0.01
2020-08-12 19:53:16.0550,0.01,0.0,-0.02
2020-08-12 19:53:16.1550,-0.05,0.0,0.02
2020-08-12 19:53:16.2530,0.0,0.01,-0.01
2020-08-12 19:53:16.3530,-0.12,-0.07,-0.01
2020-08-12 19:53:16.4520,-0.26,-0.77,0.15
2020-08-12 19:53:16.5510,-1.04,0.4,-0.04
2020-08-12 19:53:16.6510,-0.54,-0.05,-0.1
2020-08-12 19:53:16.7500,0.25,-0.36,-0.12
2020-08-12 19:53:16.8490,0.58,-0.18,-0.01
2020-08-12 19:53:16.9490,0.96,-0.03,-0.0
2020-08-12 19:53:17.0480,-1.61,-0.19,-0.16
2020-08-12 19:53:17.1470,0.09,-0.1,0.34
2020-08-12 19:53:17.2460,-0.06,0.01,-0.02
2020-08-12 19:53:17.3450,0.02,-0.01,0.04
2020-08-12 19:53:17.4450,-0.1,0.05,0.05
2020-08-12 19:53:17.5440,-0.03,0.0,0.04
2020-08-12 19:53:17.6430,-0.02,0.01,0.0
2020-08-12 19:53:17.7420,-0.01,0.0,-0.03
2020-08-12 19:53:17.8420,-0.04,-0.0,0.02
2020-08-12 19:53:17.9410,0.03,0.02,-0.0
2020-08-12 19:53:18.0400,-0.03,0.01,-0.04
2020-08-12 19:53:18.1390,-0.17,-0.08,0.02
2020-08-12 19:53:18.2390,-0.07,-0.64,0.25
2020-08-12 19:53:18.3380,-0.73,0.21,0.09
2020-08-12 19:53:18.4370,-0.7,-0.05,-0.12
2020-08-12 19:53:18.5360,0.01,-0.28,-0.01
2020-08-12 19:53:18.6360,0.25,-0.15,0.13
2020-08-12 19:53:18.7350,0.79,-0.1,0.12
2020-08-12 19:53:18.8340,0.98,0.0,-0.06
2020-08-12 19:53:18.9330,0.77,-0.36,-0.37
2020-08-12 19:53:19.0330,0.08,-0.02,0.05
2020-08-12 19:53:19.1320,-0.03,-0.02,0.04
2020-08-12 19:53:19.2310,0.03,-0.03,-0.1
2020-08-12 19:53:19.3310,0.05,-0.01,-0.01
2020-08-12 19:53:19.4300,-0.0,0.01,-0.0
2020-08-12 19:53:19.5290,0.01,-0.01,0.0
2020-08-12 19:53:19.6280,0.02,0.0,0.02
2020-08-12 19:53:19.7270,0.01,0.0,0.01
2020-08-12 19:53:19.8270,-0.01,-0.0,0.01
2020-08-12 19:53:19.9260,0.01,0.02,-0.0
2020-08-12 19:53:20.0250,-0.12,0.02,0.05
2020-08-12 19:53:20.1240,-0.24,-0.8,0.19
2020-08-12 19:53:20.2240,-0.93,0.28,0.09
2020-08-12 19:53:20.3230,-0.78,0.12,-0.16
2020-08-12 19:53:20.4220,0.08,-0.38,-0.13
2020-08-12 19:53:20.5210,0.33,-0.23,0.03
2020-08-12 19:53:20.6210,0.98,-0.11,0.11
2020-08-12 19:53:20.7200,-0.02,-0.51,0.04
2020-08-12 19:53:20.8190,1.15,-0.56,-0.04
2020-08-12 19:53:20.9180,-0.06,0.06,-0.08
2020-08-12 19:53:21.0180,0.0,-0.03,0.09
2020-08-12 19:53:21.1170,0.09,0.0,-0.0
2020-08-12 19:53:21.2160,-0.02,0.01,0.03
2020-08-12 19:53:21.3160,0.04,-0.01,-0.05
2020-08-12 19:53:21.4150,-0.03,0.02,0.03
2020-08-12 19:53:21.5140,0.02,0.01,0.03
2020-08-12 19:53:21.6130,-0.0,0.05,0.03
2020-08-12 19:53:21.7130,-0.05,-0.0,0.02
2020-08-12 19:53:21.8120,-0.06,0.03,0.03
2020-08-12 19:53:21.9110,0.01,-0.06,0.01
2020-08-12 19:53:22.0100,-0.25,-0.03,0.1
2020-08-12 19:53:22.1100,-0.5,-0.43,0.15
2020-08-12 19:53:22.2090,-1.0,0.16,0.32
2020-08-12 19:53:22.3080,-0.55,0.04,0.0
2020-08-12 19:53:22.4070,0.03,-0.25,-0.05
2020-08-12 19:53:22.5070,0.23,-0.18,0.04
2020-08-12 19:53:22.6060,0.8,-0.05,0.02
2020-08-12 19:53:22.7050,1.06,-0.04,0.14
2020-08-12 19:53:22.8040,0.95,-0.2,-0.61
2020-08-12 19:53:22.9040,-0.07,0.01,0.03
2020-08-12 19:53:23.0030,-0.14,0.07,0.08
2020-08-12 19:53:23.1020,0.02,-0.04,-0.08
2020-08-12 19:53:23.2010,0.03,0.02,0.05
2020-08-12 19:53:23.3010,-0.04,0.02,0.02
2020-08-12 19:53:23.4000,-0.01,0.03,0.04
2020-08-12 19:53:23.4990,-0.07,0.02,0.02
2020-08-12 19:53:23.5980,0.02,-0.03,-0.06
2020-08-12 19:53:23.6980,0.0,-0.02,-0.01
2020-08-12 19:53:23.7970,-0.0,-0.0,-0.02
2020-08-12 19:53:23.8960,-0.11,-0.09,0.07
2020-08-12 19:53:23.9950,-0.23,-0.43,-0.08
2020-08-12 19:53:24.0950,-0.53,-0.05,0.38
2020-08-12 19:53:24.1940,-0.81,0.03,-0.02
2020-08-12 19:53:24.2930,0.0,-0.31,-0.1
2020-08-12 19:53:24.3920,0.34,-0.2,-0.09
2020-08-12 19:53:24.4920,0.84,-0.07,0.05
2020-08-12 19:53:24.5910,0.91,-0.1,0.1
2020-08-12 19:53:24.6900,0.67,-0.16,-0.46
2020-08-12 19:53:24.7900,0.3,-0.12,0.03
2020-08-12 19:53:24.8880,-0.04,0.02,0.03
2020-08-12 19:53:24.9880,0.01,0.01,-0.01
2020-08-12 19:53:25.0870,0.03,-0.01,0.02
2020-08-12 19:53:25.1860,-0.03,0.01,-0.02
2020-08-12 19:53:25.2860,-0.03,0.01,-0.01
2020-08-12 19:53:25.3850,-0.03,0.02,0.04
2020-08-12 19:53:25.4840,-0.03,-0.03,0.01
2020-08-12 19:53:25.5830,0.02,-0.0,0.05
2020-08-12 19:53:25.6830,0.02,-0.01,0.03
2020-08-12 19:53:25.7820,-0.12,-0.13,-0.02
2020-08-12 19:53:25.8810,-0.65,-0.64,0.15
2020-08-12 19:53:25.9800,-1.16,0.43,0.1
2020-08-12 19:53:26.0800,-0.57,-0.19,-0.1
2020-08-12 19:53:26.1790,0.31,-0.36,-0.04
2020-08-12 19:53:26.2780,1.14,-0.14,0.09
2020-08-12 19:53:26.3770,1.15,-0.0,0.05
2020-08-12 19:53:26.4770,0.65,-0.04,-0.53
2020-08-12 19:53:26.5760,0.14,-0.03,0.01
2020-08-12 19:53:26.6750,0.05,0.01,-0.01
2020-08-12 19:53:26.7740,0.1,-0.03,-0.1
2020-08-12 19:53:26.8740,0.0,-0.01,0.03
2020-08-12 19:53:26.9730,-0.07,0.06,0.0
2020-08-12 19:53:27.0720,0.03,-0.06,-0.08
2020-08-12 19:53:27.1710,0.03,-0.01,-0.03
2020-08-12 19:53:27.2710,0.04,0.02,-0.0
2020-08-12 19:53:27.3700,0.01,0.02,-0.04
2020-08-12 19:53:27.4690,0.0,-0.0,-0.01
2020-08-12 19:53:27.5680,0.05,-0.08,0.05
2020-08-12 19:53:27.6680,-0.35,-0.05,0.0
2020-08-12 19:53:27.7670,-0.36,-0.28,0.32
2020-08-12 19:53:27.8660,-1.08,0.34,0.14
2020-08-12 19:53:27.9660,-0.43,-0.18,-0.19
2020-08-12 19:53:28.0650,0.29,-0.27,-0.08
2020-08-12 19:53:28.1640,0.69,-0.16,0.02
2020-08-12 19:53:28.2630,0.85,-0.01,0.09
2020-08-12 19:53:28.3630,-0.65,-0.94,0.74
2020-08-12 19:53:28.4620,0.17,-0.22,0.23
2020-08-12 19:53:28.5610,-0.1,0.09,0.03
2020-08-12 19:53:28.6600,-0.11,0.02,-0.01
2020-08-12 19:53:28.7600,0.01,0.01,0.03
2020-08-12 19:53:28.8590,-0.01,0.02,0.0
2020-08-12 19:53:28.9580,0.01,-0.06,-0.03
2020-08-12 19:53:29.0570,-0.05,0.01,0.05
2020-08-12 19:53:29.1560,-0.04,-0.0,0.04
2020-08-12 19:53:29.2560,-0.03,0.01,-0.04
2020-08-12 19:53:29.3550,-0.03,0.01,-0.02
2020-08-12 19:53:29.4540,-0.21,-0.1,-0.04
2020-08-12 19:53:29.5540,-0.71,-0.67,0.21
2020-08-12 19:53:29.6530,-1.1,0.27,0.17
2020-08-12 19:53:29.7520,-0.58,-0.03,-0.04
2020-08-12 19:53:29.8510,0.13,-0.26,0.01
2020-08-12 19:53:29.9510,0.73,-0.05,0.06
2020-08-12 19:53:30.0500,0.98,-0.05,0.03
2020-08-12 19:53:30.1490,-2.16,-0.21,-0.47
2020-08-12 19:53:30.2480,0.56,-0.38,0.3
2020-08-12 19:53:30.3480,0.11,0.03,0.02
2020-08-12 19:53:30.4470,0.01,0.0,-0.01
2020-08-12 19:53:30.5460,0.0,0.01,0.01
2020-08-12 19:53:30.6450,-0.0,-0.0,0.02
2020-08-12 19:53:30.7450,0.01,0.01,0.0
2020-08-12 19:53:30.8440,-0.04,0.01,-0.01
2020-08-12 19:53:30.9430,0.03,-0.02,-0.02
2020-08-12 19:53:31.0420,0.02,-0.03,-0.07
2020-08-12 19:53:31.1420,-0.02,-0.01,-0.01
2020-08-12 19:53:31.2410,-0.04,0.01,0.04
2020-08-12 19:53:31.3400,-0.35,-0.31,0.09
2020-08-12 19:53:31.4390,-0.24,-0.22,0.38
2020-08-12 19:53:31.5390,-0.95,0.19,0.07
2020-08-12 19:53:31.6380,-0.3,-0.32,-0.13
2020-08-12 19:53:31.7370,0.29,-0.24,-0.09
2020-08-12 19:53:31.8360,0.61,-0.05,0.06
2020-08-12 19:53:31.9360,0.75,-0.13,-0.02
2020-08-12 19:53:32.0350,0.39,-0.26,-0.41
2020-08-12 19:53:32.1340,0.46,-0.12,0.29
2020-08-12 19:53:32.2330,-0.02,0.02,-0.05
2020-08-12 19:53:32.3330,-0.03,0.0,0.01
2020-08-12 19:53:32.4320,0.03,0.0,-0.02
2020-08-12 19:53:32.5310,0.0,-0.0,-0.01
2020-08-12 19:53:32.6310,-0.02,0.01,-0.0
2020-08-12 19:53:32.7300,0.05,-0.01,-0.06
2020-08-12 19:53:32.8290,0.05,-0.02,0.02
2020-08-12 19:53:32.9280,0.0,0.01,-0.0
2020-08-12 19:53:33.0270,0.02,-0.02,-0.0
2020-08-12 19:53:33.1270,-0.44,-0.35,0.12
2020-08-12 19:53:33.2260,-0.12,-0.23,0.29
2020-08-12 19:53:33.3250,-1.01,0.29,0.19
2020-08-12 19:53:33.4240,-0.5,-0.2,-0.02
2020-08-12 19:53:33.5240,0.2,-0.33,-0.03
2020-08-12 19:53:33.6230,0.64,-0.14,0.04
2020-08-12 19:53:33.7220,0.94,-0.04,0.08
2020-08-12 19:53:33.8210,-0.29,-0.78,0.43
2020-08-12 19:53:33.9210,0.08,0.01,0.11
2020-08-12 19:53:34.0200,-0.03,0.03,0.03
2020-08-12 19:53:34.1190,-0.01,0.02,0.01
2020-08-12 19:53:34.2180,0.02,-0.01,-0.01
2020-08-12 19:53:34.3180,-0.01,0.01,0.02
2020-08-12 19:53:34.4170,-0.03,0.02,0.02
2020-08-12 19:53:34.5160,-0.02,-0.0,0.06
2020-08-12 19:53:34.6160,0.0,0.0,-0.04
2020-08-12 19:53:34.7150,-0.04,0.02,0.01
2020-08-12 19:53:34.8140,-0.04,-0.0,0.01
2020-08-12 19:53:34.9130,-0.2,-0.23,-0.0
2020-08-12 19:53:35.0130,-0.45,-0.47,0.18
2020-08-12 19:53:35.1120,-1.14,0.29,0.07
2020-08-12 19:53:35.2110,-0.55,0.02,-0.11
2020-08-12 19:53:35.3110,0.06,-0.28,-0.08
2020-08-12 19:53:35.4090,0.43,-0.18,0.02
2020-08-12 19:53:35.5090,0.65,-0.02,0.05
2020-08-12 19:53:35.6080,1.15,0.09,0.08
2020-08-12 19:53:35.7070,0.5,-0.53,-0.23
2020-08-12 19:53:35.8070,0.08,-0.05,-0.05
2020-08-12 19:53:35.9060,-0.04,0.0,0.08
2020-08-12 19:53:36.0050,0.0,-0.02,-0.02
2020-08-12 19:53:36.1040,0.01,0.0,-0.04
2020-08-12 19:53:36.2040,-0.02,0.01,-0.0
2020-08-12 19:53:36.3030,0.07,-0.02,-0.06
2020-08-12 19:53:36.4020,-0.03,0.01,0.01
2020-08-12 19:53:36.5000,-0.03,0.02,0.02
2020-08-12 19:53:36.6000,0.04,0.01,-0.0
2020-08-12 19:53:36.7000,-0.05,-0.01,0.03
2020-08-12 19:53:36.7990,-0.07,-0.15,0.03
2020-08-12 19:53:36.8980,-0.29,-0.18,-0.04
2020-08-12 19:53:36.9980,-0.0,-0.15,0.31
2020-08-12 19:53:37.0970,-0.78,0.19,0.14
2020-08-12 19:53:37.1960,-0.22,-0.19,-0.07
2020-08-12 19:53:37.2950,0.12,-0.23,-0.09
2020-08-12 19:53:37.3940,0.33,-0.05,-0.02
2020-08-12 19:53:37.4940,0.52,0.04,0.04
2020-08-12 19:53:37.5930,0.58,0.04,0.05
2020-08-12 19:53:37.6920,-1.25,-0.4,0.15
2020-08-12 19:53:37.7910,0.08,-0.15,0.27
2020-08-12 19:53:37.8910,-0.1,0.07,0.01
2020-08-12 19:53:37.9900,-0.03,-0.02,-0.02
2020-08-12 19:53:38.0890,-0.04,0.02,0.01
2020-08-12 19:53:38.1890,-0.01,0.02,0.02
2020-08-12 19:53:38.2880,-0.01,0.01,0.0
2020-08-12 19:53:38.3870,0.03,0.01,-0.0
2020-08-12 19:53:38.4860,-0.0,-0.01,-0.0
2020-08-12 19:53:38.5860,0.01,0.0,-0.01
2020-08-12 19:53:38.6850,0.01,0.01,-0.03
2020-08-12 19:53:38.7840,-0.16,-0.1,-0.0
2020-08-12 19:53:38.8820,-0.33,-0.5,-0.02
2020-08-12 19:53:38.9830,-0.7,-0.01,0.19
2020-08-12 19:53:39.0820,-0.74,0.07,-0.04
2020-08-12 19:53:39.1810,-0.15,-0.3,-0.08
2020-08-12 19:53:39.2800,0.44,-0.25,-0.03
2020-08-12 19:53:39.3800,0.84,-0.05,0.1
2020-08-12 19:53:39.4790,1.03,-0.15,-0.1
2020-08-12 19:53:39.5790,1.09,-0.41,-0.19
2020-08-12 19:53:39.6780,0.03,-0.04,-0.09
2020-08-12 19:53:39.7770,0.03,-0.01,0.01
2020-08-12 19:53:39.8760,0.05,0.01,-0.04
2020-08-12 19:53:39.9750,-0.01,0.01,-0.05
2020-08-12 19:53:40.0740,-0.01,-0.0,0.01
2020-08-12 19:53:40.1740,0.0,-0.02,-0.05
2020-08-12 19:53:40.2730,-0.15,-0.0,0.03
2020-08-12 19:53:40.3720,0.06,0.01,0.05
2020-08-12 19:53:40.4710,-0.1,-0.03,-0.03
2020-08-12 19:53:40.5710,-0.16,-0.4,0.2
2020-08-12 19:53:40.6700,-0.52,0.09,0.27
2020-08-12 19:53:40.7690,-0.73,0.1,-0.01
2020-08-12 19:53:40.8680,-0.19,-0.24,-0.07
2020-08-12 19:53:40.9680,0.17,-0.23,-0.06
2020-08-12 19:53:41.0670,0.47,-0.02,-0.02
2020-08-12 19:53:41.1660,0.6,0.02,0.02
2020-08-12 19:53:41.2660,0.05,-0.4,-0.07
2020-08-12 19:53:41.3650,0.47,-0.24,0.03
2020-08-12 19:53:41.4640,-0.15,0.0,-0.04
2020-08-12 19:53:41.5630,-0.04,0.01,-0.02
2020-08-12 19:53:41.6620,0.02,0.01,-0.03
2020-08-12 19:53:41.7620,0.05,-0.01,-0.09
2020-08-12 19:53:41.8610,0.05,0.02,0.0
2020-08-12 19:53:41.9600,-0.04,-0.01,0.03
2020-08-12 19:53:42.0600,-0.06,0.02,0.02
2020-08-12 19:53:42.1590,-0.05,0.01,0.01
2020-08-12 19:53:42.2580,-0.05,0.0,0.01
2020-08-12 19:53:42.3570,-0.07,-0.01,0.03
2020-08-12 19:53:42.4570,-0.23,-0.55,0.09
2020-08-12 19:53:42.5560,-0.29,-0.02,0.47
2020-08-12 19:53:42.6550,-1.0,0.32,0.01
2020-08-12 19:53:42.7540,-0.23,-0.3,-0.14
2020-08-12 19:53:42.8540,0.46,-0.28,0.09
2020-08-12 19:53:42.9530,0.72,-0.07,-0.01
2020-08-12 19:53:43.0520,0.76,-0.03,0.0
2020-08-12 19:53:43.1510,0.12,-0.92,0.48
2020-08-12 19:53:43.2510,0.43,-0.2,0.14
2020-08-12 19:53:43.3500,0.01,0.02,0.02
2020-08-12 19:53:43.4490,-0.01,-0.02,0.0
2020-08-12 19:53:43.5480,-0.0,-0.0,0.01
2020-08-12 19:53:43.6480,0.0,0.01,0.03
2020-08-12 19:53:43.7470,0.03,0.01,-0.02
2020-08-12 19:53:43.8460,0.03,0.01,-0.05
2020-08-12 19:53:43.9450,-0.09,0.0,0.02
2020-08-12 19:53:44.0450,0.01,-0.03,-0.01
2020-08-12 19:53:44.1440,0.01,-0.06,-0.01
2020-08-12 19:53:44.2430,-0.67,-0.66,0.18
2020-08-12 19:53:44.3420,-0.71,-0.15,0.33
2020-08-12 19:53:44.4420,-0.73,0.17,0.02
2020-08-12 19:53:44.5410,-0.11,-0.4,0.01
2020-08-12 19:53:44.6410,0.48,-0.12,0.02
2020-08-12 19:53:44.7390,0.62,-0.11,0.03
2020-08-12 19:53:44.8390,1.08,0.05,0.17
2020-08-12 19:53:44.9380,0.58,-0.16,-0.38
2020-08-12 19:53:45.0370,0.32,-0.07,-0.02
2020-08-12 19:53:45.1360,0.03,0.0,0.1
2020-08-12 19:53:45.2360,0.02,-0.0,-0.04
2020-08-12 19:53:45.3350,0.1,0.01,-0.06
2020-08-12 19:53:45.4340,0.08,0.0,-0.01
2020-08-12 19:53:45.5330,-0.02,-0.05,-0.01
2020-08-12 19:53:45.6330,-0.11,0.01,0.06
2020-08-12 19:53:45.7320,-0.02,0.03,-0.0
2020-08-12 19:53:45.8310,0.06,-0.01,-0.17
2020-08-12 19:53:45.9300,-0.18,-0.44,0.3
2020-08-12 19:53:46.0300,-0.79,0.1,0.11
2020-08-12 19:53:46.1290,-0.77,0.04,-0.05
2020-08-12 19:53:46.2280,-0.08,-0.29,-0.03
2020-08-12 19:53:46.3270,0.26,-0.17,-0.03
2020-08-12 19:53:46.4270,0.61,-0.09,0.03
2020-08-12 19:53:46.5260,0.85,0.01,0.07
2020-08-12 19:53:46.6250,0.24,-0.65,0.12
2020-08-12 19:53:46.7250,0.37,-0.11,0.26
2020-08-12 19:53:46.8240,0.1,-0.05,-0.09
2020-08-12 19:53:46.9230,-0.03,-0.02,0.04
2020-08-12 19:53:47.0220,-0.0,0.05,0.11
2020-08-12 19:53:47.1210,0.13,-0.11,-0.15
2020-08-12 19:53:47.2210,-0.03,-0.04,0.0
2020-08-12 19:53:47.3200,-0.04,0.02,0.03
2020-08-12 19:53:47.4190,-0.04,-0.02,0.02
2020-08-12 19:53:47.5190,-0.04,-0.0,-0.0
2020-08-12 19:53:47.6180,-0.05,0.0,0.01
2020-08-12 19:53:47.7170,-0.16,-0.06,-0.08
2020-08-12 19:53:47.8160,-0.4,-0.31,0.56
2020-08-12 19:53:47.9160,-1.0,0.25,0.06
2020-08-12 19:53:48.0150,-0.28,-0.31,-0.13
2020-08-12 19:53:48.1130,0.36,-0.3,-0.08
2020-08-12 19:53:48.2130,0.5,-0.11,0.02
2020-08-12 19:53:48.3120,0.78,0.01,0.07
2020-08-12 19:53:48.4120,-1.5,-0.38,0.0
2020-08-12 19:53:48.5110,-0.02,0.04,0.02
2020-08-12 19:53:48.6100,-0.11,-0.02,-0.05
2020-08-12 19:53:48.7100,0.03,0.0,-0.03
2020-08-12 19:53:48.8090,0.02,-0.01,-0.02
2020-08-12 19:53:48.9080,0.04,0.02,0.02
2020-08-12 19:53:49.0070,-0.03,0.01,0.05
2020-08-12 19:53:49.1070,-0.03,0.02,0.03
2020-08-12 19:53:49.2060,-0.02,0.01,0.02
2020-08-12 19:53:49.3050,-0.05,0.0,0.01
2020-08-12 19:53:49.4040,-0.01,0.01,-0.03
2020-08-12 19:53:49.5040,-0.04,-0.01,-0.02
2020-08-12 19:53:49.6030,-0.37,-0.44,0.02
2020-08-12 19:53:49.7020,-0.18,-0.09,0.45
2020-08-12 19:53:49.8010,-0.89,0.18,0.02
2020-08-12 19:53:49.9010,-0.14,-0.37,-0.07
2020-08-12 19:53:50.0000,0.3,-0.23,-0.06
2020-08-12 19:53:50.0990,0.65,-0.11,0.07
2020-08-12 19:53:50.1980,0.77,-0.02,0.09
2020-08-12 19:53:50.2980,-0.6,-0.83,0.43
2020-08-12 19:53:50.3970,0.57,-0.4,0.38
2020-08-12 19:53:50.4960,0.15,0.03,0.01
2020-08-12 19:53:50.5950,0.06,-0.02,-0.03
2020-08-12 19:53:50.6940,-0.04,0.01,0.06
2020-08-12 19:53:50.7940,0.02,0.02,-0.03
2020-08-12 19:53:50.8930,0.0,-0.03,-0.0
2020-08-12 19:53:50.9920,-0.01,0.02,-0.02
2020-08-12 19:53:51.0920,-0.07,-0.0,0.05
2020-08-12 19:53:51.1910,-0.04,-0.01,-0.0
2020-08-12 19:53:51.2900,-0.04,-0.01,0.0
2020-08-12 19:53:51.3900,-0.58,-0.63,0.18
2020-08-12 19:53:51.4890,-0.67,0.06,0.21
2020-08-12 19:53:51.5880,-0.71,0.01,0.05
2020-08-12 19:53:51.6870,-0.01,-0.38,-0.02
2020-08-12 19:53:51.7860,0.48,-0.29,-0.03
2020-08-12 19:53:51.8860,0.73,-0.08,0.05
2020-08-12 19:53:51.9850,0.99,-0.07,-0.01
2020-08-12 19:53:52.0840,0.79,-0.15,-0.37
2020-08-12 19:53:52.1830,0.03,-0.06,-0.13
2020-08-12 19:53:52.2830,-0.04,0.02,0.07
2020-08-12 19:53:52.3820,-0.1,0.02,-0.01
2020-08-12 19:53:52.4810,-0.04,-0.0,-0.02
2020-08-12 19:53:52.5800,-0.0,0.01,-0.01
2020-08-12 19:53:52.6800,0.03,-0.01,-0.04
2020-08-12 19:53:52.7790,-0.03,0.0,-0.01
2020-08-12 19:53:52.8780,-0.05,0.01,0.01
2020-08-12 19:53:52.9770,-0.07,-0.01,0.01
2020-08-12 19:53:53.0770,-0.04,-0.06,-0.0
2020-08-12 19:53:53.1740,-0.62,-0.62,0.13
2020-08-12 19:53:53.2750,-0.52,-0.03,0.51
2020-08-12 19:53:53.3740,-0.77,0.13,-0.03
2020-08-12 19:53:53.4740,-0.06,-0.37,-0.09
2020-08-12 19:53:53.5730,0.36,-0.21,-0.01
2020-08-12 19:53:53.6720,0.6,-0.07,0.04
2020-08-12 19:53:53.7710,1.06,-0.11,0.32
2020-08-12 19:53:53.8710,0.53,-0.28,-0.18
2020-08-12 19:53:53.9700,-0.05,-0.0,-0.08
2020-08-12 19:53:54.0690,0.02,-0.01,0.02
2020-08-12 19:53:54.1690,0.04,0.0,0.0
2020-08-12 19:53:54.2680,0.0,0.0,0.01
2020-08-12 19:53:54.3670,0.03,-0.02,-0.01
2020-08-12 19:53:54.4660,-0.02,-0.01,0.03
2020-08-12 19:53:54.5650,-0.04,-0.02,0.01
2020-08-12 19:53:54.6650,0.01,-0.01,-0.01
2020-08-12 19:53:54.7640,-0.03,-0.0,0.01
2020-08-12 19:53:54.8630,-0.25,-0.38,-0.01
2020-08-12 19:53:54.9620,-0.34,-0.14,0.47
2020-08-12 19:53:55.0620,-1.09,0.3,0.18
2020-08-12 19:53:55.1610,-0.22,-0.31,-0.12
2020-08-12 19:53:55.2600,0.29,-0.32,0.01
2020-08-12 19:53:55.3600,0.75,-0.15,0.08
2020-08-12 19:53:55.4590,0.87,0.02,0.05
2020-08-12 19:53:55.5580,-0.24,-1.06,0.59
2020-08-12 19:53:55.6570,0.37,-0.26,0.17
2020-08-12 19:53:55.7560,0.08,0.02,-0.02
2020-08-12 19:53:55.8560,0.05,-0.02,0.0
2020-08-12 19:53:55.9550,0.0,0.02,0.03
2020-08-12 19:53:56.0540,-0.04,-0.02,0.01
2020-08-12 19:53:56.1530,0.0,0.01,-0.02
2020-08-12 19:53:56.2530,-0.04,-0.01,0.0
2020-08-12 19:53:56.3520,-0.04,0.01,0.01
2020-08-12 19:53:56.4510,-0.01,-0.02,-0.0
2020-08-12 19:53:56.5510,-0.07,-0.0,0.02
2020-08-12 19:53:56.6500,-0.17,-0.15,-0.02
2020-08-12 19:53:56.7490,-0.43,-0.26,0.23
2020-08-12 19:53:56.8490,-1.06,0.38,0.15
2020-08-12 19:53:56.9480,-0.57,-0.14,-0.08
2020-08-12 19:53:57.0470,0.13,-0.37,-0.01
2020-08-12 19:53:57.1460,0.57,-0.19,0.07
2020-08-12 19:53:57.2450,0.77,0.01,0.11
2020-08-12 19:53:57.3450,-0.54,-0.49,0.13
2020-08-12 19:53:57.4440,0.13,-0.02,0.0
2020-08-12 19:53:57.5430,-0.11,0.01,-0.12
2020-08-12 19:53:57.6420,0.04,-0.01,0.01
2020-08-12 19:53:57.7420,-0.03,0.01,0.0
2020-08-12 19:53:57.8410,-0.04,0.01,-0.03
2020-08-12 19:53:57.9400,-0.03,-0.02,0.02
2020-08-12 19:53:58.0390,0.03,0.0,-0.01
2020-08-12 19:53:58.1390,0.06,0.01,-0.01
2020-08-12 19:53:58.2380,0.02,-0.0,-0.04
2020-08-12 19:53:58.3370,-0.02,0.01,0.03
2020-08-12 19:53:58.4360,-0.2,-0.04,-0.07
2020-08-12 19:53:58.5360,-0.26,-0.72,0.1
2020-08-12 19:53:58.6350,-1.15,0.31,0.18
2020-08-12 19:53:58.7340,-0.57,-0.06,-0.1
2020-08-12 19:53:58.8330,0.02,-0.3,0.01
2020-08-12 19:53:58.9330,0.44,-0.27,0.03
2020-08-12 19:53:59.0320,0.86,0.01,0.04
2020-08-12 19:53:59.1310,0.36,-0.39,0.35
2020-08-12 19:53:59.2300,0.25,0.0,-0.01
2020-08-12 19:53:59.3300,-0.03,-0.04,-0.03
2020-08-12 19:53:59.4290,0.02,0.01,-0.01
2020-08-12 19:53:59.5280,0.02,-0.01,0.01
2020-08-12 19:53:59.6270,-0.03,0.0,-0.04
2020-08-12 19:53:59.7270,0.03,-0.0,-0.0
2020-08-12 19:53:59.8260,-0.01,0.0,0.06
2020-08-12 19:53:59.9250,-0.06,0.02,-0.04
2020-08-12 19:54:00.0250,-0.03,0.01,0.01
2020-08-12 19:54:00.1240,-0.06,-0.0,0.03
2020-08-12 19:54:00.2230,-0.02,0.01,0.02
2020-08-12 19:54:00.3220,-0.23,-0.52,-0.01
2020-08-12 19:54:00.4210,-0.2,-0.05,0.56
2020-08-12 19:54:00.5210,-0.95,0.16,0.04
2020-08-12 19:54:00.6200,-0.14,-0.36,-0.08
2020-08-12 19:54:00.7190,0.46,-0.32,0.01
2020-08-12 19:54:00.8190,0.92,-0.13,0.03
2020-08-12 19:54:00.9180,0.96,-0.04,0.06
2020-08-12 19:54:01.0170,0.76,-0.14,-0.24
2020-08-12 19:54:01.1160,-0.17,0.07,-0.01
2020-08-12 19:54:01.2160,-0.04,0.02,0.01
2020-08-12 19:54:01.3150,-0.02,-0.0,-0.02
2020-08-12 19:54:01.4140,-0.0,0.01,-0.0
2020-08-12 19:54:01.5130,-0.01,-0.0,-0.03
2020-08-12 19:54:01.6120,0.02,-0.02,-0.05
2020-08-12 19:54:01.7120,0.04,-0.01,-0.01
2020-08-12 19:54:01.8110,0.02,0.02,0.01
2020-08-12 19:54:01.9100,-0.05,0.0,0.01
2020-08-12 19:54:02.0100,-0.07,0.01,0.02
2020-08-12 19:54:02.1090,-0.32,-0.29,0.14
2020-08-12 19:54:02.2080,-0.39,-0.34,0.46
2020-08-12 19:54:02.3070,-1.06,0.2,0.05
2020-08-12 19:54:02.4060,-0.39,-0.31,-0.12
2020-08-12 19:54:02.5060,0.36,-0.29,-0.01
2020-08-12 19:54:02.6050,1.05,-0.14,0.1
2020-08-12 19:54:02.7040,1.3,-0.07,0.22
2020-08-12 19:54:02.8040,0.81,-0.12,-0.31
2020-08-12 19:54:02.9030,-0.02,0.03,-0.04
2020-08-12 19:54:03.0020,-0.09,0.04,0.04
2020-08-12 19:54:03.1010,-0.03,0.01,0.02
2020-08-12 19:54:03.2000,0.04,-0.02,-0.01
2020-08-12 19:54:03.3000,0.02,0.01,0.03
2020-08-12 19:54:03.3990,-0.02,0.02,0.0
2020-08-12 19:54:03.4980,0.02,0.01,-0.03
2020-08-12 19:54:03.5980,0.05,-0.0,-0.03
2020-08-12 19:54:03.6970,-0.04,-0.02,-0.06
2020-08-12 19:54:03.7960,-0.03,-0.01,-0.02
2020-08-12 19:54:03.8950,-0.39,-0.43,0.26
2020-08-12 19:54:03.9950,-0.64,0.09,0.39
2020-08-12 19:54:04.0940,-0.77,0.15,0.01
2020-08-12 19:54:04.1930,-0.15,-0.3,-0.04
2020-08-12 19:54:04.2920,0.42,-0.19,-0.02
2020-08-12 19:54:04.3910,0.76,-0.1,-0.02
2020-08-12 19:54:04.4910,1.23,0.11,0.04
2020-08-12 19:54:04.5900,0.54,-0.08,-0.46
2020-08-12 19:54:04.6890,0.2,-0.04,-0.04
2020-08-12 19:54:04.7890,0.04,-0.02,0.02
2020-08-12 19:54:04.8880,0.03,-0.02,-0.07
2020-08-12 19:54:04.9870,0.03,-0.01,-0.05
2020-08-12 19:54:05.0860,-0.03,0.02,0.05
2020-08-12 19:54:05.1860,-0.01,0.02,0.01
2020-08-12 19:54:05.2850,0.01,0.01,0.0
2020-08-12 19:54:05.3840,-0.01,0.01,-0.02
2020-08-12 19:54:05.4830,-0.04,-0.0,0.02
2020-08-12 19:54:05.5830,-0.03,0.0,0.0
2020-08-12 19:54:05.6820,-0.05,-0.0,-0.01
2020-08-12 19:54:05.7810,-0.61,-0.78,-0.01
2020-08-12 19:54:05.8800,-0.46,0.05,0.59
2020-08-12 19:54:05.9800,-0.85,0.16,-0.09
2020-08-12 19:54:06.0790,0.07,-0.44,-0.08
2020-08-12 19:54:06.1780,0.6,-0.26,0.06
2020-08-12 19:54:06.2770,1.18,-0.09,0.03
2020-08-12 19:54:06.3770,-1.79,-0.09,-0.18
2020-08-12 19:54:06.4760,0.14,-0.04,0.27
2020-08-12 19:54:06.5750,-0.05,0.0,-0.13
2020-08-12 19:54:06.6750,-0.04,-0.0,-0.0
2020-08-12 19:54:06.7740,0.02,0.03,0.08
2020-08-12 19:54:06.8730,0.09,-0.07,-0.05
2020-08-12 19:54:06.9720,0.04,-0.01,-0.03
2020-08-12 19:54:07.0710,-0.02,0.01,0.02
2020-08-12 19:54:07.1710,-0.08,0.0,0.03
2020-08-12 19:54:07.2700,-0.04,-0.0,0.03
2020-08-12 19:54:07.3690,-0.01,-0.01,0.01
2020-08-12 19:54:07.4680,-0.08,-0.0,0.02
2020-08-12 19:54:07.5680,-0.22,-0.21,-0.03
2020-08-12 19:54:07.6670,-0.83,-0.5,0.07
2020-08-12 19:54:07.7660,-0.99,0.49,0.3
2020-08-12 19:54:07.8650,-0.5,-0.23,-0.07
2020-08-12 19:54:07.9650,0.28,-0.46,0.0
2020-08-12 19:54:08.0640,0.84,-0.17,-0.02
2020-08-12 19:54:08.1630,1.07,-0.03,-0.0
2020-08-12 19:54:08.2620,0.31,-0.33,-0.13
2020-08-12 19:54:08.3620,0.45,-0.26,0.26
2020-08-12 19:54:08.4610,0.0,0.01,0.02
2020-08-12 19:54:08.5600,0.0,-0.01,-0.03
2020-08-12 19:54:08.6590,-0.0,0.01,-0.0
2020-08-12 19:54:08.7590,0.05,-0.0,-0.04
2020-08-12 19:54:08.8580,0.01,0.0,-0.01
2020-08-12 19:54:08.9580,-0.04,0.01,-0.01
2020-08-12 19:54:09.0570,0.03,0.01,-0.02
2020-08-12 19:54:09.1560,0.01,-0.0,0.0
2020-08-12 19:54:09.2550,-0.01,0.0,-0.01
2020-08-12 19:54:09.3540,-0.02,0.0,-0.01
2020-08-12 19:54:09.4540,-0.32,-0.44,0.22
2020-08-12 19:54:09.5530,-0.35,0.1,0.33
2020-08-12 19:54:09.6520,-0.75,0.17,-0.01
2020-08-12 19:54:09.7510,-0.27,-0.2,-0.12
2020-08-12 19:54:09.8510,0.18,-0.22,-0.03
2020-08-12 19:54:09.9500,0.55,-0.09,-0.02
2020-08-12 19:54:10.0490,0.91,0.02,0.09
2020-08-12 19:54:10.1480,-0.44,-0.81,0.28
2020-08-12 19:54:10.2480,-0.02,-0.05,0.31
2020-08-12 19:54:10.3470,-0.01,0.0,-0.02
2020-08-12 19:54:10.4460,0.0,-0.03,-0.02
2020-08-12 19:54:10.5450,-0.02,0.02,0.03
2020-08-12 19:54:10.6450,-0.01,0.01,0.01
2020-08-12 19:54:10.7440,-0.0,-0.02,-0.04
2020-08-12 19:54:10.8430,0.05,-0.01,-0.01
2020-08-12 19:54:10.9420,0.01,-0.0,-0.0
2020-08-12 19:54:11.0420,0.0,-0.02,0.02
2020-08-12 19:54:11.1410,-0.04,-0.06,0.03
2020-08-12 19:54:11.2400,0.04,-0.04,-0.01
2020-08-12 19:54:11.3390,-0.06,0.07,0.01
2020-08-12 19:54:11.4390,-0.03,0.06,-0.01
2020-08-12 19:54:11.5380,0.07,-0.02,-0.04
2020-08-12 19:54:11.6370,-0.07,0.02,-0.04
2020-08-12 19:54:11.7360,0.06,-0.01,0.04
2020-08-12 19:54:11.8360,0.01,0.0,-0.04
2020-08-12 19:54:11.9350,-0.04,0.0,0.0
2020-08-12 19:54:12.0340,0.07,0.02,-0.03
2020-08-12 19:54:12.1330,0.01,0.02,-0.02
2020-08-12 19:54:12.2330,-0.01,-0.01,0.0
2020-08-12 19:54:12.3320,0.01,-0.01,-0.0
2020-08-12 19:54:12.4310,-0.0,0.0,0.01
2020-08-12 19:54:12.5300,-0.01,-0.01,0.01
2020-08-12 19:54:12.6300,0.0,-0.0,0.02
2020-08-12 19:54:12.7290,-0.02,-0.0,0.0
2020-08-12 19:54:12.8280,0.03,-0.01,-0.01
2020-08-12 19:54:12.9280,-0.02,0.01,0.01
2020-08-12 19:54:13.0280,0.0,-0.0,0.0
