time,ax,ay,az
2020-08-10 16:12:17.1500,0.04,0.01,-0.0
2020-08-10 16:12:17.2490,-0.02,0.01,0.0
2020-08-10 16:12:17.3490,0.01,0.01,0.01
2020-08-10 16:12:17.4480,-0.02,-0.01,0.03
2020-08-10 16:12:17.5470,-0.02,-0.01,-0.03
2020-08-10 16:12:17.6470,0.02,-0.0,-0.02
2020-08-10 16:12:17.7460,-0.02,0.03,0.04
2020-08-10 16:12:17.8450,-0.01,0.01,-0.03
2020-08-10 16:12:17.9440,-0.03,-0.01,-0.01
2020-08-10 16:12:18.0430,0.03,0.01,-0.03
2020-08-10 16:12:18.1430,-0.01,-0.02,-0.02
2020-08-10 16:12:18.2420,-0.07,0.0,0.03
2020-08-10 16:12:18.3410,-0.01,-0.01,0.02
2020-08-10 16:12:18.4400,-0.02,0.0,0.01
2020-08-10 16:12:18.5400,-0.0,0.01,0.02
2020-08-10 16:12:18.6390,-0.09,-0.03,-0.05
2020-08-10 16:12:18.7380,-0.02,-0.02,0.01
2020-08-10 16:12:18.8380,-0.07,0.03,0.06
2020-08-10 16:12:18.9370,0.06,0.0,-0.04
2020-08-10 16:12:19.0360,0.06,-0.01,-0.05
2020-08-10 16:12:19.1350,-0.0,-0.03,-0.01
2020-08-10 16:12:19.2350,0.02,-0.02,0.01
2020-08-10 16:12:19.3340,0.0,-0.01,-0.01
2020-08-10 16:12:19.4330,-0.01,-0.01,0.01
2020-08-10 16:12:19.5320,0.04,0.01,0.01
2020-08-10 16:12:19.6320,-0.02,-0.0,0.0
2020-08-10 16:12:19.7310,-0.04,0.02,-0.01
2020-08-10 16:12:19.8300,-0.05,0.02,0.03
2020-08-10 16:12:19.9300,0.03,-0.0,-0.03
2020-08-10 16:12:20.0290,-0.01,0.0,-0.0
2020-08-10 16:12:20.1280,0.0,0.01,0.0
2020-08-10 16:12:20.2270,0.0,0.01,-0.01
2020-08-10 16:12:20.3260,0.0,0.0,0.0
2020-08-10 16:12:20.4260,0.0,-0.0,-0.01
2020-08-10 16:12:20.5250,0.01,-0.0,-0.04
2020-08-10 16:12:20.6240,-0.01,0.02,0.02
2020-08-10 16:12:20.7230,-0.0,0.0,-0.0
2020-08-10 16:12:20.8230,0.02,-0.0,0.0
2020-08-10 16:12:20.9220,0.04,0.01,-0.02
2020-08-10 16:12:21.0210,-0.03,-0.0,0.01
2020-08-10 16:12:21.1210,-0.01,-0.0,0.02
2020-08-10 16:12:21.2200,-0.0,0.02,0.02
2020-08-10 16:12:21.3190,0.01,-0.02,-0.01
2020-08-10 16:12:21.4180,0.07,-0.04,-0.02
2020-08-10 16:12:21.5180,-0.0,0.01,-0.02
2020-08-10 16:12:21.6170,-0.0,-0.0,0.01
2020-08-10 16:12:21.7160,-0.01,-0.01,-0.06
2020-08-10 16:12:21.8160,-0.06,0.05,-0.04
2020-08-10 16:12:21.9150,-0.07,-0.03,-0.03
2020-08-10 16:12:22.0140,0.07,0.06,-0.04
2020-08-10 16:12:22.1130,-0.0,-0.0,-0.02
2020-08-10 16:12:22.2130,-0.06,-0.01,0.04
2020-08-10 16:12:22.3120,-0.04,0.01,-0.03
2020-08-10 16:12:22.4110,-0.06,0.01,0.02
2020-08-10 16:12:22.5100,-0.04,-0.02,0.08
2020-08-10 16:12:22.6100,0.0,-0.01,0.01
2020-08-10 16:12:22.7090,0.01,0.02,-0.05
2020-08-10 16:12:22.8080,-0.16,-0.07,0.24
2020-08-10 16:12:22.9070,-0.07,-0.29,0.37
2020-08-10 16:12:23.0070,-0.83,0.21,-0.06
2020-08-10 16:12:23.1060,-0.45,-0.01,-0.33
2020-08-10 16:12:23.2050,0.18,-0.29,-0.15
2020-08-10 16:12:23.3040,0.54,-0.09,0.07
2020-08-10 16:12:23.4040,0.68,0.06,0.05
2020-08-10 16:12:23.5030,0.75,-0.41,-0.33
2020-08-10 16:12:23.6020,0.11,-0.1,0.17
2020-08-10 16:12:23.7020,-0.07,0.01,-0.03
2020-08-10 16:12:23.8010,-0.01,-0.03,-0.02
2020-08-10 16:12:23.9000,-0.05,0.01,0.05
2020-08-10 16:12:23.9990,-0.06,0.03,0.01
2020-08-10 16:12:24.0990,-0.06,-0.0,-0.03
2020-08-10 16:12:24.1980,-0.08,-0.09,-0.04
2020-08-10 16:12:24.2970,-0.18,-0.3,-0.03
2020-08-10 16:12:24.3960,-0.58,-0.7,0.0
2020-08-10 16:12:24.4960,-0.4,-0.28,0.21
2020-08-10 16:12:24.5950,-1.12,0.38,0.2
2020-08-10 16:12:24.6940,-0.59,0.05,-0.06
2020-08-10 16:12:24.7930,0.27,-0.49,-0.04
2020-08-10 16:12:24.8930,0.7,-0.49,0.02
2020-08-10 16:12:24.9920,1.33,-0.06,0.1
2020-08-10 16:12:25.0910,-1.01,-0.54,-0.59
2020-08-10 16:12:25.1900,0.3,-0.28,-0.16
2020-08-10 16:12:25.2900,0.06,-0.03,-0.11
2020-08-10 16:12:25.3890,-0.09,0.03,0.03
2020-08-10 16:12:25.4880,-0.07,0.04,0.03
2020-08-10 16:12:25.5870,0.02,-0.01,-0.04
2020-08-10 16:12:25.6890,0.0,0.0,-0.04
2020-08-10 16:12:25.7860,-0.06,-0.03,0.01
2020-08-10 16:12:25.8850,-0.04,-0.16,-0.07
2020-08-10 16:12:25.9850,-0.42,-0.48,0.02
2020-08-10 16:12:26.0840,-0.56,-0.66,0.43
2020-08-10 16:12:26.1830,-0.44,0.04,0.25
2020-08-10 16:12:26.2830,-0.45,0.22,-0.14
2020-08-10 16:12:26.3820,-0.09,-0.31,-0.04
2020-08-10 16:12:26.4810,0.32,-0.38,-0.03
2020-08-10 16:12:26.5800,0.82,-0.28,0.07
2020-08-10 16:12:26.6790,1.11,0.07,0.17
2020-08-10 16:12:26.7790,-1.28,0.03,0.64
2020-08-10 16:12:26.8780,0.25,-0.11,0.28
2020-08-10 16:12:26.9770,-0.12,0.0,-0.02
2020-08-10 16:12:27.0760,-0.07,0.02,0.01
2020-08-10 16:12:27.1760,-0.07,0.04,0.04
2020-08-10 16:12:27.2750,-0.02,0.01,-0.02
2020-08-10 16:12:27.3740,-0.03,0.01,-0.11
2020-08-10 16:12:27.4740,-0.03,-0.11,-0.04
2020-08-10 16:12:27.5730,-0.14,-0.31,-0.07
2020-08-10 16:12:27.6720,-0.73,-0.64,0.06
2020-08-10 16:12:27.7710,-0.33,-0.19,0.11
2020-08-10 16:12:27.8710,-0.85,0.28,0.12
2020-08-10 16:12:27.9700,-0.25,-0.21,-0.23
2020-08-10 16:12:28.0690,0.43,-0.45,-0.1
2020-08-10 16:12:28.1690,0.76,-0.44,0.04
2020-08-10 16:12:28.2680,1.28,-0.02,0.26
2020-08-10 16:12:28.3670,-1.09,-0.09,0.37
2020-08-10 16:12:28.4660,0.17,-0.07,0.28
2020-08-10 16:12:28.5660,-0.06,-0.02,-0.05
2020-08-10 16:12:28.6650,-0.04,0.01,0.02
2020-08-10 16:12:28.7640,-0.07,0.05,0.04
2020-08-10 16:12:28.8630,0.15,-0.11,-0.14
2020-08-10 16:12:28.9630,0.03,-0.01,-0.09
2020-08-10 16:12:29.0620,-0.0,-0.12,-0.03
2020-08-10 16:12:29.1610,-0.16,-0.23,0.0
2020-08-10 16:12:29.2600,-0.44,-0.77,-0.13
2020-08-10 16:12:29.3600,-0.47,-0.31,0.34
2020-08-10 16:12:29.4590,-1.12,0.36,0.13
2020-08-10 16:12:29.5580,-0.63,0.06,-0.04
2020-08-10 16:12:29.6570,0.25,-0.49,-0.02
2020-08-10 16:12:29.7570,0.58,-0.33,-0.04
2020-08-10 16:12:29.8560,1.04,-0.11,0.09
2020-08-10 16:12:29.9550,0.96,-0.19,0.15
2020-08-10 16:12:30.0550,0.57,-0.26,-0.0
2020-08-10 16:12:30.1540,0.08,-0.03,-0.06
2020-08-10 16:12:30.2530,-0.0,0.01,-0.07
2020-08-10 16:12:30.3520,-0.02,-0.0,-0.02
2020-08-10 16:12:30.4520,0.02,-0.01,-0.04
2020-08-10 16:12:30.5510,-0.06,0.01,-0.02
2020-08-10 16:12:30.6500,-0.09,-0.05,0.02
2020-08-10 16:12:30.7490,-0.29,-0.29,0.01
2020-08-10 16:12:30.8490,-0.66,-0.75,0.16
2020-08-10 16:12:30.9480,-0.31,0.01,0.16
2020-08-10 16:12:31.0470,-0.69,0.33,0.01
2020-08-10 16:12:31.1460,-0.44,-0.05,-0.18
2020-08-10 16:12:31.2460,0.33,-0.38,-0.15
2020-08-10 16:12:31.3450,0.49,-0.26,-0.07
2020-08-10 16:12:31.4440,0.91,-0.1,0.12
2020-08-10 16:12:31.5430,0.59,-0.41,0.23
2020-08-10 16:12:31.6430,0.37,-0.18,-0.3
2020-08-10 16:12:31.7420,0.17,-0.02,-0.11
2020-08-10 16:12:31.8410,0.01,-0.01,-0.01
2020-08-10 16:12:31.9400,-0.01,0.01,-0.03
2020-08-10 16:12:32.0400,0.03,-0.03,-0.06
2020-08-10 16:12:32.1390,-0.06,-0.0,-0.05
2020-08-10 16:12:32.2380,-0.07,-0.02,-0.0
2020-08-10 16:12:32.3380,0.03,-0.1,-0.07
2020-08-10 16:12:32.4370,-0.17,-0.4,-0.07
2020-08-10 16:12:32.5360,-0.72,-0.53,0.14
2020-08-10 16:12:32.6360,-0.22,-0.11,-0.02
2020-08-10 16:12:32.7350,-0.66,0.17,0.05
2020-08-10 16:12:32.8340,-0.35,-0.15,-0.18
2020-08-10 16:12:32.9330,0.34,-0.39,-0.06
2020-08-10 16:12:33.0320,0.68,-0.38,-0.01
2020-08-10 16:12:33.1320,1.1,-0.04,0.03
2020-08-10 16:12:33.2310,-0.21,-0.37,-0.22
2020-08-10 16:12:33.3300,0.19,-0.12,-0.1
2020-08-10 16:12:33.4290,0.1,-0.07,-0.14
2020-08-10 16:12:33.5290,0.13,0.01,-0.06
2020-08-10 16:12:33.6280,-0.01,-0.03,-0.06
2020-08-10 16:12:33.7270,0.0,-0.02,-0.03
2020-08-10 16:12:33.8270,-0.02,0.03,-0.03
2020-08-10 16:12:33.9260,-0.07,-0.01,-0.05
2020-08-10 16:12:34.0250,-0.07,-0.14,-0.04
2020-08-10 16:12:34.1240,-0.22,-0.43,-0.02
2020-08-10 16:12:34.2240,-0.59,-0.61,0.3
2020-08-10 16:12:34.3230,-0.23,-0.1,0.02
2020-08-10 16:12:34.4220,-0.54,0.17,-0.07
2020-08-10 16:12:34.5220,-0.12,-0.24,-0.21
2020-08-10 16:12:34.6210,0.4,-0.32,-0.03
2020-08-10 16:12:34.7200,0.74,-0.35,-0.04
2020-08-10 16:12:34.8190,1.2,-0.01,0.05
2020-08-10 16:12:34.9190,-0.3,0.08,0.42
2020-08-10 16:12:35.0180,0.32,-0.3,0.14
2020-08-10 16:12:35.1190,-0.04,0.0,-0.02
2020-08-10 16:12:35.2160,-0.09,0.02,0.02
2020-08-10 16:12:35.3150,-0.01,0.02,-0.02
2020-08-10 16:12:35.4150,-0.01,-0.05,-0.05
2020-08-10 16:12:35.5140,-0.07,0.01,-0.03
2020-08-10 16:12:35.6130,-0.09,-0.05,-0.02
2020-08-10 16:12:35.7130,-0.13,-0.14,-0.04
2020-08-10 16:12:35.8120,-0.5,-0.64,-0.03
2020-08-10 16:12:35.9110,-0.64,-0.41,0.28
2020-08-10 16:12:36.0100,-0.92,0.09,-0.01
2020-08-10 16:12:36.1100,-0.55,0.13,-0.11
2020-08-10 16:12:36.2090,0.12,-0.41,-0.06
2020-08-10 16:12:36.3080,0.29,-0.3,0.07
2020-08-10 16:12:36.4080,0.78,-0.18,0.08
2020-08-10 16:12:36.5070,1.14,0.02,0.14
2020-08-10 16:12:36.6060,0.48,-0.43,-0.49
2020-08-10 16:12:36.7050,0.4,-0.03,0.06
2020-08-10 16:12:36.8050,0.07,-0.03,-0.02
2020-08-10 16:12:36.9040,0.04,-0.0,-0.02
2020-08-10 16:12:37.0030,0.01,-0.0,-0.01
2020-08-10 16:12:37.1020,0.01,-0.0,-0.03
2020-08-10 16:12:37.2010,-0.04,0.02,-0.06
2020-08-10 16:12:37.3010,-0.07,-0.07,-0.05
2020-08-10 16:12:37.4000,-0.07,-0.2,-0.04
2020-08-10 16:12:37.4990,-0.34,-0.57,-0.04
2020-08-10 16:12:37.5990,-0.58,-0.35,0.38
2020-08-10 16:12:37.6980,-0.82,0.11,0.07
2020-08-10 16:12:37.7970,-0.58,0.15,-0.09
2020-08-10 16:12:37.8960,-0.0,-0.28,-0.17
2020-08-10 16:12:37.9960,0.39,-0.3,-0.02
2020-08-10 16:12:38.0950,0.75,-0.29,-0.06
2020-08-10 16:12:38.1940,1.16,0.0,0.21
2020-08-10 16:12:38.2940,0.14,-0.21,-0.21
2020-08-10 16:12:38.3930,0.37,-0.05,-0.0
2020-08-10 16:12:38.4920,0.07,-0.04,-0.02
2020-08-10 16:12:38.5910,-0.04,-0.01,0.03
2020-08-10 16:12:38.6910,-0.02,-0.02,-0.03
2020-08-10 16:12:38.7900,-0.05,0.02,-0.0
2020-08-10 16:12:38.8890,-0.02,0.02,-0.07
2020-08-10 16:12:38.9880,-0.07,-0.05,-0.04
2020-08-10 16:12:39.0880,-0.09,-0.19,-0.07
2020-08-10 16:12:39.1870,-0.42,-0.72,-0.12
2020-08-10 16:12:39.2860,-0.42,-0.39,0.26
2020-08-10 16:12:39.3850,-0.71,-0.05,-0.05
2020-08-10 16:12:39.4850,-0.52,0.12,0.04
2020-08-10 16:12:39.5840,0.03,-0.39,-0.11
2020-08-10 16:12:39.6830,0.38,-0.32,-0.07
2020-08-10 16:12:39.7820,0.82,-0.23,0.02
2020-08-10 16:12:39.8820,1.26,0.01,0.21
2020-08-10 16:12:39.9810,0.48,-0.38,-0.37
2020-08-10 16:12:40.0800,0.1,-0.07,0.16
2020-08-10 16:12:40.1800,0.04,-0.02,-0.06
2020-08-10 16:12:40.2790,-0.02,0.0,-0.04
2020-08-10 16:12:40.3780,-0.03,0.02,-0.02
2020-08-10 16:12:40.4770,-0.05,-0.01,-0.04
2020-08-10 16:12:40.5770,-0.09,-0.01,-0.03
2020-08-10 16:12:40.6760,-0.07,-0.05,-0.01
2020-08-10 16:12:40.7750,-0.14,-0.26,-0.07
2020-08-10 16:12:40.8740,-0.48,-0.8,-0.18
2020-08-10 16:12:40.9740,-0.05,-0.22,-0.08
2020-08-10 16:12:41.0730,-0.69,0.24,0.07
2020-08-10 16:12:41.1720,-0.49,0.03,-0.07
2020-08-10 16:12:41.2710,0.3,-0.46,-0.0
2020-08-10 16:12:41.3710,0.45,-0.27,0.03
2020-08-10 16:12:41.4700,0.77,-0.07,0.06
2020-08-10 16:12:41.5690,0.81,0.05,0.01
2020-08-10 16:12:41.6680,0.36,-0.49,-0.3
2020-08-10 16:12:41.7680,0.5,-0.23,-0.03
2020-08-10 16:12:41.8670,0.17,-0.04,-0.11
2020-08-10 16:12:41.9660,0.05,-0.05,-0.15
2020-08-10 16:12:42.0660,0.01,0.0,-0.0
2020-08-10 16:12:42.1650,-0.03,-0.0,-0.05
2020-08-10 16:12:42.2640,-0.04,0.0,-0.04
2020-08-10 16:12:42.3640,-0.07,-0.05,-0.04
2020-08-10 16:12:42.4630,-0.14,-0.19,-0.02
2020-08-10 16:12:42.5620,-0.39,-0.69,-0.1
2020-08-10 16:12:42.6610,-0.69,-0.2,0.32
2020-08-10 16:12:42.7610,-0.62,-0.08,-0.15
2020-08-10 16:12:42.8600,-0.53,0.06,-0.01
2020-08-10 16:12:42.9590,0.04,-0.46,-0.07
2020-08-10 16:12:43.0580,0.3,-0.32,0.04
2020-08-10 16:12:43.1580,0.68,-0.33,-0.07
2020-08-10 16:12:43.2570,1.2,-0.02,0.12
2020-08-10 16:12:43.3560,-0.13,-0.21,0.1
2020-08-10 16:12:43.4550,0.17,-0.03,0.14
2020-08-10 16:12:43.5540,0.04,-0.06,-0.05
2020-08-10 16:12:43.6540,0.01,-0.04,0.02
2020-08-10 16:12:43.7530,-0.01,-0.01,-0.05
2020-08-10 16:12:43.8520,-0.0,-0.0,-0.04
2020-08-10 16:12:43.9510,-0.0,-0.0,-0.07
2020-08-10 16:12:44.0510,-0.03,-0.03,-0.05
2020-08-10 16:12:44.1500,0.01,-0.08,-0.05
2020-08-10 16:12:44.2490,-0.11,-0.26,-0.05
2020-08-10 16:12:44.3480,-0.54,-0.58,0.01
2020-08-10 16:12:44.4480,-0.18,-0.22,0.04
2020-08-10 16:12:44.5470,-0.78,0.17,0.02
2020-08-10 16:12:44.6460,-0.45,-0.06,-0.18
2020-08-10 16:12:44.7460,0.2,-0.35,-0.05
2020-08-10 16:12:44.8450,0.49,-0.27,0.08
2020-08-10 16:12:44.9440,1.0,-0.08,0.04
2020-08-10 16:12:45.0440,1.09,-0.01,0.14
2020-08-10 16:12:45.1430,0.49,-0.24,-0.37
2020-08-10 16:12:45.2420,0.13,-0.05,-0.03
2020-08-10 16:12:45.3410,-0.03,0.01,-0.06
2020-08-10 16:12:45.4410,0.06,-0.03,-0.1
2020-08-10 16:12:45.5400,0.01,0.01,-0.02
2020-08-10 16:12:45.6390,-0.02,-0.01,-0.05
2020-08-10 16:12:45.7380,-0.0,-0.03,-0.08
2020-08-10 16:12:45.8380,-0.07,-0.07,-0.04
2020-08-10 16:12:45.9370,-0.11,-0.23,-0.06
2020-08-10 16:12:46.0360,-0.37,-0.68,-0.18
2020-08-10 16:12:46.1350,-0.74,-0.17,0.46
2020-08-10 16:12:46.2350,-1.15,0.03,-0.12
2020-08-10 16:12:46.3340,-0.58,0.08,-0.14
2020-08-10 16:12:46.4340,0.21,-0.49,-0.05
2020-08-10 16:12:46.5320,0.67,-0.45,-0.01
2020-08-10 16:12:46.6320,0.94,-0.17,-0.03
2020-08-10 16:12:46.7310,0.65,-0.29,0.07
2020-08-10 16:12:46.8300,0.31,-0.15,-0.15
2020-08-10 16:12:46.9300,0.0,-0.01,-0.03
2020-08-10 16:12:47.0290,0.01,-0.03,-0.07
2020-08-10 16:12:47.1280,-0.03,-0.04,-0.08
2020-08-10 16:12:47.2270,0.02,0.0,-0.01
2020-08-10 16:12:47.3270,-0.03,0.01,-0.05
2020-08-10 16:12:47.4260,-0.06,-0.01,-0.07
2020-08-10 16:12:47.5250,0.02,-0.06,-0.13
2020-08-10 16:12:47.6240,-0.15,-0.25,-0.06
2020-08-10 16:12:47.7240,-0.47,-0.64,-0.12
2020-08-10 16:12:47.8230,-0.45,-0.18,0.24
2020-08-10 16:12:47.9220,-1.13,0.24,0.05
2020-08-10 16:12:48.0210,-0.62,0.08,0.02
2020-08-10 16:12:48.1210,0.15,-0.5,-0.01
2020-08-10 16:12:48.2200,0.46,-0.36,-0.07
2020-08-10 16:12:48.3190,0.95,-0.1,0.03
2020-08-10 16:12:48.4180,1.09,-0.06,0.16
2020-08-10 16:12:48.5180,0.37,-0.22,-0.31
2020-08-10 16:12:48.6170,-0.01,-0.05,0.15
2020-08-10 16:12:48.7160,-0.05,0.01,-0.02
2020-08-10 16:12:48.8160,0.0,-0.04,-0.05
2020-08-10 16:12:48.9150,-0.02,0.0,-0.0
2020-08-10 16:12:49.0140,-0.01,0.03,-0.03
2020-08-10 16:12:49.1130,-0.03,0.0,-0.09
2020-08-10 16:12:49.2130,-0.02,-0.04,-0.08
2020-08-10 16:12:49.3120,-0.07,-0.15,-0.02
2020-08-10 16:12:49.4110,-0.27,-0.64,-0.16
2020-08-10 16:12:49.5100,-0.55,-0.39,0.38
2020-08-10 16:12:49.6100,-1.03,0.17,0.04
2020-08-10 16:12:49.7090,-0.68,0.11,0.01
2020-08-10 16:12:49.8080,0.03,-0.4,-0.05
2020-08-10 16:12:49.9070,0.44,-0.28,0.07
2020-08-10 16:12:50.0070,0.74,-0.23,0.05
2020-08-10 16:12:50.1060,1.14,-0.01,0.0
2020-08-10 16:12:50.2050,-0.98,0.07,0.31
2020-08-10 16:12:50.3040,0.04,0.03,0.21
2020-08-10 16:12:50.4040,-0.08,-0.03,-0.06
2020-08-10 16:12:50.5030,-0.03,-0.01,0.01
2020-08-10 16:12:50.6020,-0.02,-0.0,-0.02
2020-08-10 16:12:50.7020,0.0,-0.01,-0.04
2020-08-10 16:12:50.8010,-0.02,0.01,-0.1
2020-08-10 16:12:50.9000,-0.04,-0.03,-0.03
2020-08-10 16:12:50.9990,-0.06,-0.11,-0.03
2020-08-10 16:12:51.0990,-0.41,-0.54,0.03
2020-08-10 16:12:51.1980,-0.59,-0.44,0.29
2020-08-10 16:12:51.2970,-1.01,0.12,0.02
2020-08-10 16:12:51.3970,-0.62,0.17,-0.06
2020-08-10 16:12:51.4960,-0.09,-0.29,-0.08
2020-08-10 16:12:51.5950,0.3,-0.34,0.01
2020-08-10 16:12:51.6940,0.74,-0.21,-0.02
2020-08-10 16:12:51.7940,1.12,-0.02,0.0
2020-08-10 16:12:51.8930,-1.66,-0.12,-0.26
2020-08-10 16:12:51.9920,0.01,-0.12,0.4
2020-08-10 16:12:52.0910,-0.1,-0.02,-0.06
2020-08-10 16:12:52.1910,-0.02,-0.02,0.03
2020-08-10 16:12:52.2900,-0.01,0.02,-0.04
2020-08-10 16:12:52.3890,-0.02,0.0,-0.05
2020-08-10 16:12:52.4880,-0.08,0.05,-0.02
2020-08-10 16:12:52.5880,-0.08,-0.02,-0.06
2020-08-10 16:12:52.6870,-0.04,-0.16,-0.08
2020-08-10 16:12:52.7860,-0.31,-0.48,-0.03
2020-08-10 16:12:52.8850,-0.57,-0.38,0.46
2020-08-10 16:12:52.9850,-0.44,-0.06,0.03
2020-08-10 16:12:53.0840,-0.61,0.14,-0.01
2020-08-10 16:12:53.1830,-0.06,-0.3,-0.1
2020-08-10 16:12:53.2830,0.35,-0.37,0.02
2020-08-10 16:12:53.3820,0.68,-0.22,0.04
2020-08-10 16:12:53.4810,1.21,0.0,0.1
2020-08-10 16:12:53.5800,-2.29,-0.07,-0.32
2020-08-10 16:12:53.6790,0.1,-0.15,0.24
2020-08-10 16:12:53.7790,-0.02,-0.0,-0.05
2020-08-10 16:12:53.8780,-0.07,0.01,-0.01
2020-08-10 16:12:53.9770,-0.03,-0.01,-0.03
2020-08-10 16:12:54.0770,0.01,0.01,-0.04
2020-08-10 16:12:54.1760,-0.03,-0.01,-0.1
2020-08-10 16:12:54.2750,-0.04,-0.09,-0.03
2020-08-10 16:12:54.3740,-0.11,-0.16,-0.05
2020-08-10 16:12:54.4740,-0.44,-0.62,-0.05
2020-08-10 16:12:54.5730,-0.79,-0.44,0.35
2020-08-10 16:12:54.6720,-0.93,0.03,-0.06
2020-08-10 16:12:54.7710,-0.56,0.08,-0.07
2020-08-10 16:12:54.8710,0.04,-0.44,-0.04
2020-08-10 16:12:54.9700,0.49,-0.34,0.04
2020-08-10 16:12:55.0690,1.1,-0.13,0.09
2020-08-10 16:12:55.1690,1.06,-0.17,0.16
2020-08-10 16:12:55.2680,0.66,-0.28,-0.16
2020-08-10 16:12:55.3670,0.13,0.0,-0.03
2020-08-10 16:12:55.4660,-0.01,-0.01,-0.03
2020-08-10 16:12:55.5660,-0.03,-0.0,-0.04
2020-08-10 16:12:55.6650,0.01,0.01,-0.01
2020-08-10 16:12:55.7640,-0.06,0.02,-0.05
2020-08-10 16:12:55.8630,-0.06,0.01,-0.08
2020-08-10 16:12:55.9630,0.01,-0.15,-0.07
2020-08-10 16:12:56.0620,-0.31,-0.48,-0.01
2020-08-10 16:12:56.1610,-0.87,-0.38,0.27
2020-08-10 16:12:56.2600,-0.3,-0.09,0.18
2020-08-10 16:12:56.3600,-0.68,0.26,0.08
2020-08-10 16:12:56.4590,0.05,-0.29,-0.18
2020-08-10 16:12:56.5580,0.34,-0.32,-0.12
2020-08-10 16:12:56.6570,0.72,-0.28,0.05
2020-08-10 16:12:56.7570,1.25,-0.01,0.14
2020-08-10 16:12:56.8560,-0.89,0.07,0.23
2020-08-10 16:12:56.9550,0.32,-0.08,-0.08
2020-08-10 16:12:57.0540,0.15,-0.07,-0.09
2020-08-10 16:12:57.1540,-0.01,0.0,-0.01
2020-08-10 16:12:57.2530,-0.05,-0.02,-0.04
2020-08-10 16:12:57.3520,-0.02,-0.02,-0.04
2020-08-10 16:12:57.4510,-0.07,0.03,-0.05
2020-08-10 16:12:57.5510,-0.03,-0.05,-0.09
2020-08-10 16:12:57.6500,-0.11,-0.17,-0.05
2020-08-10 16:12:57.7500,-0.37,-0.56,-0.03
2020-08-10 16:12:57.8490,-0.68,-0.41,0.36
2020-08-10 16:12:57.9480,-0.5,-0.12,-0.14
2020-08-10 16:12:58.0470,-0.55,0.08,-0.04
2020-08-10 16:12:58.1460,-0.03,-0.36,-0.01
2020-08-10 16:12:58.2460,0.36,-0.35,0.0
2020-08-10 16:12:58.3450,0.66,-0.26,-0.02
2020-08-10 16:12:58.4440,1.21,0.02,0.11
2020-08-10 16:12:58.5430,-0.47,-0.2,0.1
2020-08-10 16:12:58.6430,0.2,-0.02,0.18
2020-08-10 16:12:58.7420,-0.03,-0.06,-0.02
2020-08-10 16:12:58.8410,-0.01,-0.01,-0.03
2020-08-10 16:12:58.9400,-0.04,0.02,-0.01
2020-08-10 16:12:59.0400,0.0,0.01,-0.05
2020-08-10 16:12:59.1390,-0.06,-0.01,-0.05
2020-08-10 16:12:59.2380,-0.03,-0.1,-0.13
2020-08-10 16:12:59.3380,-0.15,-0.25,-0.08
2020-08-10 16:12:59.4370,-0.72,-0.78,-0.07
2020-08-10 16:12:59.5360,-0.28,-0.21,-0.02
2020-08-10 16:12:59.6360,-1.04,0.39,0.1
2020-08-10 16:12:59.7350,-0.54,-0.06,-0.12
2020-08-10 16:12:59.8340,0.44,-0.51,-0.06
2020-08-10 16:12:59.9330,0.67,-0.33,-0.02
2020-08-10 16:13:00.0320,1.05,-0.04,0.05
2020-08-10 16:13:00.1320,0.15,-0.37,-0.23
2020-08-10 16:13:00.2310,0.19,-0.24,0.01
2020-08-10 16:13:00.3300,0.19,-0.08,-0.12
2020-08-10 16:13:00.4290,-0.05,0.02,-0.02
2020-08-10 16:13:00.5290,0.04,-0.02,-0.08
2020-08-10 16:13:00.6280,0.0,-0.01,-0.04
2020-08-10 16:13:00.7270,-0.05,0.0,-0.07
2020-08-10 16:13:00.8260,0.03,-0.02,-0.08
2020-08-10 16:13:00.9260,-0.1,-0.1,-0.02
2020-08-10 16:13:01.0250,-0.23,-0.39,-0.05
2020-08-10 16:13:01.1240,-0.58,-0.6,-0.01
2020-08-10 16:13:01.2240,-0.2,-0.07,0.01
2020-08-10 16:13:01.3230,-0.78,0.22,0.08
2020-08-10 16:13:01.4220,-0.28,-0.18,-0.18
2020-08-10 16:13:01.5210,0.38,-0.4,-0.07
2020-08-10 16:13:01.6210,0.73,-0.34,-0.01
2020-08-10 16:13:01.7200,1.14,-0.08,0.01
2020-08-10 16:13:01.8190,-0.74,-0.53,-0.7
2020-08-10 16:13:01.9190,0.2,-0.17,-0.21
2020-08-10 16:13:02.0180,0.32,-0.1,-0.25
2020-08-10 16:13:02.1170,0.1,-0.01,-0.07
2020-08-10 16:13:02.2160,-0.01,-0.02,-0.09
2020-08-10 16:13:02.3160,0.01,-0.02,-0.05
2020-08-10 16:13:02.4150,-0.05,-0.0,-0.06
2020-08-10 16:13:02.5140,-0.06,-0.01,-0.03
2020-08-10 16:13:02.6130,-0.04,-0.11,-0.08
2020-08-10 16:13:02.7130,-0.27,-0.43,-0.02
2020-08-10 16:13:02.8120,-0.51,-0.56,0.15
2020-08-10 16:13:02.9110,-0.2,-0.08,-0.09
2020-08-10 16:13:03.0110,-0.64,0.11,-0.02
2020-08-10 16:13:03.1100,-0.14,-0.19,-0.23
2020-08-10 16:13:03.2090,0.43,-0.37,-0.08
2020-08-10 16:13:03.3080,0.76,-0.33,0.02
2020-08-10 16:13:03.4070,1.02,-0.07,0.01
2020-08-10 16:13:03.5070,-1.39,-0.14,-0.29
2020-08-10 16:13:03.6060,0.24,-0.12,0.01
2020-08-10 16:13:03.7050,0.16,-0.1,-0.14
2020-08-10 16:13:03.8050,-0.04,0.01,0.04
2020-08-10 16:13:03.9040,0.04,0.01,-0.05
2020-08-10 16:13:04.0030,0.06,-0.04,-0.07
2020-08-10 16:13:04.1030,-0.02,-0.01,-0.07
2020-08-10 16:13:04.2020,-0.05,-0.07,-0.04
2020-08-10 16:13:04.3010,-0.1,-0.18,-0.03
2020-08-10 16:13:04.4000,-0.37,-0.51,-0.04
2020-08-10 16:13:04.4990,-0.9,-0.63,0.35
2020-08-10 16:13:04.5990,-0.66,-0.15,-0.08
2020-08-10 16:13:04.6980,-0.48,0.12,-0.15
2020-08-10 16:13:04.7970,0.09,-0.35,-0.05
2020-08-10 16:13:04.8960,0.38,-0.33,-0.0
2020-08-10 16:13:04.9950,0.8,-0.35,0.05
2020-08-10 16:13:05.0950,1.45,0.02,0.16
2020-08-10 16:13:05.1940,0.31,-0.42,-0.42
2020-08-10 16:13:05.2930,0.23,-0.09,0.12
2020-08-10 16:13:05.3930,0.04,-0.03,-0.04
2020-08-10 16:13:05.4920,0.06,0.0,-0.05
2020-08-10 16:13:05.5910,-0.02,-0.01,-0.05
2020-08-10 16:13:05.6910,-0.02,-0.01,-0.03
2020-08-10 16:13:05.7900,-0.02,0.01,-0.06
2020-08-10 16:13:05.8890,-0.06,-0.08,-0.07
2020-08-10 16:13:05.9880,-0.13,-0.27,-0.08
2020-08-10 16:13:06.0880,-0.53,-0.66,-0.01
2020-08-10 16:13:06.1870,-0.48,-0.13,0.21
2020-08-10 16:13:06.2860,-1.22,0.38,0.01
2020-08-10 16:13:06.3850,-0.57,0.07,-0.18
2020-08-10 16:13:06.4850,0.12,-0.49,-0.07
2020-08-10 16:13:06.5840,0.72,-0.4,-0.06
2020-08-10 16:13:06.6830,1.18,-0.11,0.12
2020-08-10 16:13:06.7820,-0.61,-0.54,-0.65
2020-08-10 16:13:06.8820,-0.02,0.0,0.16
2020-08-10 16:13:06.9810,0.1,-0.11,-0.16
2020-08-10 16:13:07.0800,0.04,-0.03,-0.04
2020-08-10 16:13:07.1790,0.01,-0.02,-0.05
2020-08-10 16:13:07.2790,-0.02,-0.01,-0.05
2020-08-10 16:13:07.3780,-0.07,0.02,-0.08
2020-08-10 16:13:07.4770,-0.05,-0.06,-0.04
2020-08-10 16:13:07.5770,-0.09,-0.18,-0.04
2020-08-10 16:13:07.6760,-0.35,-0.8,-0.14
2020-08-10 16:13:07.7750,-0.84,-0.35,0.44
2020-08-10 16:13:07.8740,-1.01,0.2,-0.07
2020-08-10 16:13:07.9740,-0.69,0.12,-0.07
2020-08-10 16:13:08.0730,0.08,-0.53,0.05
2020-08-10 16:13:08.1720,0.49,-0.4,0.03
2020-08-10 16:13:08.2720,0.98,-0.12,0.01
2020-08-10 16:13:08.3710,1.14,0.02,0.11
2020-08-10 16:13:08.4700,0.67,-0.34,-0.48
2020-08-10 16:13:08.5690,0.09,0.0,0.0
2020-08-10 16:13:08.6690,0.02,-0.02,-0.05
2020-08-10 16:13:08.7680,0.01,-0.02,-0.09
2020-08-10 16:13:08.8670,-0.03,0.02,-0.02
2020-08-10 16:13:08.9660,-0.01,0.0,-0.04
2020-08-10 16:13:09.0660,-0.02,0.02,-0.02
2020-08-10 16:13:09.1650,0.01,-0.1,-0.1
2020-08-10 16:13:09.2640,-0.07,-0.22,-0.06
2020-08-10 16:13:09.3630,-0.54,-0.72,-0.05
2020-08-10 16:13:09.4630,-0.65,-0.29,0.32
2020-08-10 16:13:09.5620,-1.07,0.29,0.03
2020-08-10 16:13:09.6610,-0.61,0.18,-0.08
2020-08-10 16:13:09.7600,0.13,-0.45,0.03
2020-08-10 16:13:09.8600,0.55,-0.29,0.01
2020-08-10 16:13:09.9590,0.86,-0.15,0.07
2020-08-10 16:13:10.0580,1.23,0.05,0.17
2020-08-10 16:13:10.1580,0.55,-0.45,-0.47
2020-08-10 16:13:10.2570,0.21,-0.08,0.01
2020-08-10 16:13:10.3560,-0.07,0.01,0.02
2020-08-10 16:13:10.4550,-0.06,0.01,-0.05
2020-08-10 16:13:10.5550,-0.03,-0.0,-0.02
2020-08-10 16:13:10.6540,-0.01,-0.02,-0.07
2020-08-10 16:13:10.7540,-0.0,-0.03,-0.05
2020-08-10 16:13:10.8520,-0.11,-0.1,-0.06
2020-08-10 16:13:10.9510,-0.12,-0.37,-0.16
2020-08-10 16:13:11.0510,-0.71,-0.56,-0.05
2020-08-10 16:13:11.1500,-0.17,-0.24,-0.07
2020-08-10 16:13:11.2490,-0.76,0.22,0.01
2020-08-10 16:13:11.3490,-0.34,-0.1,-0.15
2020-08-10 16:13:11.4480,0.4,-0.39,-0.04
2020-08-10 16:13:11.5470,0.7,-0.38,-0.08
2020-08-10 16:13:11.6460,1.29,-0.09,0.08
2020-08-10 16:13:11.7460,-2.15,-0.16,-0.54
2020-08-10 16:13:11.8450,0.11,-0.08,0.15
2020-08-10 16:13:11.9440,0.15,-0.07,-0.07
2020-08-10 16:13:12.0440,-0.05,0.01,-0.01
2020-08-10 16:13:12.1430,-0.01,0.01,-0.06
2020-08-10 16:13:12.2420,0.02,-0.02,-0.1
2020-08-10 16:13:12.3410,-0.02,-0.01,-0.07
2020-08-10 16:13:12.4410,-0.01,-0.05,-0.08
2020-08-10 16:13:12.5400,-0.06,-0.13,-0.05
2020-08-10 16:13:12.6390,-0.4,-0.53,-0.05
2020-08-10 16:13:12.7380,-0.72,-0.44,0.5
2020-08-10 16:13:12.8380,-0.49,-0.06,-0.0
2020-08-10 16:13:12.9370,-0.64,0.04,-0.08
2020-08-10 16:13:13.0360,0.12,-0.37,-0.02
2020-08-10 16:13:13.1350,0.44,-0.37,0.02
2020-08-10 16:13:13.2350,0.85,-0.2,0.13
2020-08-10 16:13:13.3340,1.25,0.04,0.14
2020-08-10 16:13:13.4330,0.13,-0.35,-0.15
2020-08-10 16:13:13.5320,0.27,-0.11,0.32
2020-08-10 16:13:13.6320,-0.01,-0.03,-0.0
2020-08-10 16:13:13.7310,0.02,-0.0,-0.03
2020-08-10 16:13:13.8300,-0.01,0.0,-0.03
2020-08-10 16:13:13.9290,0.01,-0.01,-0.05
2020-08-10 16:13:14.0290,-0.07,-0.0,-0.04
2020-08-10 16:13:14.1280,-0.05,-0.09,-0.08
2020-08-10 16:13:14.2270,-0.19,-0.22,-0.04
2020-08-10 16:13:14.3260,-0.62,-0.74,-0.15
2020-08-10 16:13:14.4260,-0.35,-0.21,0.07
2020-08-10 16:13:14.5250,-1.13,0.38,0.06
2020-08-10 16:13:14.6250,-0.56,0.05,-0.1
2020-08-10 16:13:14.7240,0.27,-0.42,0.01
2020-08-10 16:13:14.8230,0.6,-0.25,-0.01
2020-08-10 16:13:14.9220,0.98,-0.1,-0.0
2020-08-10 16:13:15.0220,1.24,0.01,0.06
2020-08-10 16:13:15.1210,0.8,-0.26,0.06
2020-08-10 16:13:15.2200,0.19,-0.08,-0.14
2020-08-10 16:13:15.3190,0.04,-0.03,-0.08
2020-08-10 16:13:15.4180,0.03,-0.02,-0.06
2020-08-10 16:13:15.5180,-0.01,0.0,-0.05
2020-08-10 16:13:15.6170,-0.04,0.0,-0.06
2020-08-10 16:13:15.7160,-0.05,-0.03,-0.05
2020-08-10 16:13:15.8150,-0.05,-0.15,-0.11
2020-08-10 16:13:15.9150,-0.34,-0.59,-0.0
2020-08-10 16:13:16.0140,-0.59,-0.32,0.4
2020-08-10 16:13:16.1130,-0.24,-0.1,0.08
2020-08-10 16:13:16.2130,-0.55,0.1,-0.11
2020-08-10 16:13:16.3120,-0.04,-0.25,-0.16
2020-08-10 16:13:16.4110,0.45,-0.38,-0.01
2020-08-10 16:13:16.5110,0.88,-0.28,0.05
2020-08-10 16:13:16.6100,1.32,0.05,0.09
2020-08-10 16:13:16.7090,0.23,-0.47,-0.55
2020-08-10 16:13:16.8080,0.19,-0.07,0.08
2020-08-10 16:13:16.9080,0.04,-0.01,-0.0
2020-08-10 16:13:17.0070,-0.02,-0.0,-0.04
2020-08-10 16:13:17.1060,-0.03,0.01,-0.03
2020-08-10 16:13:17.2050,0.05,-0.04,-0.12
2020-08-10 16:13:17.3040,0.03,-0.06,-0.09
2020-08-10 16:13:17.4040,-0.05,-0.14,-0.1
2020-08-10 16:13:17.5030,-0.28,-0.49,-0.04
2020-08-10 16:13:17.6020,-0.68,-0.39,0.4
2020-08-10 16:13:17.7020,-0.31,-0.05,0.03
2020-08-10 16:13:17.8010,-0.69,0.18,-0.08
2020-08-10 16:13:17.9000,-0.06,-0.31,-0.15
2020-08-10 16:13:17.9990,0.45,-0.55,-0.01
2020-08-10 16:13:18.0990,1.09,-0.15,0.1
2020-08-10 16:13:18.1980,1.11,0.03,0.17
2020-08-10 16:13:18.2970,0.69,-0.52,-0.44
2020-08-10 16:13:18.3960,0.13,-0.0,0.08
2020-08-10 16:13:18.4960,0.05,-0.06,-0.03
2020-08-10 16:13:18.5950,0.04,-0.02,-0.07
2020-08-10 16:13:18.6940,-0.01,-0.0,-0.03
2020-08-10 16:13:18.7940,-0.03,0.02,-0.04
2020-08-10 16:13:18.8930,-0.01,-0.01,-0.08
2020-08-10 16:13:18.9920,-0.01,-0.08,-0.08
2020-08-10 16:13:19.0910,-0.03,-0.2,-0.09
2020-08-10 16:13:19.1910,-0.42,-0.7,-0.12
2020-08-10 16:13:19.2900,-0.33,-0.31,0.19
2020-08-10 16:13:19.3890,-1.17,0.14,-0.05
2020-08-10 16:13:19.4880,-0.65,0.07,-0.02
2020-08-10 16:13:19.5880,0.06,-0.5,-0.05
2020-08-10 16:13:19.6870,0.48,-0.43,-0.08
2020-08-10 16:13:19.7860,1.26,-0.12,0.11
2020-08-10 16:13:19.8850,0.29,-0.32,-0.02
2020-08-10 16:13:19.9850,0.65,-0.29,-0.19
2020-08-10 16:13:20.0840,-0.05,-0.0,-0.04
2020-08-10 16:13:20.1830,-0.0,-0.01,-0.03
2020-08-10 16:13:20.2820,-0.06,-0.02,-0.05
2020-08-10 16:13:20.3820,0.0,-0.0,-0.04
2020-08-10 16:13:20.4810,0.02,-0.04,-0.1
2020-08-10 16:13:20.5800,-0.03,-0.04,-0.05
2020-08-10 16:13:20.6790,-0.09,-0.12,-0.06
2020-08-10 16:13:20.7790,-0.37,-0.66,-0.08
2020-08-10 16:13:20.8780,-0.72,-0.45,0.34
2020-08-10 16:13:20.9770,-0.97,0.11,0.05
2020-08-10 16:13:21.0770,-0.77,0.16,0.0
2020-08-10 16:13:21.1760,0.2,-0.59,0.01
2020-08-10 16:13:21.2750,0.51,-0.47,0.12
2020-08-10 16:13:21.3740,0.89,-0.16,-0.04
2020-08-10 16:13:21.4740,1.31,0.01,0.09
2020-08-10 16:13:21.5730,0.49,-0.32,-0.29
2020-08-10 16:13:21.6720,0.22,-0.07,-0.03
2020-08-10 16:13:21.7710,0.04,-0.02,-0.06
2020-08-10 16:13:21.8710,0.02,-0.01,-0.05
2020-08-10 16:13:21.9700,-0.02,0.02,0.0
2020-08-10 16:13:22.0690,0.04,-0.01,-0.12
2020-08-10 16:13:22.1680,0.0,-0.03,-0.04
2020-08-10 16:13:22.2680,-0.07,-0.14,-0.05
2020-08-10 16:13:22.3670,-0.18,-0.4,-0.09
2020-08-10 16:13:22.4660,-0.86,-0.55,-0.01
2020-08-10 16:13:22.5660,0.04,-0.15,0.18
2020-08-10 16:13:22.6650,-0.84,0.22,0.03
2020-08-10 16:13:22.7640,-0.26,-0.12,-0.16
2020-08-10 16:13:22.8640,0.5,-0.56,-0.02
2020-08-10 16:13:22.9630,0.75,-0.36,0.03
2020-08-10 16:13:23.0620,1.34,-0.03,0.11
2020-08-10 16:13:23.1610,-0.04,-0.17,0.08
2020-08-10 16:13:23.2610,0.11,-0.02,0.24
2020-08-10 16:13:23.3600,-0.04,-0.02,-0.05
2020-08-10 16:13:23.4590,-0.02,-0.0,-0.03
2020-08-10 16:13:23.5580,-0.0,-0.01,-0.04
2020-08-10 16:13:23.6570,-0.01,-0.0,-0.08
2020-08-10 16:13:23.7570,0.04,-0.03,-0.12
2020-08-10 16:13:23.8560,-0.0,-0.14,-0.09
2020-08-10 16:13:23.9550,-0.2,-0.37,-0.06
2020-08-10 16:13:24.0540,-0.51,-0.61,-0.1
2020-08-10 16:13:24.1540,-0.17,-0.18,0.05
2020-08-10 16:13:24.2530,-0.8,0.21,0.04
2020-08-10 16:13:24.3520,-0.4,-0.12,-0.21
2020-08-10 16:13:24.4510,0.5,-0.46,-0.02
2020-08-10 16:13:24.5510,0.71,-0.39,-0.03
2020-08-10 16:13:24.6500,1.2,-0.06,0.1
2020-08-10 16:13:24.7490,-1.78,-0.15,-0.68
2020-08-10 16:13:24.8490,0.26,-0.2,0.12
2020-08-10 16:13:24.9480,0.08,-0.04,-0.09
2020-08-10 16:13:25.0470,-0.03,-0.03,-0.01
2020-08-10 16:13:25.1470,0.02,0.01,-0.06
2020-08-10 16:13:25.2460,0.0,-0.01,-0.08
2020-08-10 16:13:25.3450,-0.03,-0.0,-0.06
2020-08-10 16:13:25.4440,-0.08,-0.08,-0.04
2020-08-10 16:13:25.5440,-0.16,-0.26,-0.08
2020-08-10 16:13:25.6430,-0.52,-0.91,-0.27
2020-08-10 16:13:25.7420,-0.14,-0.26,0.11
2020-08-10 16:13:25.8410,-0.7,0.23,-0.03
2020-08-10 16:13:25.9410,-0.51,-0.04,-0.19
2020-08-10 16:13:26.0400,0.29,-0.43,-0.04
2020-08-10 16:13:26.1390,0.6,-0.34,-0.07
2020-08-10 16:13:26.2380,1.16,-0.1,-0.03
2020-08-10 16:13:26.3380,0.4,-0.32,-0.09
2020-08-10 16:13:26.4370,0.36,-0.22,-0.23
2020-08-10 16:13:26.5360,0.36,-0.2,-0.27
2020-08-10 16:13:26.6350,0.05,-0.01,-0.05
2020-08-10 16:13:26.7340,-0.0,-0.01,-0.06
2020-08-10 16:13:26.8340,-0.07,-0.0,-0.01
2020-08-10 16:13:26.9330,-0.04,-0.01,-0.08
2020-08-10 16:13:27.0330,-0.04,-0.02,-0.04
2020-08-10 16:13:27.1320,-0.11,-0.17,-0.09
2020-08-10 16:13:27.2310,-0.41,-0.49,0.03
2020-08-10 16:13:27.3300,-0.37,-0.57,0.41
2020-08-10 16:13:27.4300,-0.29,0.12,0.17
2020-08-10 16:13:27.5290,-0.51,0.05,-0.12
2020-08-10 16:13:27.6280,0.08,-0.36,0.04
2020-08-10 16:13:27.7270,0.39,-0.33,0.0
2020-08-10 16:13:27.8260,0.83,-0.23,0.06
2020-08-10 16:13:27.9260,1.27,0.03,0.1
2020-08-10 16:13:28.0250,0.58,-0.58,-0.42
2020-08-10 16:13:28.1240,0.02,0.04,0.06
2020-08-10 16:13:28.2240,-0.01,-0.05,-0.09
2020-08-10 16:13:28.3230,-0.01,-0.01,-0.07
2020-08-10 16:13:28.4220,-0.02,0.01,-0.02
2020-08-10 16:13:28.5210,0.01,0.02,-0.08
2020-08-10 16:13:28.6210,-0.05,0.03,-0.04
2020-08-10 16:13:28.7200,-0.04,-0.08,-0.08
2020-08-10 16:13:28.8190,-0.16,-0.22,-0.06
2020-08-10 16:13:28.9180,-0.45,-0.72,-0.29
2020-08-10 16:13:29.0180,-0.18,-0.29,0.07
2020-08-10 16:13:29.1170,-1.0,0.4,0.09
2020-08-10 16:13:29.2170,-0.59,0.13,-0.12
2020-08-10 16:13:29.3160,0.39,-0.46,-0.02
2020-08-10 16:13:29.4150,0.56,-0.19,-0.04
2020-08-10 16:13:29.5140,0.91,-0.12,-0.02
2020-08-10 16:13:29.6130,1.08,-0.1,0.14
2020-08-10 16:13:29.7130,0.72,-0.4,-0.02
2020-08-10 16:13:29.8120,0.1,-0.04,-0.16
2020-08-10 16:13:29.9110,0.02,-0.01,-0.04
2020-08-10 16:13:30.0100,0.01,-0.02,-0.06
2020-08-10 16:13:30.1100,0.06,-0.02,-0.1
2020-08-10 16:13:30.2090,-0.01,0.0,-0.07
2020-08-10 16:13:30.3080,-0.04,-0.03,-0.04
2020-08-10 16:13:30.4070,-0.03,-0.13,-0.06
2020-08-10 16:13:30.5070,-0.31,-0.66,-0.03
2020-08-10 16:13:30.6060,-0.62,-0.45,0.43
2020-08-10 16:13:30.7050,-0.25,-0.0,0.01
2020-08-10 16:13:30.8040,-0.43,0.06,-0.13
2020-08-10 16:13:30.9040,-0.0,-0.27,-0.14
2020-08-10 16:13:31.0030,0.58,-0.23,-0.06
2020-08-10 16:13:31.1020,0.71,-0.14,-0.1
2020-08-10 16:13:31.2020,1.18,-0.04,0.02
2020-08-10 16:13:31.3010,0.6,-0.48,-0.48
2020-08-10 16:13:31.4000,0.23,0.01,0.07
2020-08-10 16:13:31.4990,0.11,-0.05,-0.05
2020-08-10 16:13:31.5990,0.05,-0.01,-0.03
2020-08-10 16:13:31.6980,-0.01,0.01,-0.04
2020-08-10 16:13:31.7970,-0.02,-0.03,-0.09
2020-08-10 16:13:31.8960,-0.04,-0.01,-0.06
2020-08-10 16:13:31.9960,-0.05,-0.14,-0.1
2020-08-10 16:13:32.0950,-0.21,-0.43,-0.06
2020-08-10 16:13:32.1940,-0.8,-0.6,0.06
2020-08-10 16:13:32.2940,-0.26,-0.16,0.06
2020-08-10 16:13:32.3930,-0.7,0.28,-0.06
2020-08-10 16:13:32.4920,-0.3,-0.2,-0.19
2020-08-10 16:13:32.5910,0.5,-0.3,0.02
2020-08-10 16:13:32.6900,0.85,-0.28,0.06
2020-08-10 16:13:32.7900,1.27,-0.0,0.03
2020-08-10 16:13:32.8890,-0.4,-0.24,0.17
2020-08-10 16:13:32.9880,0.18,-0.04,0.28
2020-08-10 16:13:33.0880,-0.04,-0.06,-0.09
2020-08-10 16:13:33.1870,-0.01,-0.02,-0.05
2020-08-10 16:13:33.2860,0.02,0.03,-0.07
2020-08-10 16:13:33.3860,0.02,-0.01,-0.11
2020-08-10 16:13:33.4850,0.01,-0.04,-0.09
2020-08-10 16:13:33.5840,-0.0,-0.12,-0.16
2020-08-10 16:13:33.6830,-0.13,-0.25,-0.06
2020-08-10 16:13:33.7830,-0.85,-0.73,-0.27
2020-08-10 16:13:33.8820,-0.04,-0.25,0.04
2020-08-10 16:13:33.9810,-0.85,0.39,0.07
2020-08-10 16:13:34.0800,-0.43,-0.0,-0.1
2020-08-10 16:13:34.1790,0.32,-0.49,-0.05
2020-08-10 16:13:34.2790,0.66,-0.29,-0.07
2020-08-10 16:13:34.3780,0.99,-0.07,0.05
2020-08-10 16:13:34.4770,0.26,-0.32,-0.12
2020-08-10 16:13:34.5770,0.38,-0.19,-0.09
2020-08-10 16:13:34.6760,-0.02,0.01,-0.09
2020-08-10 16:13:34.7750,-0.04,0.01,-0.04
2020-08-10 16:13:34.8740,0.03,-0.02,-0.07
2020-08-10 16:13:34.9740,-0.01,-0.01,-0.07
2020-08-10 16:13:35.0730,-0.04,0.01,-0.07
2020-08-10 16:13:35.1720,-0.03,-0.06,-0.08
2020-08-10 16:13:35.2710,0.04,-0.15,-0.1
2020-08-10 16:13:35.3710,-0.35,-0.56,-0.08
2020-08-10 16:13:35.4700,-0.49,-0.45,0.56
2020-08-10 16:13:35.5690,-0.56,0.01,0.08
2020-08-10 16:13:35.6690,-0.5,0.13,-0.15
2020-08-10 16:13:35.7680,0.19,-0.32,-0.04
2020-08-10 16:13:35.8670,0.54,-0.29,0.02
2020-08-10 16:13:35.9660,0.74,-0.15,-0.02
2020-08-10 16:13:36.0660,1.07,0.02,0.1
2020-08-10 16:13:36.1650,0.08,-0.34,-0.31
2020-08-10 16:13:36.2640,0.48,-0.13,0.04
2020-08-10 16:13:36.3630,0.02,-0.02,-0.03
2020-08-10 16:13:36.4620,0.04,-0.04,-0.08
2020-08-10 16:13:36.5620,0.02,-0.01,-0.06
2020-08-10 16:13:36.6610,-0.01,-0.01,-0.07
2020-08-10 16:13:36.7600,-0.04,-0.03,-0.08
2020-08-10 16:13:36.8610,-0.03,-0.08,-0.09
2020-08-10 16:13:36.9590,-0.14,-0.21,-0.06
2020-08-10 16:13:37.0580,-0.52,-0.73,-0.16
2020-08-10 16:13:37.1570,-0.1,-0.21,0.27
2020-08-10 16:13:37.2570,-1.01,0.23,-0.05
2020-08-10 16:13:37.3560,-0.71,0.1,-0.09
2020-08-10 16:13:37.4550,0.19,-0.5,0.03
2020-08-10 16:13:37.5550,0.49,-0.33,-0.03
2020-08-10 16:13:37.6540,1.05,-0.12,0.06
2020-08-10 16:13:37.7530,1.31,0.05,0.1
2020-08-10 16:13:37.8520,0.62,-0.33,-0.31
2020-08-10 16:13:37.9520,0.18,-0.04,-0.03
2020-08-10 16:13:38.0510,0.04,-0.02,-0.06
2020-08-10 16:13:38.1500,0.03,-0.01,-0.04
2020-08-10 16:13:38.2490,-0.02,0.01,-0.03
2020-08-10 16:13:38.3480,-0.11,0.07,0.01
2020-08-10 16:13:38.4480,-0.12,-0.02,-0.03
2020-08-10 16:13:38.5470,-0.02,-0.07,-0.05
2020-08-10 16:13:38.6460,-0.12,-0.29,-0.09
2020-08-10 16:13:38.7460,-0.53,-0.54,-0.11
2020-08-10 16:13:38.8450,-0.26,-0.26,0.07
2020-08-10 16:13:38.9440,-1.01,0.32,0.18
2020-08-10 16:13:39.0430,-0.56,0.0,-0.18
2020-08-10 16:13:39.1430,0.1,-0.42,-0.01
2020-08-10 16:13:39.2420,0.54,-0.29,0.09
2020-08-10 16:13:39.3410,1.05,-0.08,0.12
2020-08-10 16:13:39.4400,0.81,-0.19,-0.06
2020-08-10 16:13:39.5400,0.41,-0.27,-0.09
2020-08-10 16:13:39.6390,0.15,-0.05,-0.05
2020-08-10 16:13:39.7380,0.1,-0.01,-0.08
2020-08-10 16:13:39.8380,0.0,-0.02,-0.07
2020-08-10 16:13:39.9370,0.04,-0.01,-0.07
2020-08-10 16:13:40.0360,0.01,-0.01,-0.11
2020-08-10 16:13:40.1360,-0.02,-0.03,-0.08
2020-08-10 16:13:40.2350,-0.13,-0.15,0.0
2020-08-10 16:13:40.3340,-0.32,-0.53,-0.02
2020-08-10 16:13:40.4330,-0.54,-0.48,0.31
2020-08-10 16:13:40.5320,-0.22,-0.08,0.13
2020-08-10 16:13:40.6320,-0.51,0.13,-0.1
2020-08-10 16:13:40.7310,0.01,-0.33,-0.1
2020-08-10 16:13:40.8300,0.32,-0.34,-0.04
2020-08-10 16:13:40.9290,0.84,-0.35,-0.04
2020-08-10 16:13:41.0290,1.35,0.03,0.16
2020-08-10 16:13:41.1280,-0.02,-0.27,-0.04
2020-08-10 16:13:41.2270,0.4,-0.15,0.28
2020-08-10 16:13:41.3260,-0.05,-0.02,-0.01
2020-08-10 16:13:41.4260,-0.04,-0.01,-0.03
2020-08-10 16:13:41.5250,-0.0,0.03,-0.05
2020-08-10 16:13:41.6240,-0.07,0.05,-0.03
2020-08-10 16:13:41.7240,-0.07,0.02,-0.07
2020-08-10 16:13:41.8230,-0.07,-0.15,-0.06
2020-08-10 16:13:41.9220,-0.14,-0.4,-0.14
2020-08-10 16:13:42.0220,-0.84,-0.54,-0.12
2020-08-10 16:13:42.1210,-0.22,-0.08,0.02
2020-08-10 16:13:42.2200,-0.96,0.24,0.04
2020-08-10 16:13:42.3190,-0.47,-0.02,-0.11
2020-08-10 16:13:42.4180,0.37,-0.4,-0.05
2020-08-10 16:13:42.5180,0.74,-0.5,0.02
2020-08-10 16:13:42.6170,1.36,0.01,0.12
2020-08-10 16:13:42.7160,-0.52,-0.1,0.02
2020-08-10 16:13:42.8150,0.46,-0.14,0.39
2020-08-10 16:13:42.9150,0.17,-0.08,-0.08
2020-08-10 16:13:43.0140,0.03,-0.03,-0.05
2020-08-10 16:13:43.1130,0.03,-0.01,-0.05
2020-08-10 16:13:43.2120,-0.02,0.01,-0.05
2020-08-10 16:13:43.3120,-0.08,0.01,-0.09
2020-08-10 16:13:43.4110,-0.11,-0.17,-0.11
2020-08-10 16:13:43.5100,-0.26,-0.51,-0.03
2020-08-10 16:13:43.6100,-0.96,-0.45,0.63
2020-08-10 16:13:43.7090,0.01,-0.02,-0.07
2020-08-10 16:13:43.8080,-0.51,0.19,-0.04
2020-08-10 16:13:43.9070,-0.05,-0.23,-0.18
2020-08-10 16:13:44.0070,0.3,-0.24,-0.07
2020-08-10 16:13:44.1060,0.66,-0.34,-0.05
2020-08-10 16:13:44.2050,1.26,-0.02,0.07
2020-08-10 16:13:44.3050,-1.96,-0.04,-0.07
2020-08-10 16:13:44.4040,0.21,-0.19,0.17
2020-08-10 16:13:44.5030,-0.04,-0.01,-0.03
2020-08-10 16:13:44.6020,-0.03,-0.03,-0.01
2020-08-10 16:13:44.7010,0.01,-0.0,-0.04
2020-08-10 16:13:44.8010,-0.01,-0.03,-0.06
2020-08-10 16:13:44.9000,-0.04,-0.02,-0.07
2020-08-10 16:13:44.9990,-0.04,-0.07,-0.06
2020-08-10 16:13:45.0990,-0.15,-0.23,-0.08
2020-08-10 16:13:45.1980,-0.47,-0.95,-0.21
2020-08-10 16:13:45.2970,-0.48,-0.16,0.22
2020-08-10 16:13:45.3960,-1.18,0.33,-0.04
2020-08-10 16:13:45.4960,-0.59,0.17,-0.09
2020-08-10 16:13:45.5950,-0.01,-0.41,0.02
2020-08-10 16:13:45.6940,0.64,-0.39,-0.0
2020-08-10 16:13:45.7930,0.99,-0.16,0.04
2020-08-10 16:13:45.8930,1.06,0.03,0.13
2020-08-10 16:13:45.9920,0.57,-0.29,-0.45
2020-08-10 16:13:46.0910,0.25,-0.12,-0.08
2020-08-10 16:13:46.1910,0.07,-0.02,-0.05
2020-08-10 16:13:46.2900,0.02,-0.05,-0.08
2020-08-10 16:13:46.3890,-0.01,-0.0,-0.03
2020-08-10 16:13:46.4880,0.02,0.01,-0.11
2020-08-10 16:13:46.5880,-0.03,-0.05,-0.03
2020-08-10 16:13:46.6870,-0.05,-0.2,-0.15
2020-08-10 16:13:46.7860,-0.29,-0.53,-0.11
2020-08-10 16:13:46.8850,-0.71,-0.45,0.54
2020-08-10 16:13:46.9840,-0.14,-0.0,0.18
2020-08-10 16:13:47.0840,-0.58,0.11,-0.06
2020-08-10 16:13:47.1830,-0.07,-0.24,-0.09
2020-08-10 16:13:47.2820,0.51,-0.3,0.08
2020-08-10 16:13:47.3820,0.94,-0.37,0.04
2020-08-10 16:13:47.4810,1.43,0.07,0.18
2020-08-10 16:13:47.5800,0.46,-0.35,-0.47
2020-08-10 16:13:47.6790,0.32,-0.12,-0.15
2020-08-10 16:13:47.7790,0.13,-0.03,-0.08
2020-08-10 16:13:47.8780,0.01,-0.0,-0.09
2020-08-10 16:13:47.9770,0.01,-0.0,-0.06
2020-08-10 16:13:48.0770,-0.05,0.01,-0.06
2020-08-10 16:13:48.1760,-0.07,-0.03,-0.09
2020-08-10 16:13:48.2750,-0.12,-0.25,-0.04
2020-08-10 16:13:48.3740,-0.41,-0.78,-0.17
2020-08-10 16:13:48.4740,-0.63,-0.34,0.34
2020-08-10 16:13:48.5730,-0.8,0.04,-0.12
2020-08-10 16:13:48.6720,-0.49,0.11,-0.07
2020-08-10 16:13:48.7710,0.16,-0.42,-0.01
2020-08-10 16:13:48.8710,0.51,-0.23,0.02
2020-08-10 16:13:48.9700,0.84,-0.27,0.02
2020-08-10 16:13:49.0690,1.21,0.0,0.1
2020-08-10 16:13:49.1680,0.76,-0.4,-0.43
2020-08-10 16:13:49.2680,0.15,-0.02,-0.01
2020-08-10 16:13:49.3670,-0.05,0.0,-0.03
2020-08-10 16:13:49.4660,0.04,-0.04,-0.11
2020-08-10 16:13:49.5650,0.03,-0.01,-0.06
2020-08-10 16:13:49.6650,0.0,-0.01,-0.09
2020-08-10 16:13:49.7640,-0.08,-0.04,-0.02
2020-08-10 16:13:49.8630,-0.1,-0.18,-0.11
2020-08-10 16:13:49.9630,-0.39,-0.92,-0.29
2020-08-10 16:13:50.0620,-0.54,-0.28,0.31
2020-08-10 16:13:50.1610,-1.23,0.26,0.08
2020-08-10 16:13:50.2610,-0.57,0.16,-0.09
2020-08-10 16:13:50.3600,0.15,-0.58,-0.02
2020-08-10 16:13:50.4590,0.8,-0.54,0.03
2020-08-10 16:13:50.5580,1.38,-0.11,-0.04
2020-08-10 16:13:50.6570,-1.2,-0.04,0.5
2020-08-10 16:13:50.7570,0.05,-0.09,0.37
2020-08-10 16:13:50.8560,-0.08,-0.05,-0.13
2020-08-10 16:13:50.9550,-0.1,0.01,0.0
2020-08-10 16:13:51.0540,-0.01,0.01,-0.05
2020-08-10 16:13:51.1540,-0.01,0.01,-0.08
2020-08-10 16:13:51.2530,-0.01,-0.01,-0.05
2020-08-10 16:13:51.3520,-0.02,-0.1,-0.09
2020-08-10 16:13:51.4510,-0.13,-0.26,-0.07
2020-08-10 16:13:51.5510,-0.58,-0.89,-0.25
2020-08-10 16:13:51.6500,-0.14,-0.3,0.09
2020-08-10 16:13:51.7490,-0.9,0.37,0.1
2020-08-10 16:13:51.8490,-0.42,0.04,-0.15
2020-08-10 16:13:51.9480,0.34,-0.4,0.07
2020-08-10 16:13:52.0470,0.63,-0.27,0.08
2020-08-10 16:13:52.1460,1.04,-0.1,0.03
2020-08-10 16:13:52.2460,-0.97,-0.38,-0.84
2020-08-10 16:13:52.3450,0.05,-0.08,0.15
2020-08-10 16:13:52.4440,-0.15,0.02,-0.08
2020-08-10 16:13:52.5440,-0.1,-0.01,0.01
2020-08-10 16:13:52.6430,0.04,-0.0,-0.08
2020-08-10 16:13:52.7420,0.03,-0.01,-0.08
2020-08-10 16:13:52.8410,-0.03,0.01,-0.08
2020-08-10 16:13:52.9410,0.01,-0.09,-0.1
2020-08-10 16:13:53.0400,-0.19,-0.22,0.03
2020-08-10 16:13:53.1390,-0.6,-0.71,-0.17
2020-08-10 16:13:53.2380,-0.39,-0.31,0.18
2020-08-10 16:13:53.3370,-1.16,0.39,0.04
2020-08-10 16:13:53.4370,-0.54,-0.05,-0.15
2020-08-10 16:13:53.5360,0.23,-0.43,0.01
2020-08-10 16:13:53.6350,0.58,-0.35,-0.06
2020-08-10 16:13:53.7350,1.22,-0.14,-0.07
2020-08-10 16:13:53.8340,-1.11,-0.43,-0.75
2020-08-10 16:13:53.9330,0.33,-0.2,-0.07
2020-08-10 16:13:54.0320,-0.02,-0.04,-0.1
2020-08-10 16:13:54.1320,-0.06,-0.01,0.0
2020-08-10 16:13:54.2310,0.07,-0.03,-0.12
2020-08-10 16:13:54.3300,0.02,-0.02,-0.07
2020-08-10 16:13:54.4290,-0.07,0.01,-0.11
2020-08-10 16:13:54.5290,-0.05,-0.12,-0.06
2020-08-10 16:13:54.6290,-0.17,-0.26,-0.05
2020-08-10 16:13:54.7270,-0.51,-1.01,-0.17
2020-08-10 16:13:54.8270,-0.3,-0.32,0.1
2020-08-10 16:13:54.9260,-0.85,0.35,0.05
2020-08-10 16:13:55.0250,-0.55,0.13,-0.09
2020-08-10 16:13:55.1240,0.22,-0.49,0.01
2020-08-10 16:13:55.2230,0.76,-0.48,-0.0
2020-08-10 16:13:55.3230,1.54,-0.09,0.02
2020-08-10 16:13:55.4220,-1.07,-0.14,0.25
2020-08-10 16:13:55.5210,0.38,-0.21,0.41
2020-08-10 16:13:55.6210,-0.02,-0.03,0.01
2020-08-10 16:13:55.7200,-0.01,-0.0,-0.03
2020-08-10 16:13:55.8190,0.0,0.01,-0.05
2020-08-10 16:13:55.9180,-0.03,-0.01,-0.07
2020-08-10 16:13:56.0180,0.03,-0.01,-0.14
2020-08-10 16:13:56.1170,-0.03,-0.11,-0.12
2020-08-10 16:13:56.2160,-0.21,-0.42,-0.03
2020-08-10 16:13:56.3150,-0.71,-0.62,0.02
2020-08-10 16:13:56.4150,-0.24,-0.17,-0.06
2020-08-10 16:13:56.5140,-0.73,0.27,0.04
2020-08-10 16:13:56.6130,-0.14,-0.17,-0.2
2020-08-10 16:13:56.7130,0.33,-0.47,0.01
2020-08-10 16:13:56.8120,1.0,-0.37,-0.05
2020-08-10 16:13:56.9110,1.47,0.04,0.09
2020-08-10 16:13:57.0110,0.48,-0.34,-0.63
2020-08-10 16:13:57.1100,0.36,-0.07,0.0
2020-08-10 16:13:57.2090,-0.0,-0.02,-0.02
2020-08-10 16:13:57.3080,0.02,-0.01,-0.06
2020-08-10 16:13:57.4070,0.03,0.02,-0.04
2020-08-10 16:13:57.5070,-0.0,-0.02,-0.1
2020-08-10 16:13:57.6060,-0.03,-0.02,-0.04
2020-08-10 16:13:57.7050,-0.07,-0.11,-0.06
2020-08-10 16:13:57.8040,-0.22,-0.39,-0.07
2020-08-10 16:13:57.9040,-0.69,-0.6,0.03
2020-08-10 16:13:58.0030,-0.27,-0.08,0.04
2020-08-10 16:13:58.1020,-0.7,0.13,-0.01
2020-08-10 16:13:58.2010,-0.22,-0.21,-0.15
2020-08-10 16:13:58.3010,0.41,-0.4,-0.05
2020-08-10 16:13:58.4000,0.68,-0.35,0.01
2020-08-10 16:13:58.4990,1.38,-0.05,0.12
2020-08-10 16:13:58.5990,-2.62,-0.04,-0.17
2020-08-10 16:13:58.6980,0.13,-0.08,0.22
2020-08-10 16:13:58.7970,-0.07,-0.04,-0.03
2020-08-10 16:13:58.8960,-0.05,-0.01,-0.01
2020-08-10 16:13:58.9960,-0.0,-0.0,-0.02
2020-08-10 16:13:59.0950,0.04,-0.03,-0.11
2020-08-10 16:13:59.1940,-0.02,-0.01,-0.09
2020-08-10 16:13:59.2930,0.02,-0.15,-0.16
2020-08-10 16:13:59.3930,-0.22,-0.28,0.03
2020-08-10 16:13:59.4920,-0.78,-0.75,-0.12
2020-08-10 16:13:59.5910,-0.17,-0.06,0.17
2020-08-10 16:13:59.6900,-0.95,0.42,-0.05
2020-08-10 16:13:59.7900,-0.5,-0.01,-0.15
2020-08-10 16:13:59.8890,0.61,-0.5,0.03
2020-08-10 16:13:59.9880,0.73,-0.24,-0.02
2020-08-10 16:14:00.0870,1.2,-0.05,0.05
2020-08-10 16:14:00.1870,-1.26,-0.1,0.31
2020-08-10 16:14:00.2860,0.11,-0.03,0.37
2020-08-10 16:14:00.3850,-0.05,-0.03,-0.08
2020-08-10 16:14:00.4850,-0.07,-0.02,-0.04
2020-08-10 16:14:00.5840,0.01,0.01,-0.03
2020-08-10 16:14:00.6830,0.02,-0.0,-0.13
2020-08-10 16:14:00.7820,-0.02,-0.01,-0.08
2020-08-10 16:14:00.8810,-0.05,-0.11,-0.07
2020-08-10 16:14:00.9810,-0.19,-0.25,-0.04
2020-08-10 16:14:01.0810,-0.89,-0.69,-0.14
2020-08-10 16:14:01.1800,-0.38,-0.11,0.07
2020-08-10 16:14:01.2790,-1.05,0.38,0.01
2020-08-10 16:14:01.3780,-0.53,0.14,-0.12
2020-08-10 16:14:01.4770,0.29,-0.42,0.02
2020-08-10 16:14:01.5760,0.69,-0.37,0.06
2020-08-10 16:14:01.6760,1.21,-0.07,0.05
2020-08-10 16:14:01.7750,-1.9,-0.26,-0.75
2020-08-10 16:14:01.8740,0.18,-0.16,0.06
2020-08-10 16:14:01.9740,-0.06,-0.0,-0.07
2020-08-10 16:14:02.0730,-0.04,-0.03,-0.06
2020-08-10 16:14:02.1720,0.05,-0.01,-0.04
2020-08-10 16:14:02.2710,0.01,-0.01,-0.06
2020-08-10 16:14:02.3710,0.02,-0.03,-0.1
2020-08-10 16:14:02.4700,-0.02,-0.11,-0.1
2020-08-10 16:14:02.5690,-0.15,-0.25,-0.09
2020-08-10 16:14:02.6680,-0.81,-0.87,-0.2
2020-08-10 16:14:02.7680,-0.34,-0.28,0.02
2020-08-10 16:14:02.8670,-0.8,0.35,-0.01
2020-08-10 16:14:02.9660,-0.59,0.02,-0.11
2020-08-10 16:14:03.0660,0.27,-0.34,0.08
2020-08-10 16:14:03.1650,0.62,-0.38,0.04
2020-08-10 16:14:03.2640,1.28,-0.07,0.05
2020-08-10 16:14:03.3630,-1.3,-0.4,-0.79
2020-08-10 16:14:03.4630,0.1,-0.22,0.18
2020-08-10 16:14:03.5620,0.12,-0.07,-0.12
2020-08-10 16:14:03.6610,-0.02,-0.01,-0.03
2020-08-10 16:14:03.7600,-0.01,0.0,-0.05
2020-08-10 16:14:03.8590,-0.02,0.0,-0.06
2020-08-10 16:14:03.9590,-0.03,-0.01,-0.07
2020-08-10 16:14:04.0580,-0.11,-0.11,-0.02
2020-08-10 16:14:04.1570,-0.18,-0.25,-0.08
2020-08-10 16:14:04.2570,-0.69,-0.89,-0.26
2020-08-10 16:14:04.3560,-0.46,-0.21,0.11
2020-08-10 16:14:04.4550,-1.09,0.45,0.08
2020-08-10 16:14:04.5540,-0.47,-0.05,-0.14
2020-08-10 16:14:04.6540,0.41,-0.47,0.01
2020-08-10 16:14:04.7530,0.73,-0.32,-0.01
2020-08-10 16:14:04.8520,1.38,-0.07,0.11
2020-08-10 16:14:04.9510,-0.17,-0.18,0.66
2020-08-10 16:14:05.0510,0.0,-0.01,0.38
2020-08-10 16:14:05.1500,0.05,-0.07,-0.07
2020-08-10 16:14:05.2490,-0.02,-0.01,-0.05
2020-08-10 16:14:05.3490,0.0,0.01,-0.05
2020-08-10 16:14:05.4480,-0.0,-0.01,-0.09
2020-08-10 16:14:05.5470,-0.08,-0.0,-0.09
2020-08-10 16:14:05.6460,0.04,-0.16,-0.12
2020-08-10 16:14:05.7460,-0.17,-0.48,-0.13
2020-08-10 16:14:05.8450,-0.87,-0.68,0.2
2020-08-10 16:14:05.9440,0.04,0.02,0.09
2020-08-10 16:14:06.0430,-0.7,0.16,-0.04
2020-08-10 16:14:06.1430,-0.13,-0.17,-0.21
2020-08-10 16:14:06.2420,0.51,-0.42,-0.03
2020-08-10 16:14:06.3410,0.86,-0.46,0.02
2020-08-10 16:14:06.4400,1.58,0.09,0.26
2020-08-10 16:14:06.5400,0.77,-0.32,-0.43
2020-08-10 16:14:06.6390,0.36,-0.11,-0.14
2020-08-10 16:14:06.7380,0.24,-0.06,-0.1
2020-08-10 16:14:06.8370,0.09,-0.05,-0.09
2020-08-10 16:14:06.9370,0.0,-0.02,-0.05
2020-08-10 16:14:07.0360,-0.0,-0.01,-0.1
2020-08-10 16:14:07.1350,-0.05,-0.03,-0.04
2020-08-10 16:14:07.2350,-0.14,-0.2,-0.08
2020-08-10 16:14:07.3340,-0.49,-0.93,-0.15
2020-08-10 16:14:07.4330,-0.55,-0.23,0.3
2020-08-10 16:14:07.5320,-1.09,0.28,-0.11
2020-08-10 16:14:07.6320,-0.56,0.12,-0.09
2020-08-10 16:14:07.7310,0.19,-0.51,0.02
2020-08-10 16:14:07.8300,0.58,-0.29,0.03
2020-08-10 16:14:07.9290,1.0,-0.13,0.06
2020-08-10 16:14:08.0290,0.26,-0.47,-0.15
2020-08-10 16:14:08.1280,0.26,-0.13,-0.12
2020-08-10 16:14:08.2270,0.21,-0.07,-0.19
2020-08-10 16:14:08.3260,0.04,-0.02,-0.01
2020-08-10 16:14:08.4260,-0.01,-0.02,-0.04
2020-08-10 16:14:08.5250,0.04,-0.03,-0.1
2020-08-10 16:14:08.6240,-0.03,-0.02,-0.08
2020-08-10 16:14:08.7240,-0.14,-0.06,0.01
2020-08-10 16:14:08.8230,-0.32,-0.24,-0.02
2020-08-10 16:14:08.9220,-0.53,-0.87,-0.31
2020-08-10 16:14:09.0210,-0.36,-0.25,0.03
2020-08-10 16:14:09.1210,-1.09,0.38,0.08
2020-08-10 16:14:09.2200,-0.46,0.15,-0.12
2020-08-10 16:14:09.3190,0.21,-0.47,-0.01
2020-08-10 16:14:09.4190,0.61,-0.44,-0.01
2020-08-10 16:14:09.5180,1.48,-0.08,0.02
2020-08-10 16:14:09.6170,-2.11,-0.15,-0.52
2020-08-10 16:14:09.7160,0.15,-0.1,0.14
2020-08-10 16:14:09.8160,0.07,-0.08,-0.12
2020-08-10 16:14:09.9150,0.0,-0.02,-0.04
2020-08-10 16:14:10.0140,0.03,0.02,-0.06
2020-08-10 16:14:10.1130,-0.01,0.02,-0.07
2020-08-10 16:14:10.2120,-0.09,0.03,-0.04
2020-08-10 16:14:10.3120,-0.12,-0.14,-0.09
2020-08-10 16:14:10.4110,-0.29,-0.48,-0.07
2020-08-10 16:14:10.5100,-0.66,-0.58,0.07
2020-08-10 16:14:10.6100,-0.06,0.1,0.14
2020-08-10 16:14:10.7090,-0.55,0.12,-0.09
2020-08-10 16:14:10.8080,-0.07,-0.17,-0.07
2020-08-10 16:14:10.9070,0.44,-0.33,0.02
2020-08-10 16:14:11.0070,0.69,-0.38,-0.09
2020-08-10 16:14:11.1060,1.43,-0.01,0.1
2020-08-10 16:14:11.2050,0.59,-0.47,-0.45
2020-08-10 16:14:11.3040,0.25,-0.06,-0.02
2020-08-10 16:14:11.4040,-0.01,-0.0,-0.02
2020-08-10 16:14:11.5030,-0.0,0.0,-0.07
2020-08-10 16:14:11.6020,-0.0,-0.02,-0.04
2020-08-10 16:14:11.7010,-0.03,0.01,-0.06
2020-08-10 16:14:11.8010,-0.1,-0.03,-0.06
2020-08-10 16:14:11.9000,-0.09,-0.14,-0.04
2020-08-10 16:14:11.9990,-0.32,-0.67,-0.07
2020-08-10 16:14:12.0980,-0.83,-0.56,0.17
2020-08-10 16:14:12.1980,-0.81,-0.09,-0.08
2020-08-10 16:14:12.2970,-0.57,-0.01,-0.08
2020-08-10 16:14:12.3960,0.07,-0.3,0.04
2020-08-10 16:14:12.4960,0.46,-0.34,0.15
2020-08-10 16:14:12.5950,1.09,-0.2,0.12
2020-08-10 16:14:12.6940,1.37,0.0,0.1
2020-08-10 16:14:12.7930,0.92,-0.27,-0.06
2020-08-10 16:14:12.8930,-0.1,-0.02,-0.11
2020-08-10 16:14:12.9920,-0.08,0.01,-0.03
2020-08-10 16:14:13.0910,-0.0,-0.03,-0.09
2020-08-10 16:14:13.1900,-0.0,-0.02,-0.08
2020-08-10 16:14:13.2900,-0.04,0.06,-0.06
2020-08-10 16:14:13.3890,-0.01,-0.07,-0.09
2020-08-10 16:14:13.4880,-0.19,-0.3,-0.1
2020-08-10 16:14:13.5880,-0.5,-1.02,-0.38
2020-08-10 16:14:13.6870,-0.34,-0.11,0.1
2020-08-10 16:14:13.7860,-1.13,0.44,0.07
2020-08-10 16:14:13.8850,-0.6,0.17,-0.06
2020-08-10 16:14:13.9850,0.33,-0.51,0.02
2020-08-10 16:14:14.0840,0.75,-0.33,-0.02
2020-08-10 16:14:14.1830,1.15,-0.09,0.04
2020-08-10 16:14:14.2820,-1.95,-0.2,-0.67
2020-08-10 16:14:14.3820,0.15,-0.11,0.27
2020-08-10 16:14:14.4810,-0.19,0.03,-0.0
2020-08-10 16:14:14.5800,-0.07,-0.01,-0.02
2020-08-10 16:14:14.6790,-0.0,0.01,-0.03
2020-08-10 16:14:14.7790,-0.04,-0.0,-0.08
2020-08-10 16:14:14.8780,-0.05,0.01,-0.08
2020-08-10 16:14:14.9770,-0.01,-0.1,-0.06
2020-08-10 16:14:15.0760,-0.16,-0.37,-0.18
2020-08-10 16:14:15.1760,-0.56,-0.82,-0.08
2020-08-10 16:14:15.2750,-0.28,-0.22,0.05
2020-08-10 16:14:15.3740,-0.84,0.27,0.02
2020-08-10 16:14:15.4730,-0.22,-0.18,-0.23
2020-08-10 16:14:15.5730,0.45,-0.48,-0.0
2020-08-10 16:14:15.6720,0.87,-0.37,0.02
2020-08-10 16:14:15.7710,1.38,0.0,0.07
2020-08-10 16:14:15.8710,-0.62,-0.16,0.27
2020-08-10 16:14:15.9700,0.16,-0.02,0.23
2020-08-10 16:14:16.0690,0.04,-0.04,0.02
2020-08-10 16:14:16.1680,0.0,-0.0,-0.03
2020-08-10 16:14:16.2680,0.06,-0.01,-0.07
2020-08-10 16:14:16.3670,0.01,-0.0,-0.07
2020-08-10 16:14:16.4660,-0.04,-0.01,-0.09
2020-08-10 16:14:16.5650,-0.04,-0.14,-0.08
2020-08-10 16:14:16.6650,-0.24,-0.4,-0.05
2020-08-10 16:14:16.7640,-0.61,-0.78,-0.19
2020-08-10 16:14:16.8630,-0.29,-0.16,0.11
2020-08-10 16:14:16.9620,-0.73,0.25,-0.02
2020-08-10 16:14:17.0620,-0.35,-0.15,-0.15
2020-08-10 16:14:17.1610,0.66,-0.46,0.05
2020-08-10 16:14:17.2600,0.89,-0.36,-0.02
2020-08-10 16:14:17.3590,1.39,0.0,0.1
2020-08-10 16:14:17.4590,0.09,-0.33,-0.22
2020-08-10 16:14:17.5580,0.42,-0.14,0.05
2020-08-10 16:14:17.6570,0.03,-0.01,0.0
2020-08-10 16:14:17.7570,0.03,-0.02,-0.07
2020-08-10 16:14:17.8560,0.0,0.0,-0.05
2020-08-10 16:14:17.9550,-0.03,0.03,-0.05
2020-08-10 16:14:18.0550,0.0,-0.04,-0.06
2020-08-10 16:14:18.1540,-0.04,-0.18,-0.12
2020-08-10 16:14:18.2530,-0.26,-0.37,-0.1
2020-08-10 16:14:18.3520,-0.61,-0.48,0.33
2020-08-10 16:14:18.4510,-0.11,-0.13,0.06
2020-08-10 16:14:18.5510,-0.72,0.17,0.02
2020-08-10 16:14:18.6500,-0.3,-0.14,-0.24
2020-08-10 16:14:18.7490,0.4,-0.43,-0.0
2020-08-10 16:14:18.8480,1.09,-0.45,0.0
2020-08-10 16:14:18.9480,1.37,0.03,0.17
2020-08-10 16:14:19.0470,0.66,-0.62,-0.45
2020-08-10 16:14:19.1460,0.01,0.02,0.24
2020-08-10 16:14:19.2450,-0.1,-0.01,-0.02
2020-08-10 16:14:19.3450,-0.05,-0.02,-0.04
2020-08-10 16:14:19.4440,0.02,-0.01,-0.06
2020-08-10 16:14:19.5430,-0.03,0.0,-0.09
2020-08-10 16:14:19.6430,0.04,-0.1,-0.15
2020-08-10 16:14:19.7420,0.02,-0.15,-0.09
2020-08-10 16:14:19.8410,-0.31,-0.6,-0.04
2020-08-10 16:14:19.9410,-0.59,-0.43,0.7
2020-08-10 16:14:20.0400,-0.92,-0.1,-0.11
2020-08-10 16:14:20.1390,-0.6,0.0,-0.04
2020-08-10 16:14:20.2380,0.18,-0.29,0.05
2020-08-10 16:14:20.3380,0.52,-0.34,-0.01
2020-08-10 16:14:20.4370,0.99,-0.16,0.04
2020-08-10 16:14:20.5360,1.26,-0.07,0.15
2020-08-10 16:14:20.6350,0.71,-0.35,-0.26
2020-08-10 16:14:20.7340,0.12,-0.06,-0.09
2020-08-10 16:14:20.8340,0.03,-0.02,-0.07
2020-08-10 16:14:20.9330,-0.04,-0.03,-0.04
2020-08-10 16:14:21.0320,0.0,0.0,-0.06
2020-08-10 16:14:21.1310,-0.0,0.0,-0.09
2020-08-10 16:14:21.2310,-0.05,-0.06,-0.02
2020-08-10 16:14:21.3300,-0.11,-0.25,-0.08
2020-08-10 16:14:21.4290,-0.38,-1.01,-0.39
2020-08-10 16:14:21.5290,-0.39,-0.24,0.26
2020-08-10 16:14:21.6280,-1.0,0.25,-0.01
2020-08-10 16:14:21.7270,-0.64,0.11,-0.04
2020-08-10 16:14:21.8260,0.22,-0.49,-0.0
2020-08-10 16:14:21.9260,0.72,-0.27,-0.0
2020-08-10 16:14:22.0250,1.12,-0.12,0.12
2020-08-10 16:14:22.1240,0.92,-0.28,0.1
2020-08-10 16:14:22.2240,0.83,-0.41,0.01
2020-08-10 16:14:22.3230,0.21,-0.11,-0.13
2020-08-10 16:14:22.4220,0.01,-0.01,-0.05
2020-08-10 16:14:22.5210,-0.0,-0.01,-0.05
2020-08-10 16:14:22.6200,0.02,-0.01,-0.09
2020-08-10 16:14:22.7200,-0.02,-0.01,-0.09
2020-08-10 16:14:22.8190,-0.01,-0.07,-0.06
2020-08-10 16:14:22.9180,-0.13,-0.19,-0.08
2020-08-10 16:14:23.0180,-0.31,-0.77,-0.25
2020-08-10 16:14:23.1170,-1.28,-0.51,0.77
2020-08-10 16:14:23.2160,-0.96,0.18,-0.13
2020-08-10 16:14:23.3150,-0.44,0.24,-0.14
2020-08-10 16:14:23.4150,0.18,-0.46,-0.12
2020-08-10 16:14:23.5140,0.65,-0.33,-0.02
2020-08-10 16:14:23.6130,0.97,-0.21,0.01
2020-08-10 16:14:23.7120,-0.38,-0.57,-0.3
2020-08-10 16:14:23.8120,-0.04,-0.2,-0.03
2020-08-10 16:14:23.9110,0.03,-0.03,-0.14
2020-08-10 16:14:24.0100,-0.05,-0.01,-0.07
2020-08-10 16:14:24.1100,-0.05,-0.01,-0.05
2020-08-10 16:14:24.2090,-0.01,-0.0,-0.04
2020-08-10 16:14:24.3080,-0.01,0.01,-0.08
2020-08-10 16:14:24.4070,-0.15,-0.01,-0.0
2020-08-10 16:14:24.5070,-0.1,-0.21,-0.13
2020-08-10 16:14:24.6060,-0.53,-0.79,-0.24
2020-08-10 16:14:24.7050,-0.67,-0.45,0.16
2020-08-10 16:14:24.8040,-1.02,0.11,-0.03
2020-08-10 16:14:24.9040,-0.45,0.16,-0.11
2020-08-10 16:14:25.0030,0.21,-0.52,-0.03
2020-08-10 16:14:25.1020,0.61,-0.29,0.03
2020-08-10 16:14:25.2010,1.09,-0.15,0.05
2020-08-10 16:14:25.3010,0.79,-0.31,-0.04
2020-08-10 16:14:25.4000,0.48,-0.03,0.16
2020-08-10 16:14:25.4990,-0.2,-0.03,-0.05
2020-08-10 16:14:25.5980,-0.14,0.01,-0.04
2020-08-10 16:14:25.6980,0.01,-0.02,-0.06
2020-08-10 16:14:25.7970,-0.03,0.0,-0.05
2020-08-10 16:14:25.8960,-0.03,0.01,-0.09
2020-08-10 16:14:25.9960,-0.05,-0.12,-0.07
2020-08-10 16:14:26.0950,-0.16,-0.19,-0.03
2020-08-10 16:14:26.1940,-0.54,-0.8,-0.15
2020-08-10 16:14:26.2930,-0.75,-0.47,0.35
2020-08-10 16:14:26.3930,-0.89,0.2,-0.22
2020-08-10 16:14:26.4920,-0.55,0.19,-0.08
2020-08-10 16:14:26.5910,0.11,-0.59,-0.02
2020-08-10 16:14:26.6900,0.7,-0.38,0.12
2020-08-10 16:14:26.7900,0.98,-0.11,0.02
2020-08-10 16:14:26.8890,1.14,-0.01,0.07
2020-08-10 16:14:26.9880,0.21,-0.22,-0.23
2020-08-10 16:14:27.0870,0.47,-0.24,-0.12
2020-08-10 16:14:27.1870,0.1,-0.04,-0.07
2020-08-10 16:14:27.2860,0.04,-0.02,-0.09
2020-08-10 16:14:27.3850,0.03,0.0,-0.05
2020-08-10 16:14:27.4840,-0.06,0.01,-0.08
2020-08-10 16:14:27.5840,-0.07,-0.03,-0.03
2020-08-10 16:14:27.6830,-0.09,-0.14,-0.1
2020-08-10 16:14:27.7820,-0.35,-0.51,-0.05
2020-08-10 16:14:27.8820,-0.53,-0.43,0.55
2020-08-10 16:14:27.9810,-0.39,-0.15,-0.05
2020-08-10 16:14:28.0800,-0.55,0.1,-0.1
2020-08-10 16:14:28.1790,0.08,-0.41,-0.02
2020-08-10 16:14:28.2790,0.45,-0.28,0.01
2020-08-10 16:14:28.3780,0.81,-0.36,0.06
2020-08-10 16:14:28.4770,1.38,-0.0,0.1
2020-08-10 16:14:28.5770,0.32,-0.42,-0.35
2020-08-10 16:14:28.6760,0.14,-0.03,0.22
2020-08-10 16:14:28.7750,-0.03,-0.02,-0.02
2020-08-10 16:14:28.8740,-0.04,0.01,-0.04
2020-08-10 16:14:28.9730,-0.01,-0.01,-0.07
2020-08-10 16:14:29.0730,-0.03,0.01,-0.06
2020-08-10 16:14:29.1720,-0.03,-0.04,-0.04
2020-08-10 16:14:29.2710,-0.02,-0.16,-0.09
2020-08-10 16:14:29.3710,-0.23,-0.47,0.01
2020-08-10 16:14:29.4700,-0.57,-0.63,0.05
2020-08-10 16:14:29.5690,-0.17,-0.12,-0.04
2020-08-10 16:14:29.6680,-0.63,0.08,-0.04
2020-08-10 16:14:29.7670,-0.29,-0.18,-0.21
2020-08-10 16:14:29.8670,0.48,-0.37,-0.02
2020-08-10 16:14:29.9660,0.83,-0.39,0.08
2020-08-10 16:14:30.0650,1.4,-0.04,0.11
2020-08-10 16:14:30.1650,0.68,-0.36,-0.42
2020-08-10 16:14:30.2640,0.45,-0.16,0.03
2020-08-10 16:14:30.3630,0.14,-0.06,-0.08
2020-08-10 16:14:30.4630,0.03,-0.03,-0.07
2020-08-10 16:14:30.5620,0.04,0.01,-0.05
2020-08-10 16:14:30.6610,-0.0,-0.0,-0.09
2020-08-10 16:14:30.7600,-0.04,-0.06,-0.06
2020-08-10 16:14:30.8600,-0.11,-0.16,-0.05
2020-08-10 16:14:30.9590,-0.3,-0.46,-0.09
2020-08-10 16:14:31.0580,-1.06,-0.65,0.42
2020-08-10 16:14:31.1570,-0.18,-0.14,-0.06
2020-08-10 16:14:31.2560,-0.31,0.22,-0.15
2020-08-10 16:14:31.3560,0.15,-0.33,-0.19
2020-08-10 16:14:31.4550,0.39,-0.3,-0.07
2020-08-10 16:14:31.5540,0.72,-0.23,-0.07
2020-08-10 16:14:31.6540,1.09,-0.02,0.12
2020-08-10 16:14:31.7530,-0.54,-0.03,0.18
2020-08-10 16:14:31.8520,0.09,0.02,0.3
2020-08-10 16:14:31.9510,-0.04,-0.04,-0.02
2020-08-10 16:14:32.0500,-0.09,0.01,0.02
2020-08-10 16:14:32.1500,0.03,0.01,-0.08
2020-08-10 16:14:32.2490,0.03,-0.02,-0.09
2020-08-10 16:14:32.3480,-0.03,-0.02,-0.08
2020-08-10 16:14:32.4480,-0.08,-0.06,-0.04
2020-08-10 16:14:32.5470,-0.12,-0.17,-0.09
2020-08-10 16:14:32.6460,-0.39,-0.62,-0.11
2020-08-10 16:14:32.7460,-0.97,-0.43,0.55
2020-08-10 16:14:32.8450,-0.66,-0.05,-0.15
2020-08-10 16:14:32.9440,-0.42,0.14,-0.07
2020-08-10 16:14:33.0430,0.17,-0.4,-0.03
2020-08-10 16:14:33.1430,0.4,-0.33,0.07
2020-08-10 16:14:33.2420,0.83,-0.25,0.01
2020-08-10 16:14:33.3410,1.11,-0.0,0.17
2020-08-10 16:14:33.4400,0.59,-0.3,-0.44
2020-08-10 16:14:33.5400,0.31,-0.1,-0.05
2020-08-10 16:14:33.6390,0.03,-0.01,-0.03
2020-08-10 16:14:33.7380,0.05,-0.03,-0.09
2020-08-10 16:14:33.8390,0.02,0.01,-0.06
2020-08-10 16:14:33.9370,-0.0,0.0,-0.06
2020-08-10 16:14:34.0360,-0.03,0.01,-0.06
2020-08-10 16:14:34.1350,-0.03,-0.08,-0.08
2020-08-10 16:14:34.2340,-0.13,-0.2,-0.1
2020-08-10 16:14:34.3340,-0.29,-0.92,-0.35
2020-08-10 16:14:34.4330,-0.65,-0.19,0.44
2020-08-10 16:14:34.5320,-1.0,0.33,-0.02
2020-08-10 16:14:34.6320,-0.54,0.08,-0.05
2020-08-10 16:14:34.7310,0.18,-0.48,0.03
2020-08-10 16:14:34.8300,0.52,-0.3,0.03
2020-08-10 16:14:34.9290,0.97,-0.08,0.01
2020-08-10 16:14:35.0290,0.95,-0.17,0.1
2020-08-10 16:14:35.1280,0.56,-0.3,-0.05
2020-08-10 16:14:35.2270,0.21,-0.08,-0.18
2020-08-10 16:14:35.3260,0.04,0.02,-0.05
2020-08-10 16:14:35.4260,0.01,-0.04,-0.08
2020-08-10 16:14:35.5250,-0.02,0.01,-0.05
2020-08-10 16:14:35.6240,-0.01,-0.02,-0.06
2020-08-10 16:14:35.7230,-0.05,-0.02,-0.07
2020-08-10 16:14:35.8230,-0.05,-0.14,-0.1
2020-08-10 16:14:35.9220,-0.2,-0.41,-0.09
2020-08-10 16:14:36.0210,-0.99,-0.45,0.24
2020-08-10 16:14:36.1200,0.03,-0.03,-0.16
2020-08-10 16:14:36.2200,-0.52,0.2,0.06
2020-08-10 16:14:36.3190,-0.14,-0.17,-0.19
2020-08-10 16:14:36.4180,0.39,-0.3,-0.07
2020-08-10 16:14:36.5180,0.69,-0.34,-0.04
2020-08-10 16:14:36.6170,1.09,-0.04,-0.04
2020-08-10 16:14:36.7170,-1.39,-0.17,-0.14
2020-08-10 16:14:36.8160,0.13,-0.06,-0.09
2020-08-10 16:14:36.9150,0.05,-0.04,-0.09
2020-08-10 16:14:37.0140,-0.07,0.01,-0.04
2020-08-10 16:14:37.1130,-0.04,0.01,-0.04
2020-08-10 16:14:37.2130,-0.0,-0.01,-0.06
2020-08-10 16:14:37.3120,0.02,-0.02,-0.09
2020-08-10 16:14:37.4110,-0.04,-0.01,-0.06
2020-08-10 16:14:37.5100,-0.02,-0.12,-0.07
2020-08-10 16:14:37.6090,-0.21,-0.34,-0.04
2020-08-10 16:14:37.7090,-0.56,-0.53,-0.08
2020-08-10 16:14:37.8080,-0.17,-0.11,-0.04
2020-08-10 16:14:37.9070,-0.67,0.22,0.03
2020-08-10 16:14:38.0070,-0.34,-0.07,-0.13
2020-08-10 16:14:38.1060,0.24,-0.34,-0.1
2020-08-10 16:14:38.2050,0.41,-0.27,-0.08
2020-08-10 16:14:38.3040,0.67,-0.12,0.03
2020-08-10 16:14:38.4040,0.78,0.05,-0.03
2020-08-10 16:14:38.5030,-2.03,-0.28,-0.12
2020-08-10 16:14:38.6020,-0.03,-0.1,0.45
2020-08-10 16:14:38.7010,-0.11,-0.0,-0.12
2020-08-10 16:14:38.8010,0.01,-0.02,-0.06
2020-08-10 16:14:38.9000,0.05,0.02,-0.05
2020-08-10 16:14:38.9990,0.06,-0.05,-0.11
2020-08-10 16:14:39.0990,-0.0,-0.01,-0.02
2020-08-10 16:14:39.1980,0.04,-0.06,-0.05
2020-08-10 16:14:39.2970,-0.02,0.02,-0.12
2020-08-10 16:14:39.3960,0.08,0.06,-0.02
2020-08-10 16:14:39.4960,-0.12,-0.03,-0.09
2020-08-10 16:14:39.5950,-0.03,-0.08,-0.08
2020-08-10 16:14:39.6940,0.0,0.02,-0.03
2020-08-10 16:14:39.7930,0.14,0.05,-0.11
2020-08-10 16:14:39.8930,-0.03,-0.02,-0.07
2020-08-10 16:14:39.9920,0.02,0.03,-0.06
2020-08-10 16:14:40.0910,-0.01,-0.0,-0.03
2020-08-10 16:14:40.1900,-0.09,0.01,-0.01
2020-08-10 16:14:40.2900,0.12,-0.01,-0.11
