time,ax,ay,az
2020-08-10 16:8:12.1620,-0.02,0.01,-0.01
2020-08-10 16:8:12.2610,0.04,-0.01,0.0
2020-08-10 16:8:12.3600,-0.01,0.0,-0.0
2020-08-10 16:8:12.4600,0.01,0.02,-0.02
2020-08-10 16:8:12.5590,0.02,0.01,-0.01
2020-08-10 16:8:12.6580,-0.05,0.01,-0.01
2020-08-10 16:8:12.7570,0.01,0.03,0.01
2020-08-10 16:8:12.8570,-0.0,0.01,0.02
2020-08-10 16:8:12.9560,-0.01,-0.0,0.02
2020-08-10 16:8:13.0550,-0.02,0.02,-0.03
2020-08-10 16:8:13.1540,0.04,-0.0,0.02
2020-08-10 16:8:13.2540,-0.03,-0.04,0.03
2020-08-10 16:8:13.3530,0.05,-0.0,-0.05
2020-08-10 16:8:13.4520,0.01,-0.03,0.06
2020-08-10 16:8:13.5510,0.1,0.04,-0.06
2020-08-10 16:8:13.6510,0.01,-0.03,-0.0
2020-08-10 16:8:13.7500,0.02,-0.0,0.01
2020-08-10 16:8:13.8490,-0.02,0.01,-0.02
2020-08-10 16:8:13.9480,-0.01,-0.01,0.01
2020-08-10 16:8:14.0480,-0.0,0.01,0.01
2020-08-10 16:8:14.1470,-0.0,0.0,-0.0
2020-08-10 16:8:14.2460,0.01,0.0,-0.01
2020-08-10 16:8:14.3460,0.0,-0.0,-0.01
2020-08-10 16:8:14.4450,-0.0,0.0,0.0
2020-08-10 16:8:14.5440,-0.0,0.0,-0.0
2020-08-10 16:8:14.6430,-0.01,0.01,-0.0
2020-08-10 16:8:14.7420,-0.0,0.0,-0.01
2020-08-10 16:8:14.8420,-0.0,0.01,-0.0
2020-08-10 16:8:14.9410,-0.01,-0.0,0.01
2020-08-10 16:8:15.0420,0.01,-0.0,0.0
2020-08-10 16:8:15.1400,-0.01,0.02,0.01
2020-08-10 16:8:15.2390,-0.0,-0.01,-0.02
2020-08-10 16:8:15.3380,0.01,0.01,0.01
2020-08-10 16:8:15.4410,-0.02,0.01,0.01
2020-08-10 16:8:15.5370,0.01,-0.03,-0.02
2020-08-10 16:8:15.6360,-0.02,0.01,0.01
2020-08-10 16:8:15.7350,0.03,-0.02,-0.01
2020-08-10 16:8:15.8340,-0.01,0.02,-0.0
2020-08-10 16:8:15.9340,0.03,0.02,-0.06
2020-08-10 16:8:16.0330,0.03,-0.02,-0.04
2020-08-10 16:8:16.1320,0.02,-0.01,0.01
2020-08-10 16:8:16.2320,-0.09,0.02,-0.01
2020-08-10 16:8:16.3310,-0.02,0.01,0.01
2020-08-10 16:8:16.4300,0.04,0.03,-0.01
2020-08-10 16:8:16.5290,0.03,-0.0,-0.04
2020-08-10 16:8:16.6290,0.02,0.03,0.01
2020-08-10 16:8:16.7280,0.0,-0.01,-0.03
2020-08-10 16:8:16.8270,0.03,0.01,0.01
2020-08-10 16:8:16.9270,0.01,-0.0,-0.01
2020-08-10 16:8:17.0260,0.03,0.01,0.02
2020-08-10 16:8:17.1250,-0.02,0.01,0.0
2020-08-10 16:8:17.2240,-0.02,0.01,0.04
2020-08-10 16:8:17.3230,-0.11,0.0,0.07
2020-08-10 16:8:17.4230,-0.16,-0.08,0.08
2020-08-10 16:8:17.5220,-0.28,-0.25,0.42
2020-08-10 16:8:17.6210,-0.92,0.19,0.12
2020-08-10 16:8:17.7210,-0.48,0.06,-0.17
2020-08-10 16:8:17.8200,-0.05,-0.23,-0.18
2020-08-10 16:8:17.9190,0.44,-0.08,-0.17
2020-08-10 16:8:18.0180,0.62,0.07,-0.07
2020-08-10 16:8:18.1180,-0.26,-0.28,-0.18
2020-08-10 16:8:18.2170,0.58,-0.4,-0.24
2020-08-10 16:8:18.3160,0.14,-0.0,-0.04
2020-08-10 16:8:18.4150,0.04,0.01,0.05
2020-08-10 16:8:18.5150,-0.08,0.02,0.06
2020-08-10 16:8:18.6140,0.08,-0.02,-0.08
2020-08-10 16:8:18.7130,-0.03,0.07,0.06
2020-08-10 16:8:18.8130,-0.1,-0.03,-0.06
2020-08-10 16:8:18.9120,-0.04,-0.1,-0.0
2020-08-10 16:8:19.0110,-0.11,-0.22,0.03
2020-08-10 16:8:19.1120,-0.54,-0.64,0.14
2020-08-10 16:8:19.2100,-0.59,-0.41,0.46
2020-08-10 16:8:19.3100,-0.9,0.1,0.07
2020-08-10 16:8:19.4080,-0.6,0.19,-0.04
2020-08-10 16:8:19.5070,0.23,-0.42,-0.1
2020-08-10 16:8:19.6070,0.67,-0.41,-0.02
2020-08-10 16:8:19.7060,0.79,-0.19,0.01
2020-08-10 16:8:19.8050,0.85,-0.08,0.02
2020-08-10 16:8:19.9040,0.58,-0.32,-0.32
2020-08-10 16:8:20.0040,0.1,0.03,0.15
2020-08-10 16:8:20.1030,0.03,-0.0,0.08
2020-08-10 16:8:20.2050,-0.05,-0.01,-0.04
2020-08-10 16:8:20.3010,0.03,0.04,-0.01
2020-08-10 16:8:20.4010,-0.03,0.01,0.03
2020-08-10 16:8:20.5040,-0.03,-0.05,-0.02
2020-08-10 16:8:20.5990,-0.07,-0.18,-0.1
2020-08-10 16:8:20.6990,-0.17,-0.25,0.06
2020-08-10 16:8:20.7980,-0.57,-0.57,0.05
2020-08-10 16:8:20.8970,-0.17,-0.24,0.15
2020-08-10 16:8:20.9970,-0.85,0.36,0.15
2020-08-10 16:8:21.0960,-0.6,0.16,0.02
2020-08-10 16:8:21.1950,0.11,-0.35,-0.05
2020-08-10 16:8:21.2940,0.41,-0.4,-0.11
2020-08-10 16:8:21.3930,0.84,-0.1,-0.13
2020-08-10 16:8:21.4930,1.14,0.05,-0.01
2020-08-10 16:8:21.5920,-0.03,-0.5,0.09
2020-08-10 16:8:21.6910,0.36,-0.05,0.12
2020-08-10 16:8:21.7900,-0.02,-0.04,0.04
2020-08-10 16:8:21.8900,-0.01,0.01,-0.0
2020-08-10 16:8:21.9890,-0.06,0.09,0.09
2020-08-10 16:8:22.0880,-0.04,0.01,0.04
2020-08-10 16:8:22.1910,-0.04,-0.0,-0.07
2020-08-10 16:8:22.2870,-0.02,-0.12,-0.04
2020-08-10 16:8:22.3860,-0.21,-0.29,0.08
2020-08-10 16:8:22.4870,-0.57,-0.75,0.04
2020-08-10 16:8:22.5850,-0.33,-0.14,0.15
2020-08-10 16:8:22.6840,-0.89,0.38,0.11
2020-08-10 16:8:22.7830,-0.5,0.02,-0.06
2020-08-10 16:8:22.8830,0.11,-0.27,0.02
2020-08-10 16:8:22.9850,0.57,-0.44,0.03
2020-08-10 16:8:23.0810,1.13,-0.1,-0.15
2020-08-10 16:8:23.1800,0.13,-0.34,0.04
2020-08-10 16:8:23.2800,0.4,-0.15,-0.19
2020-08-10 16:8:23.3800,-0.18,0.05,-0.05
2020-08-10 16:8:23.4780,-0.06,0.0,-0.01
2020-08-10 16:8:23.5770,0.01,-0.0,-0.03
2020-08-10 16:8:23.6760,-0.03,0.02,0.03
2020-08-10 16:8:23.7760,-0.03,0.01,-0.04
2020-08-10 16:8:23.8750,0.0,-0.05,-0.0
2020-08-10 16:8:23.9740,-0.07,-0.17,0.01
2020-08-10 16:8:24.0740,-0.33,-0.48,0.02
2020-08-10 16:8:24.1730,-0.67,-0.65,0.48
2020-08-10 16:8:24.2720,-0.64,-0.07,0.07
2020-08-10 16:8:24.3710,-0.52,0.19,-0.03
2020-08-10 16:8:24.4710,-0.1,-0.19,-0.26
2020-08-10 16:8:24.5740,0.41,-0.31,-0.15
2020-08-10 16:8:24.6690,0.66,-0.29,-0.06
2020-08-10 16:8:24.7680,1.01,-0.02,0.02
2020-08-10 16:8:24.8680,-1.5,-0.19,-0.32
2020-08-10 16:8:24.9670,0.32,-0.26,0.03
2020-08-10 16:8:25.0660,-0.18,0.01,-0.09
2020-08-10 16:8:25.1660,-0.01,-0.01,-0.02
2020-08-10 16:8:25.2660,-0.03,0.02,0.0
2020-08-10 16:8:25.3640,-0.02,-0.05,-0.06
2020-08-10 16:8:25.4630,-0.02,0.0,-0.01
2020-08-10 16:8:25.5630,-0.06,-0.04,0.01
2020-08-10 16:8:25.6640,-0.08,-0.19,-0.06
2020-08-10 16:8:25.7610,-0.53,-0.6,0.15
2020-08-10 16:8:25.8600,-0.65,-0.39,0.38
2020-08-10 16:8:25.9680,-0.87,0.01,0.16
2020-08-10 16:8:26.0590,-0.54,0.17,-0.0
2020-08-10 16:8:26.1580,0.17,-0.7,-0.11
2020-08-10 16:8:26.2590,0.39,-0.38,-0.01
2020-08-10 16:8:26.3570,0.8,-0.15,-0.08
2020-08-10 16:8:26.4560,1.18,0.0,-0.05
2020-08-10 16:8:26.5550,0.53,-0.49,-0.1
2020-08-10 16:8:26.6540,0.24,0.05,0.2
2020-08-10 16:8:26.7540,-0.0,-0.02,0.06
2020-08-10 16:8:26.8530,0.01,-0.0,0.0
2020-08-10 16:8:26.9520,0.01,0.01,-0.02
2020-08-10 16:8:27.0520,-0.01,-0.0,-0.06
2020-08-10 16:8:27.1510,-0.06,0.0,-0.04
2020-08-10 16:8:27.2500,-0.05,-0.12,-0.02
2020-08-10 16:8:27.3490,-0.18,-0.19,0.1
2020-08-10 16:8:27.4490,-0.48,-0.75,-0.05
2020-08-10 16:8:27.5500,-0.23,-0.15,0.25
2020-08-10 16:8:27.6470,-0.87,0.2,0.16
2020-08-10 16:8:27.7460,-0.66,0.2,0.1
2020-08-10 16:8:27.8460,0.19,-0.47,-0.07
2020-08-10 16:8:27.9450,0.25,-0.27,-0.04
2020-08-10 16:8:28.0440,0.69,-0.18,-0.02
2020-08-10 16:8:28.1430,1.01,0.01,-0.07
2020-08-10 16:8:28.2430,-0.69,-0.07,0.15
2020-08-10 16:8:28.3420,0.94,-0.46,0.49
2020-08-10 16:8:28.4410,-0.34,-0.01,0.09
2020-08-10 16:8:28.5400,-0.08,0.01,-0.04
2020-08-10 16:8:28.6400,0.01,-0.0,-0.03
2020-08-10 16:8:28.7390,-0.03,-0.01,-0.02
2020-08-10 16:8:28.8380,-0.06,0.01,-0.03
2020-08-10 16:8:28.9380,-0.14,-0.06,-0.01
2020-08-10 16:8:29.0370,-0.18,-0.36,-0.04
2020-08-10 16:8:29.1380,-0.62,-0.67,0.13
2020-08-10 16:8:29.2360,-0.19,-0.22,0.1
2020-08-10 16:8:29.3350,-0.85,0.34,0.08
2020-08-10 16:8:29.4340,-0.51,0.14,-0.06
2020-08-10 16:8:29.5330,0.27,-0.36,-0.08
2020-08-10 16:8:29.6320,0.48,-0.23,-0.1
2020-08-10 16:8:29.7350,1.03,-0.12,-0.01
2020-08-10 16:8:29.8310,1.06,-0.05,-0.01
2020-08-10 16:8:29.9300,0.58,-0.26,0.01
2020-08-10 16:8:30.0290,0.04,-0.01,-0.03
2020-08-10 16:8:30.1290,0.05,0.01,-0.04
2020-08-10 16:8:30.2300,0.03,-0.01,-0.05
2020-08-10 16:8:30.3270,-0.01,-0.01,-0.05
2020-08-10 16:8:30.4270,-0.02,0.02,0.01
2020-08-10 16:8:30.5260,-0.06,-0.02,-0.03
2020-08-10 16:8:30.6250,-0.11,-0.15,-0.03
2020-08-10 16:8:30.7250,-0.21,-0.29,0.03
2020-08-10 16:8:30.8240,-0.6,-0.49,0.21
2020-08-10 16:8:30.9230,-0.06,-0.19,0.06
2020-08-10 16:8:31.0220,-0.85,0.33,0.18
2020-08-10 16:8:31.1220,-0.51,0.12,-0.0
2020-08-10 16:8:31.2210,0.13,-0.36,-0.06
2020-08-10 16:8:31.3200,0.58,-0.31,-0.08
2020-08-10 16:8:31.4190,0.94,-0.04,-0.05
2020-08-10 16:8:31.5180,0.98,-0.0,-0.07
2020-08-10 16:8:31.6180,0.36,-0.28,-0.33
2020-08-10 16:8:31.7170,0.15,0.12,-0.06
2020-08-10 16:8:31.8160,0.21,-0.04,-0.03
2020-08-10 16:8:31.9160,0.06,-0.02,-0.09
2020-08-10 16:8:32.0150,0.02,0.03,-0.04
2020-08-10 16:8:32.1170,0.0,-0.0,-0.07
2020-08-10 16:8:32.2130,-0.06,-0.02,0.03
2020-08-10 16:8:32.3120,-0.05,-0.16,-0.12
2020-08-10 16:8:32.4120,-0.2,-0.28,-0.0
2020-08-10 16:8:32.5110,-0.38,-0.48,-0.02
2020-08-10 16:8:32.6130,-0.45,-0.3,0.25
2020-08-10 16:8:32.7100,-1.01,0.2,0.16
2020-08-10 16:8:32.8090,-0.49,0.11,-0.16
2020-08-10 16:8:32.9080,0.25,-0.4,-0.04
2020-08-10 16:8:33.0080,0.47,-0.35,-0.04
2020-08-10 16:8:33.1070,0.99,-0.09,-0.12
2020-08-10 16:8:33.2060,1.19,0.0,0.0
2020-08-10 16:8:33.3050,0.67,-0.33,-0.02
2020-08-10 16:8:33.4050,-0.14,0.01,-0.02
2020-08-10 16:8:33.5060,-0.03,-0.0,-0.05
2020-08-10 16:8:33.6030,0.01,-0.01,-0.06
2020-08-10 16:8:33.7020,0.01,-0.01,-0.02
2020-08-10 16:8:33.8020,-0.02,-0.01,-0.03
2020-08-10 16:8:33.9010,-0.04,-0.01,-0.04
2020-08-10 16:8:34.0020,-0.06,-0.12,-0.1
2020-08-10 16:8:34.0990,-0.25,-0.37,0.0
2020-08-10 16:8:34.2010,-0.57,-0.46,0.17
2020-08-10 16:8:34.2980,0.04,-0.2,-0.02
2020-08-10 16:8:34.3970,-0.91,0.45,0.22
2020-08-10 16:8:34.4960,-0.34,0.11,-0.04
2020-08-10 16:8:34.5980,0.13,-0.33,-0.01
2020-08-10 16:8:34.6950,0.49,-0.38,-0.04
2020-08-10 16:8:34.7940,0.85,-0.08,-0.06
2020-08-10 16:8:34.8950,0.98,0.03,-0.17
2020-08-10 16:8:34.9930,0.03,-0.39,0.11
2020-08-10 16:8:35.0920,0.08,0.15,0.12
2020-08-10 16:8:35.1920,0.09,-0.03,0.03
2020-08-10 16:8:35.2910,0.06,-0.04,-0.07
2020-08-10 16:8:35.3900,0.06,-0.02,-0.04
2020-08-10 16:8:35.4900,-0.0,-0.01,-0.06
2020-08-10 16:8:35.5890,-0.03,-0.0,-0.03
2020-08-10 16:8:35.6880,-0.11,-0.06,0.03
2020-08-10 16:8:35.7870,-0.2,-0.36,0.01
2020-08-10 16:8:35.8860,-0.54,-0.39,0.03
2020-08-10 16:8:35.9860,-0.48,-0.22,0.32
2020-08-10 16:8:36.0850,-0.75,-0.01,0.21
2020-08-10 16:8:36.1840,-0.41,0.12,0.05
2020-08-10 16:8:36.2830,-0.05,-0.22,-0.03
2020-08-10 16:8:36.3830,0.33,-0.22,-0.03
2020-08-10 16:8:36.4820,0.73,-0.28,-0.18
2020-08-10 16:8:36.5810,1.24,-0.09,-0.23
2020-08-10 16:8:36.6800,-0.07,-0.4,0.11
2020-08-10 16:8:36.7800,0.38,-0.15,0.07
2020-08-10 16:8:36.8790,-0.01,0.01,0.01
2020-08-10 16:8:36.9780,-0.02,0.02,0.0
2020-08-10 16:8:37.0770,-0.01,0.0,-0.02
2020-08-10 16:8:37.1770,0.01,-0.0,-0.04
2020-08-10 16:8:37.2770,-0.04,0.02,-0.04
2020-08-10 16:8:37.3750,-0.09,-0.04,-0.03
2020-08-10 16:8:37.4740,-0.13,-0.13,0.01
2020-08-10 16:8:37.5740,-0.27,-0.45,-0.05
2020-08-10 16:8:37.6730,-0.54,-0.36,0.17
2020-08-10 16:8:37.7730,-0.16,0.06,0.18
2020-08-10 16:8:37.8720,-0.75,0.2,0.05
2020-08-10 16:8:37.9710,-0.14,-0.27,-0.12
2020-08-10 16:8:38.0700,0.3,-0.29,-0.07
2020-08-10 16:8:38.1690,0.62,-0.32,-0.06
2020-08-10 16:8:38.2690,1.12,-0.12,-0.12
2020-08-10 16:8:38.3680,-1.69,-0.07,-0.27
2020-08-10 16:8:38.4670,0.32,-0.06,0.0
2020-08-10 16:8:38.5700,0.09,-0.05,-0.02
2020-08-10 16:8:38.6660,0.08,-0.04,0.0
2020-08-10 16:8:38.7650,-0.04,0.05,0.04
2020-08-10 16:8:38.8640,-0.03,-0.01,-0.05
2020-08-10 16:8:38.9630,-0.07,-0.03,-0.05
2020-08-10 16:8:39.0630,-0.05,-0.04,-0.03
2020-08-10 16:8:39.1620,-0.06,-0.19,-0.06
2020-08-10 16:8:39.2610,-0.37,-0.53,-0.01
2020-08-10 16:8:39.3610,-0.75,-0.49,0.56
2020-08-10 16:8:39.4600,-0.44,-0.11,0.14
2020-08-10 16:8:39.5590,-0.6,0.14,0.03
2020-08-10 16:8:39.6580,-0.03,-0.31,-0.08
2020-08-10 16:8:39.7580,0.53,-0.27,-0.07
2020-08-10 16:8:39.8570,0.81,-0.25,-0.09
2020-08-10 16:8:39.9560,1.27,-0.02,-0.11
2020-08-10 16:8:40.0560,0.2,-0.39,-0.01
2020-08-10 16:8:40.1550,0.08,-0.03,0.18
2020-08-10 16:8:40.2550,-0.08,-0.03,-0.0
2020-08-10 16:8:40.3530,-0.0,0.01,-0.03
2020-08-10 16:8:40.4520,-0.03,0.03,-0.01
2020-08-10 16:8:40.5520,-0.03,0.01,-0.03
2020-08-10 16:8:40.6510,-0.03,0.0,-0.05
2020-08-10 16:8:40.7500,-0.0,-0.11,-0.07
2020-08-10 16:8:40.8490,-0.08,-0.19,-0.05
2020-08-10 16:8:40.9490,-0.34,-0.35,0.02
2020-08-10 16:8:41.0480,-0.59,-0.5,0.45
2020-08-10 16:8:41.1470,-0.82,-0.02,0.09
2020-08-10 16:8:41.2460,-0.71,0.27,0.09
2020-08-10 16:8:41.3460,-0.11,-0.36,-0.04
2020-08-10 16:8:41.4450,0.28,-0.34,-0.07
2020-08-10 16:8:41.5440,0.58,-0.3,-0.16
2020-08-10 16:8:41.6430,0.98,-0.06,-0.09
2020-08-10 16:8:41.7430,-0.19,-0.38,-0.19
2020-08-10 16:8:41.8420,0.27,-0.24,-0.02
2020-08-10 16:8:41.9420,0.1,-0.04,-0.1
2020-08-10 16:8:42.0430,0.04,-0.01,-0.01
2020-08-10 16:8:42.1400,0.05,-0.04,-0.07
2020-08-10 16:8:42.2390,0.07,-0.01,-0.06
2020-08-10 16:8:42.3390,0.0,-0.0,-0.07
2020-08-10 16:8:42.4380,-0.07,-0.02,-0.04
2020-08-10 16:8:42.5370,-0.04,-0.06,-0.01
2020-08-10 16:8:42.6380,-0.15,-0.31,0.02
2020-08-10 16:8:42.7350,-0.53,-0.49,0.14
2020-08-10 16:8:42.8350,-0.32,-0.12,0.27
2020-08-10 16:8:42.9340,-1.2,0.33,0.12
2020-08-10 16:8:43.0330,-0.56,0.16,-0.02
2020-08-10 16:8:43.1320,0.15,-0.37,-0.04
2020-08-10 16:8:43.2320,0.62,-0.35,-0.09
2020-08-10 16:8:43.3310,0.92,-0.05,-0.16
2020-08-10 16:8:43.4300,1.01,-0.03,-0.06
2020-08-10 16:8:43.5300,0.21,-0.23,-0.29
2020-08-10 16:8:43.6290,0.36,-0.21,-0.11
2020-08-10 16:8:43.7280,0.12,-0.03,-0.04
2020-08-10 16:8:43.8280,0.05,-0.01,-0.07
2020-08-10 16:8:43.9270,-0.02,0.02,-0.01
2020-08-10 16:8:44.0260,-0.03,0.02,-0.03
2020-08-10 16:8:44.1250,-0.04,-0.01,-0.07
2020-08-10 16:8:44.2250,-0.02,-0.09,-0.04
2020-08-10 16:8:44.3240,-0.15,-0.21,-0.02
2020-08-10 16:8:44.4240,-0.4,-0.64,-0.03
2020-08-10 16:8:44.5220,-0.42,-0.18,0.38
2020-08-10 16:8:44.6220,-0.94,0.26,0.11
2020-08-10 16:8:44.7210,-0.52,0.16,-0.01
2020-08-10 16:8:44.8200,0.12,-0.45,-0.02
2020-08-10 16:8:44.9230,0.44,-0.19,-0.04
2020-08-10 16:8:45.0190,0.79,-0.15,-0.04
2020-08-10 16:8:45.1180,1.11,-0.01,-0.09
2020-08-10 16:8:45.2170,0.39,-0.34,-0.4
2020-08-10 16:8:45.3160,0.43,-0.24,0.05
2020-08-10 16:8:45.4160,0.05,-0.04,0.04
2020-08-10 16:8:45.5170,0.01,-0.01,-0.05
2020-08-10 16:8:45.6140,0.02,-0.0,-0.03
2020-08-10 16:8:45.7140,0.02,-0.0,-0.06
2020-08-10 16:8:45.8130,-0.03,-0.01,-0.04
2020-08-10 16:8:45.9120,-0.08,-0.08,-0.01
2020-08-10 16:8:46.0120,-0.1,-0.22,-0.1
2020-08-10 16:8:46.1110,-0.45,-0.61,0.07
2020-08-10 16:8:46.2100,-0.67,-0.35,0.36
2020-08-10 16:8:46.3090,-0.91,0.23,0.16
2020-08-10 16:8:46.4090,-0.36,0.11,-0.1
2020-08-10 16:8:46.5090,0.09,-0.29,-0.01
2020-08-10 16:8:46.6070,0.43,-0.22,-0.03
2020-08-10 16:8:46.7060,0.69,-0.17,-0.15
2020-08-10 16:8:46.8050,1.11,-0.06,-0.09
2020-08-10 16:8:46.9050,0.11,-0.35,-0.12
2020-08-10 16:8:47.0040,0.21,-0.09,0.2
2020-08-10 16:8:47.1060,-0.03,-0.04,-0.0
2020-08-10 16:8:47.2020,0.01,-0.03,-0.05
2020-08-10 16:8:47.3020,-0.03,0.01,-0.03
2020-08-10 16:8:47.4010,0.03,-0.02,-0.06
2020-08-10 16:8:47.5000,-0.04,0.01,-0.04
2020-08-10 16:8:47.6000,-0.06,0.0,0.01
2020-08-10 16:8:47.7000,-0.07,-0.16,-0.03
2020-08-10 16:8:47.7980,-0.41,-0.58,-0.01
2020-08-10 16:8:47.8970,-0.33,-0.45,0.43
2020-08-10 16:8:47.9970,-0.44,-0.02,0.16
2020-08-10 16:8:48.0960,-0.4,0.18,0.01
2020-08-10 16:8:48.1960,-0.03,-0.2,-0.12
2020-08-10 16:8:48.2950,0.31,-0.31,-0.11
2020-08-10 16:8:48.3940,0.66,-0.26,-0.09
2020-08-10 16:8:48.4940,1.05,-0.06,-0.05
2020-08-10 16:8:48.5920,-1.62,-0.15,-0.62
2020-08-10 16:8:48.6910,0.37,-0.06,0.22
2020-08-10 16:8:48.7910,-0.11,-0.04,-0.12
2020-08-10 16:8:48.8900,-0.09,-0.01,0.05
2020-08-10 16:8:48.9890,-0.02,0.0,-0.02
2020-08-10 16:8:49.0930,0.02,-0.02,-0.06
2020-08-10 16:8:49.1880,-0.04,-0.0,-0.05
2020-08-10 16:8:49.2870,-0.02,-0.07,-0.06
2020-08-10 16:8:49.3860,-0.06,-0.22,-0.04
2020-08-10 16:8:49.4860,-0.36,-0.48,-0.0
2020-08-10 16:8:49.5850,-0.6,-0.53,0.56
2020-08-10 16:8:49.6840,-0.31,-0.1,-0.0
2020-08-10 16:8:49.7830,-0.54,0.16,0.04
2020-08-10 16:8:49.8830,-0.06,-0.29,-0.16
2020-08-10 16:8:49.9820,0.41,-0.43,-0.11
2020-08-10 16:8:50.0830,0.78,-0.24,-0.09
2020-08-10 16:8:50.1800,1.08,-0.01,-0.11
2020-08-10 16:8:50.2800,-0.69,-0.29,0.13
2020-08-10 16:8:50.3790,0.22,-0.02,0.22
2020-08-10 16:8:50.4780,-0.17,0.02,0.0
2020-08-10 16:8:50.5780,-0.07,0.01,0.0
2020-08-10 16:8:50.6770,0.11,-0.06,-0.16
2020-08-10 16:8:50.7760,0.02,0.0,-0.06
2020-08-10 16:8:50.8750,-0.07,0.02,-0.03
2020-08-10 16:8:50.9750,-0.01,-0.06,-0.05
2020-08-10 16:8:51.0740,-0.06,-0.18,-0.1
2020-08-10 16:8:51.1740,-0.33,-0.52,-0.03
2020-08-10 16:8:51.2720,-0.51,-0.45,0.4
2020-08-10 16:8:51.3720,-0.22,0.03,0.23
2020-08-10 16:8:51.4710,-0.42,0.17,-0.11
2020-08-10 16:8:51.5700,-0.11,-0.23,-0.15
2020-08-10 16:8:51.6690,0.37,-0.27,-0.08
2020-08-10 16:8:51.7690,0.69,-0.31,-0.1
2020-08-10 16:8:51.8680,1.18,-0.04,-0.09
2020-08-10 16:8:51.9670,-1.19,-0.08,0.2
2020-08-10 16:8:52.0670,0.52,-0.04,0.08
2020-08-10 16:8:52.1660,-0.14,-0.01,-0.05
2020-08-10 16:8:52.2650,-0.11,0.04,0.05
2020-08-10 16:8:52.3640,-0.04,0.01,-0.06
2020-08-10 16:8:52.4640,-0.01,0.01,-0.06
2020-08-10 16:8:52.5630,-0.04,-0.01,-0.06
2020-08-10 16:8:52.6620,-0.08,-0.05,0.02
2020-08-10 16:8:52.7610,-0.07,-0.17,-0.06
2020-08-10 16:8:52.8610,-0.29,-0.46,-0.09
2020-08-10 16:8:52.9600,-0.36,-0.4,0.23
2020-08-10 16:8:53.0590,-0.02,-0.01,-0.08
2020-08-10 16:8:53.1580,-0.64,0.16,0.07
2020-08-10 16:8:53.2580,-0.1,-0.31,-0.22
2020-08-10 16:8:53.3570,0.33,-0.35,-0.06
2020-08-10 16:8:53.4560,0.77,-0.19,0.03
2020-08-10 16:8:53.5550,1.12,-0.03,-0.09
2020-08-10 16:8:53.6550,-0.19,-0.33,-0.02
2020-08-10 16:8:53.7540,0.35,0.0,0.17
2020-08-10 16:8:53.8530,-0.08,-0.02,-0.01
2020-08-10 16:8:53.9520,-0.01,-0.02,-0.05
2020-08-10 16:8:54.0520,-0.0,0.03,-0.02
2020-08-10 16:8:54.1510,0.04,-0.01,-0.05
2020-08-10 16:8:54.2500,-0.01,-0.02,-0.04
2020-08-10 16:8:54.3500,-0.04,-0.08,-0.08
2020-08-10 16:8:54.4490,-0.07,-0.24,-0.03
2020-08-10 16:8:54.5480,-0.45,-0.65,0.08
2020-08-10 16:8:54.6470,-0.46,-0.24,0.21
2020-08-10 16:8:54.7470,-1.04,0.38,0.13
2020-08-10 16:8:54.8460,-0.55,0.08,-0.09
2020-08-10 16:8:54.9450,0.04,-0.38,-0.11
2020-08-10 16:8:55.0450,0.54,-0.3,-0.06
2020-08-10 16:8:55.1440,1.32,-0.15,-0.08
2020-08-10 16:8:55.2430,-0.31,-0.37,-0.13
2020-08-10 16:8:55.3420,0.5,-0.29,-0.23
2020-08-10 16:8:55.4420,0.02,-0.03,-0.12
2020-08-10 16:8:55.5410,-0.05,0.02,-0.03
2020-08-10 16:8:55.6400,-0.04,0.0,-0.01
2020-08-10 16:8:55.7390,0.0,-0.01,-0.05
2020-08-10 16:8:55.8390,0.02,-0.0,-0.07
2020-08-10 16:8:55.9390,-0.06,-0.04,-0.06
2020-08-10 16:8:56.0370,-0.06,-0.09,0.02
2020-08-10 16:8:56.1360,-0.21,-0.38,-0.05
2020-08-10 16:8:56.2350,-0.59,-0.61,0.24
2020-08-10 16:8:56.3350,-0.17,-0.17,-0.17
2020-08-10 16:8:56.4340,-0.69,0.41,0.1
2020-08-10 16:8:56.5330,-0.38,-0.04,-0.1
2020-08-10 16:8:56.6330,0.26,-0.45,-0.12
2020-08-10 16:8:56.7320,0.64,-0.26,-0.09
2020-08-10 16:8:56.8310,0.95,0.0,-0.15
2020-08-10 16:8:56.9310,0.68,-0.39,-0.05
2020-08-10 16:8:57.0300,0.36,-0.23,-0.16
2020-08-10 16:8:57.1290,0.2,-0.04,-0.17
2020-08-10 16:8:57.2280,0.06,0.0,-0.06
2020-08-10 16:8:57.3280,0.01,-0.01,-0.07
2020-08-10 16:8:57.4270,0.0,-0.02,-0.06
2020-08-10 16:8:57.5260,0.02,-0.02,-0.07
2020-08-10 16:8:57.6290,-0.05,0.02,-0.04
2020-08-10 16:8:57.7250,-0.03,-0.1,-0.05
2020-08-10 16:8:57.8240,-0.14,-0.34,-0.07
2020-08-10 16:8:57.9230,-0.5,-0.62,0.0
2020-08-10 16:8:58.0220,-0.33,-0.28,0.28
2020-08-10 16:8:58.1260,-1.0,0.35,0.18
2020-08-10 16:8:58.2210,-0.58,0.15,-0.07
2020-08-10 16:8:58.3200,0.04,-0.43,-0.1
2020-08-10 16:8:58.4200,0.4,-0.34,-0.06
2020-08-10 16:8:58.5190,0.98,-0.14,-0.1
2020-08-10 16:8:58.6180,1.14,-0.14,-0.05
2020-08-10 16:8:58.7170,0.46,-0.26,-0.14
2020-08-10 16:8:58.8170,0.02,0.05,-0.05
2020-08-10 16:8:58.9160,-0.03,0.02,-0.08
2020-08-10 16:8:59.0150,0.01,0.0,-0.07
2020-08-10 16:8:59.1150,0.01,-0.02,-0.06
2020-08-10 16:8:59.2140,-0.0,-0.01,-0.06
2020-08-10 16:8:59.3130,-0.04,-0.02,-0.07
2020-08-10 16:8:59.4120,-0.05,-0.08,-0.05
2020-08-10 16:8:59.5120,-0.19,-0.36,-0.05
2020-08-10 16:8:59.6110,-0.52,-0.56,0.09
2020-08-10 16:8:59.7110,-0.18,-0.09,0.08
2020-08-10 16:8:59.8090,-0.88,0.37,0.12
2020-08-10 16:8:59.9080,-0.46,0.11,-0.01
2020-08-10 16:9:00.0080,-0.02,-0.41,-0.04
2020-08-10 16:9:00.1070,0.4,-0.41,-0.1
2020-08-10 16:9:00.2060,1.07,-0.15,-0.07
2020-08-10 16:9:00.3050,0.97,-0.12,-0.16
2020-08-10 16:9:00.4050,0.43,-0.26,-0.06
2020-08-10 16:9:00.5040,0.04,-0.01,-0.1
2020-08-10 16:9:00.6030,0.14,-0.04,-0.07
2020-08-10 16:9:00.7030,0.03,-0.04,-0.08
2020-08-10 16:9:00.8020,0.06,-0.02,-0.08
2020-08-10 16:9:00.9010,-0.01,-0.01,-0.07
2020-08-10 16:9:01.0010,-0.04,-0.03,-0.04
2020-08-10 16:9:01.1000,-0.14,-0.16,-0.04
2020-08-10 16:9:01.1990,-0.27,-0.48,-0.01
2020-08-10 16:9:01.2980,-0.33,-0.38,0.41
2020-08-10 16:9:01.3980,-0.16,0.05,0.11
2020-08-10 16:9:01.4970,-0.55,0.2,-0.0
2020-08-10 16:9:01.5960,-0.14,-0.24,-0.15
2020-08-10 16:9:01.6950,0.24,-0.3,-0.03
2020-08-10 16:9:01.7940,0.6,-0.26,-0.09
2020-08-10 16:9:01.8940,1.07,-0.1,-0.16
2020-08-10 16:9:01.9930,-0.32,-0.46,-0.13
2020-08-10 16:9:02.0920,0.32,-0.15,-0.19
2020-08-10 16:9:02.1910,0.22,-0.05,-0.26
2020-08-10 16:9:02.2910,0.16,-0.03,-0.1
2020-08-10 16:9:02.3900,0.05,-0.02,-0.07
2020-08-10 16:9:02.4900,0.01,0.0,-0.03
2020-08-10 16:9:02.5890,-0.03,0.0,-0.05
2020-08-10 16:9:02.6880,-0.0,-0.06,-0.08
2020-08-10 16:9:02.7870,-0.22,-0.11,0.1
2020-08-10 16:9:02.8860,-0.27,-0.38,-0.05
2020-08-10 16:9:02.9860,-0.44,-0.4,0.21
2020-08-10 16:9:03.0850,-0.14,-0.04,0.15
2020-08-10 16:9:03.1840,-0.64,0.18,0.04
2020-08-10 16:9:03.2840,-0.18,-0.22,-0.22
2020-08-10 16:9:03.3870,0.41,-0.35,-0.12
2020-08-10 16:9:03.4820,0.74,-0.3,-0.14
2020-08-10 16:9:03.5810,1.16,-0.13,-0.05
2020-08-10 16:9:03.6810,-0.57,-0.2,-0.03
2020-08-10 16:9:03.7820,0.45,-0.13,0.13
2020-08-10 16:9:03.8790,-0.01,-0.02,-0.04
2020-08-10 16:9:03.9780,-0.04,0.01,0.0
2020-08-10 16:9:04.0770,0.03,-0.0,-0.05
2020-08-10 16:9:04.1770,0.02,-0.01,-0.07
2020-08-10 16:9:04.2760,-0.08,-0.0,-0.06
2020-08-10 16:9:04.3760,-0.05,-0.09,-0.01
2020-08-10 16:9:04.4750,-0.13,-0.27,-0.08
2020-08-10 16:9:04.5740,-0.48,-0.66,0.0
2020-08-10 16:9:04.6730,-0.4,-0.1,0.21
2020-08-10 16:9:04.7720,-1.09,0.44,0.06
2020-08-10 16:9:04.8720,-0.53,0.02,-0.09
2020-08-10 16:9:04.9710,0.07,-0.36,-0.06
2020-08-10 16:9:05.0700,0.57,-0.27,-0.01
2020-08-10 16:9:05.1700,0.92,-0.04,-0.16
2020-08-10 16:9:05.2690,1.19,-0.07,-0.13
2020-08-10 16:9:05.3680,0.48,-0.31,-0.14
2020-08-10 16:9:05.4670,0.32,-0.11,-0.17
2020-08-10 16:9:05.5670,0.05,-0.01,-0.06
2020-08-10 16:9:05.6660,0.02,-0.01,-0.08
2020-08-10 16:9:05.7720,-0.0,-0.02,-0.05
2020-08-10 16:9:05.8640,-0.05,-0.0,-0.05
2020-08-10 16:9:05.9640,-0.02,0.0,-0.04
2020-08-10 16:9:06.0630,-0.03,-0.16,-0.13
2020-08-10 16:9:06.1630,-0.18,-0.37,-0.02
2020-08-10 16:9:06.2610,-0.77,-0.36,0.15
2020-08-10 16:9:06.3610,0.04,-0.24,-0.06
2020-08-10 16:9:06.4600,-0.74,0.19,0.19
2020-08-10 16:9:06.5620,-0.43,0.07,-0.11
2020-08-10 16:9:06.6580,0.27,-0.39,-0.13
2020-08-10 16:9:06.7580,0.66,-0.27,-0.07
2020-08-10 16:9:06.8570,1.12,-0.1,-0.09
2020-08-10 16:9:06.9560,0.33,-0.35,-0.07
2020-08-10 16:9:07.0560,0.34,-0.17,-0.24
2020-08-10 16:9:07.1550,0.06,-0.01,-0.06
2020-08-10 16:9:07.2540,0.05,-0.07,-0.08
2020-08-10 16:9:07.3530,0.04,-0.02,-0.08
2020-08-10 16:9:07.4530,0.04,-0.04,-0.1
2020-08-10 16:9:07.5520,-0.06,0.05,-0.04
2020-08-10 16:9:07.6510,0.02,-0.03,-0.06
2020-08-10 16:9:07.7500,-0.09,-0.18,-0.1
2020-08-10 16:9:07.8510,-0.31,-0.48,0.02
2020-08-10 16:9:07.9490,-0.47,-0.57,0.38
2020-08-10 16:9:08.0480,-0.06,-0.0,0.23
2020-08-10 16:9:08.1470,-0.58,0.14,-0.03
2020-08-10 16:9:08.2470,-0.29,-0.2,-0.21
2020-08-10 16:9:08.3460,0.41,-0.4,-0.14
2020-08-10 16:9:08.4450,0.88,-0.39,-0.03
2020-08-10 16:9:08.5450,1.45,-0.0,-0.01
2020-08-10 16:9:08.6440,0.16,-0.43,-0.09
2020-08-10 16:9:08.7430,0.03,-0.03,0.2
2020-08-10 16:9:08.8420,0.11,-0.07,-0.1
2020-08-10 16:9:08.9420,0.03,-0.0,-0.02
2020-08-10 16:9:09.0410,0.01,0.03,-0.03
2020-08-10 16:9:09.1400,-0.03,0.02,-0.03
2020-08-10 16:9:09.2390,-0.05,-0.02,-0.07
2020-08-10 16:9:09.3390,-0.02,-0.09,-0.06
2020-08-10 16:9:09.4380,-0.14,-0.3,-0.11
2020-08-10 16:9:09.5370,-0.54,-0.59,-0.02
2020-08-10 16:9:09.6370,-0.3,-0.3,0.17
2020-08-10 16:9:09.7360,-1.0,0.31,0.13
2020-08-10 16:9:09.8350,-0.4,0.12,-0.09
2020-08-10 16:9:09.9340,0.16,-0.39,-0.06
2020-08-10 16:9:10.0360,0.48,-0.2,-0.01
2020-08-10 16:9:10.1330,0.91,-0.17,-0.06
2020-08-10 16:9:10.2320,1.13,-0.01,-0.13
2020-08-10 16:9:10.3310,0.36,-0.39,-0.44
2020-08-10 16:9:10.4310,0.25,-0.18,0.23
2020-08-10 16:9:10.5300,-0.05,0.0,0.0
2020-08-10 16:9:10.6290,-0.0,-0.02,-0.07
2020-08-10 16:9:10.7280,0.01,-0.0,-0.04
2020-08-10 16:9:10.8280,-0.01,-0.02,-0.05
2020-08-10 16:9:10.9270,-0.08,0.0,-0.03
2020-08-10 16:9:11.0260,-0.02,-0.08,-0.05
2020-08-10 16:9:11.1250,-0.13,-0.34,-0.09
2020-08-10 16:9:11.2250,-0.53,-0.6,0.05
2020-08-10 16:9:11.3240,-0.56,-0.25,0.24
2020-08-10 16:9:11.4230,-0.75,0.31,0.06
2020-08-10 16:9:11.5230,-0.56,0.19,-0.1
2020-08-10 16:9:11.6220,0.18,-0.53,-0.11
2020-08-10 16:9:11.7210,0.49,-0.36,-0.05
2020-08-10 16:9:11.8220,1.02,-0.1,-0.12
2020-08-10 16:9:11.9200,1.23,-0.06,-0.13
2020-08-10 16:9:12.0190,0.64,-0.28,-0.2
2020-08-10 16:9:12.1190,0.21,-0.04,-0.13
2020-08-10 16:9:12.2170,0.01,-0.01,-0.05
2020-08-10 16:9:12.3170,0.05,-0.02,-0.1
2020-08-10 16:9:12.4160,-0.05,-0.01,-0.04
2020-08-10 16:9:12.5150,-0.04,0.01,-0.07
2020-08-10 16:9:12.6140,-0.02,-0.02,-0.09
2020-08-10 16:9:12.7140,-0.03,-0.16,-0.09
2020-08-10 16:9:12.8130,-0.24,-0.42,-0.03
2020-08-10 16:9:12.9120,-0.5,-0.32,0.19
2020-08-10 16:9:13.0110,-0.08,-0.06,0.01
2020-08-10 16:9:13.1110,-0.73,0.16,0.2
2020-08-10 16:9:13.2100,-0.41,-0.16,-0.27
2020-08-10 16:9:13.3090,0.34,-0.34,-0.15
2020-08-10 16:9:13.4090,0.59,-0.31,-0.05
2020-08-10 16:9:13.5080,1.33,-0.13,-0.19
2020-08-10 16:9:13.6070,-1.23,-0.18,0.2
2020-08-10 16:9:13.7060,0.3,-0.1,0.15
2020-08-10 16:9:13.8060,-0.06,-0.02,-0.05
2020-08-10 16:9:13.9050,0.01,-0.01,-0.06
2020-08-10 16:9:14.0040,0.03,0.01,-0.06
2020-08-10 16:9:14.1030,-0.02,0.02,-0.05
2020-08-10 16:9:14.2030,-0.06,0.01,-0.03
2020-08-10 16:9:14.3020,-0.03,-0.08,-0.07
2020-08-10 16:9:14.4010,-0.09,-0.2,-0.06
2020-08-10 16:9:14.5000,-0.42,-0.56,0.03
2020-08-10 16:9:14.6000,-0.74,-0.39,0.34
2020-08-10 16:9:14.6990,-0.58,-0.11,0.14
2020-08-10 16:9:14.7980,-0.52,0.1,-0.09
2020-08-10 16:9:14.8970,0.1,-0.3,-0.13
2020-08-10 16:9:14.9970,0.47,-0.28,-0.12
2020-08-10 16:9:15.0960,0.97,-0.13,-0.05
2020-08-10 16:9:15.1950,1.28,-0.0,-0.03
2020-08-10 16:9:15.2950,0.23,-0.4,-0.36
2020-08-10 16:9:15.3940,0.03,0.01,0.1
2020-08-10 16:9:15.4930,-0.08,-0.01,0.01
2020-08-10 16:9:15.5920,0.01,-0.01,-0.08
2020-08-10 16:9:15.6920,-0.04,0.01,-0.04
2020-08-10 16:9:15.7920,0.0,-0.02,-0.1
2020-08-10 16:9:15.8900,-0.0,0.0,-0.07
2020-08-10 16:9:15.9900,-0.05,-0.12,-0.07
2020-08-10 16:9:16.0890,-0.16,-0.28,-0.01
2020-08-10 16:9:16.1880,-0.55,-0.55,0.07
2020-08-10 16:9:16.2870,-0.16,-0.23,-0.09
2020-08-10 16:9:16.3860,-0.68,0.24,0.1
2020-08-10 16:9:16.4860,-0.44,-0.02,-0.08
2020-08-10 16:9:16.5850,0.25,-0.37,-0.04
2020-08-10 16:9:16.6840,0.62,-0.28,-0.1
2020-08-10 16:9:16.7870,1.05,-0.11,-0.06
2020-08-10 16:9:16.8830,-0.21,-0.41,-0.34
2020-08-10 16:9:16.9820,0.47,-0.29,-0.07
2020-08-10 16:9:17.0810,0.12,-0.03,-0.1
2020-08-10 16:9:17.1810,0.05,-0.04,-0.04
2020-08-10 16:9:17.2800,0.0,-0.01,-0.04
2020-08-10 16:9:17.3790,-0.01,-0.02,-0.05
2020-08-10 16:9:17.4780,-0.04,-0.0,-0.09
2020-08-10 16:9:17.5780,0.01,-0.06,-0.04
2020-08-10 16:9:17.6770,-0.08,-0.2,-0.05
2020-08-10 16:9:17.7760,-0.45,-0.48,-0.02
2020-08-10 16:9:17.8760,-0.43,-0.61,0.35
2020-08-10 16:9:17.9750,-0.42,-0.11,0.19
2020-08-10 16:9:18.0740,-0.54,0.17,-0.07
2020-08-10 16:9:18.1730,0.03,-0.29,-0.16
2020-08-10 16:9:18.2730,0.39,-0.39,-0.16
2020-08-10 16:9:18.3720,1.02,-0.37,-0.02
2020-08-10 16:9:18.4710,1.27,-0.11,-0.09
2020-08-10 16:9:18.5700,0.43,-0.3,-0.24
2020-08-10 16:9:18.6700,0.0,-0.01,-0.03
2020-08-10 16:9:18.7710,0.06,-0.04,-0.03
2020-08-10 16:9:18.8680,0.03,-0.04,-0.07
2020-08-10 16:9:18.9670,-0.01,-0.01,-0.06
2020-08-10 16:9:19.0670,-0.02,-0.01,-0.08
2020-08-10 16:9:19.1690,-0.04,-0.01,-0.08
2020-08-10 16:9:19.2650,-0.08,-0.1,-0.09
2020-08-10 16:9:19.3640,-0.21,-0.33,0.04
2020-08-10 16:9:19.4640,-0.83,-0.47,0.16
2020-08-10 16:9:19.5630,-0.14,-0.18,0.07
2020-08-10 16:9:19.6620,-0.85,0.38,0.19
2020-08-10 16:9:19.7620,-0.48,0.03,-0.05
2020-08-10 16:9:19.8610,0.2,-0.38,-0.07
2020-08-10 16:9:19.9600,0.57,-0.32,-0.14
2020-08-10 16:9:20.0590,1.13,-0.1,-0.2
2020-08-10 16:9:20.1590,0.11,-0.43,-0.08
2020-08-10 16:9:20.2580,0.43,-0.19,-0.15
2020-08-10 16:9:20.3570,0.08,-0.04,-0.2
2020-08-10 16:9:20.4560,0.1,-0.01,-0.06
2020-08-10 16:9:20.5560,0.03,-0.02,-0.08
2020-08-10 16:9:20.6550,-0.01,-0.0,-0.05
2020-08-10 16:9:20.7540,-0.03,0.0,-0.08
2020-08-10 16:9:20.8530,-0.04,-0.05,-0.04
2020-08-10 16:9:20.9520,-0.01,-0.22,-0.11
2020-08-10 16:9:21.0520,-0.27,-0.45,-0.02
2020-08-10 16:9:21.1510,-0.52,-0.45,0.55
2020-08-10 16:9:21.2540,-0.25,-0.08,0.14
2020-08-10 16:9:21.3500,-0.59,0.27,0.06
2020-08-10 16:9:21.4490,-0.08,-0.42,-0.23
2020-08-10 16:9:21.5480,0.33,-0.31,-0.13
2020-08-10 16:9:21.6480,0.76,-0.36,-0.1
2020-08-10 16:9:21.7470,1.34,-0.04,-0.1
2020-08-10 16:9:21.8460,-0.09,-0.42,0.01
2020-08-10 16:9:21.9450,0.07,-0.05,0.19
2020-08-10 16:9:22.0450,-0.01,-0.04,-0.06
2020-08-10 16:9:22.1440,0.07,-0.01,-0.05
2020-08-10 16:9:22.2430,0.02,-0.02,-0.09
2020-08-10 16:9:22.3420,0.01,-0.04,-0.05
2020-08-10 16:9:22.4420,-0.02,-0.01,-0.08
2020-08-10 16:9:22.5410,-0.01,-0.08,-0.06
2020-08-10 16:9:22.6400,-0.09,-0.35,-0.14
2020-08-10 16:9:22.7390,-0.47,-0.51,0.05
2020-08-10 16:9:22.8390,-0.39,-0.25,0.26
2020-08-10 16:9:22.9380,-1.06,0.16,0.11
2020-08-10 16:9:23.0390,-0.59,0.24,-0.02
2020-08-10 16:9:23.1370,0.2,-0.49,-0.12
2020-08-10 16:9:23.2360,0.55,-0.28,-0.05
2020-08-10 16:9:23.3350,1.24,-0.1,-0.12
2020-08-10 16:9:23.4340,-1.36,-0.46,-0.72
2020-08-10 16:9:23.5340,0.18,0.0,0.11
2020-08-10 16:9:23.6330,-0.16,-0.02,-0.04
2020-08-10 16:9:23.7320,-0.09,-0.04,0.02
2020-08-10 16:9:23.8310,0.0,0.0,-0.06
2020-08-10 16:9:23.9310,0.05,-0.03,-0.11
2020-08-10 16:9:24.0300,0.02,-0.02,-0.12
2020-08-10 16:9:24.1290,-0.01,-0.05,-0.02
2020-08-10 16:9:24.2290,-0.08,-0.25,-0.05
2020-08-10 16:9:24.3280,-0.47,-0.69,0.06
2020-08-10 16:9:24.4270,-0.62,-0.15,0.23
2020-08-10 16:9:24.5260,-0.98,0.28,0.1
2020-08-10 16:9:24.6260,-0.71,0.13,0.08
2020-08-10 16:9:24.7250,0.2,-0.55,-0.03
2020-08-10 16:9:24.8240,0.52,-0.39,-0.02
2020-08-10 16:9:24.9230,1.01,-0.13,-0.15
2020-08-10 16:9:25.0230,0.9,-0.32,-0.04
2020-08-10 16:9:25.1220,0.55,-0.28,-0.15
2020-08-10 16:9:25.2210,0.09,-0.07,-0.11
2020-08-10 16:9:25.3200,-0.0,-0.01,-0.07
2020-08-10 16:9:25.4200,0.04,-0.02,-0.09
2020-08-10 16:9:25.5190,0.04,-0.03,-0.1
2020-08-10 16:9:25.6180,-0.03,-0.02,-0.08
2020-08-10 16:9:25.7170,-0.01,-0.04,-0.06
2020-08-10 16:9:25.8170,-0.07,-0.16,-0.05
2020-08-10 16:9:25.9160,-0.35,-0.44,-0.06
2020-08-10 16:9:26.0160,-0.53,-0.24,0.24
2020-08-10 16:9:26.1150,-0.06,0.02,0.06
2020-08-10 16:9:26.2140,-0.72,0.23,0.13
2020-08-10 16:9:26.3130,-0.14,-0.27,-0.21
2020-08-10 16:9:26.4120,0.35,-0.41,-0.1
2020-08-10 16:9:26.5120,0.85,-0.28,-0.14
2020-08-10 16:9:26.6110,1.28,-0.11,-0.11
2020-08-10 16:9:26.7100,-0.38,-0.34,0.11
2020-08-10 16:9:26.8090,0.25,-0.08,0.12
2020-08-10 16:9:26.9090,0.11,-0.04,-0.06
2020-08-10 16:9:27.0080,0.08,-0.01,-0.07
2020-08-10 16:9:27.1070,0.04,-0.0,-0.06
2020-08-10 16:9:27.2060,-0.06,-0.02,-0.06
2020-08-10 16:9:27.3060,-0.08,-0.0,-0.04
2020-08-10 16:9:27.4050,-0.1,-0.06,-0.03
2020-08-10 16:9:27.5040,-0.14,-0.26,0.01
2020-08-10 16:9:27.6030,-0.59,-0.53,0.02
2020-08-10 16:9:27.7030,-0.35,-0.27,0.22
2020-08-10 16:9:27.8020,-1.02,0.32,0.18
2020-08-10 16:9:27.9010,-0.69,0.13,-0.04
2020-08-10 16:9:28.0010,0.13,-0.45,-0.09
2020-08-10 16:9:28.1010,0.61,-0.35,-0.04
2020-08-10 16:9:28.1990,1.19,-0.13,-0.08
2020-08-10 16:9:28.2980,-0.48,-0.55,-0.46
2020-08-10 16:9:28.3980,0.3,0.01,0.0
2020-08-10 16:9:28.4970,-0.08,-0.02,-0.15
2020-08-10 16:9:28.5960,0.01,-0.04,0.0
2020-08-10 16:9:28.6960,0.01,-0.03,-0.09
2020-08-10 16:9:28.7950,0.04,-0.02,-0.09
2020-08-10 16:9:28.8940,-0.02,-0.0,-0.1
2020-08-10 16:9:28.9930,-0.03,-0.06,-0.01
2020-08-10 16:9:29.0920,-0.12,-0.24,-0.07
2020-08-10 16:9:29.1920,-0.36,-0.49,-0.06
2020-08-10 16:9:29.2910,-0.62,-0.45,0.38
2020-08-10 16:9:29.3900,-0.38,-0.13,0.23
2020-08-10 16:9:29.4890,-0.63,0.12,0.06
2020-08-10 16:9:29.5890,0.0,-0.28,-0.24
2020-08-10 16:9:29.6880,0.4,-0.32,-0.13
2020-08-10 16:9:29.7870,0.84,-0.32,-0.07
2020-08-10 16:9:29.8860,1.42,-0.01,-0.09
2020-08-10 16:9:29.9860,0.58,-0.43,-0.44
2020-08-10 16:9:30.0850,0.21,-0.05,-0.14
2020-08-10 16:9:30.1840,0.15,-0.05,-0.05
2020-08-10 16:9:30.2840,0.04,-0.04,-0.08
2020-08-10 16:9:30.3830,0.02,-0.02,-0.06
2020-08-10 16:9:30.4820,-0.02,-0.0,-0.03
2020-08-10 16:9:30.5820,-0.05,-0.0,-0.09
2020-08-10 16:9:30.6810,-0.07,-0.18,-0.11
2020-08-10 16:9:30.7800,-0.29,-0.48,-0.01
2020-08-10 16:9:30.8790,-0.6,-0.34,0.28
2020-08-10 16:9:30.9790,-0.06,0.03,0.11
2020-08-10 16:9:31.0780,-0.66,0.2,0.05
2020-08-10 16:9:31.1770,-0.25,-0.22,-0.19
2020-08-10 16:9:31.2760,0.51,-0.43,-0.1
2020-08-10 16:9:31.3760,0.87,-0.32,-0.11
2020-08-10 16:9:31.4750,1.29,-0.07,-0.12
2020-08-10 16:9:31.5740,-0.36,-0.25,0.06
2020-08-10 16:9:31.6730,0.12,-0.09,0.26
2020-08-10 16:9:31.7720,0.04,-0.04,-0.04
2020-08-10 16:9:31.8720,0.01,-0.02,-0.08
2020-08-10 16:9:31.9710,0.01,0.01,-0.04
2020-08-10 16:9:32.0700,-0.0,-0.01,-0.07
2020-08-10 16:9:32.1700,-0.08,0.03,-0.03
2020-08-10 16:9:32.2690,-0.02,-0.11,-0.09
2020-08-10 16:9:32.3680,-0.1,-0.26,-0.11
2020-08-10 16:9:32.4670,-0.48,-0.6,0.06
2020-08-10 16:9:32.5670,-0.58,-0.37,0.27
2020-08-10 16:9:32.6660,-0.98,0.14,0.06
2020-08-10 16:9:32.7650,-0.68,-0.01,0.03
2020-08-10 16:9:32.8650,0.15,-0.6,-0.1
2020-08-10 16:9:32.9640,0.53,-0.34,-0.04
2020-08-10 16:9:33.0630,1.24,-0.12,-0.08
2020-08-10 16:9:33.1630,0.85,-0.28,-0.13
2020-08-10 16:9:33.2620,0.49,-0.23,-0.02
2020-08-10 16:9:33.3610,0.12,0.03,-0.19
2020-08-10 16:9:33.4600,0.23,-0.03,-0.13
2020-08-10 16:9:33.5590,0.04,-0.02,-0.06
2020-08-10 16:9:33.6590,0.03,-0.0,-0.07
2020-08-10 16:9:33.7580,-0.02,-0.0,-0.06
2020-08-10 16:9:33.8570,-0.03,-0.05,-0.1
2020-08-10 16:9:33.9560,-0.05,-0.15,-0.07
2020-08-10 16:9:34.0560,-0.25,-0.41,-0.09
2020-08-10 16:9:34.1550,-0.61,-0.5,0.23
2020-08-10 16:9:34.2540,-0.05,0.03,0.02
2020-08-10 16:9:34.3540,-0.54,0.18,0.05
2020-08-10 16:9:34.4530,-0.19,-0.11,-0.16
2020-08-10 16:9:34.5520,0.33,-0.33,-0.18
2020-08-10 16:9:34.6510,0.71,-0.38,-0.14
2020-08-10 16:9:34.7500,1.26,-0.11,-0.18
2020-08-10 16:9:34.8500,-2.36,-0.01,-0.34
2020-08-10 16:9:34.9490,0.38,-0.12,-0.17
2020-08-10 16:9:35.0480,0.0,-0.05,-0.16
2020-08-10 16:9:35.1480,-0.03,-0.02,-0.03
2020-08-10 16:9:35.2470,-0.0,0.0,-0.06
2020-08-10 16:9:35.3460,0.03,-0.04,-0.1
2020-08-10 16:9:35.4450,-0.03,-0.03,-0.1
2020-08-10 16:9:35.5450,-0.08,-0.03,0.03
2020-08-10 16:9:35.6440,-0.16,-0.2,-0.06
2020-08-10 16:9:35.7430,-0.38,-0.61,-0.04
2020-08-10 16:9:35.8420,-0.52,-0.49,0.29
2020-08-10 16:9:35.9420,-0.58,-0.18,0.14
2020-08-10 16:9:36.0410,-0.56,0.12,0.06
2020-08-10 16:9:36.1400,0.14,-0.43,-0.04
2020-08-10 16:9:36.2430,0.51,-0.28,-0.08
2020-08-10 16:9:36.3390,0.86,-0.23,-0.09
2020-08-10 16:9:36.4380,1.23,-0.02,-0.05
2020-08-10 16:9:36.5370,0.2,-0.27,-0.19
2020-08-10 16:9:36.6370,0.04,-0.03,-0.02
2020-08-10 16:9:36.7360,0.04,-0.0,-0.05
2020-08-10 16:9:36.8350,0.04,-0.06,-0.14
2020-08-10 16:9:36.9350,0.03,-0.02,-0.07
2020-08-10 16:9:37.0340,-0.05,0.01,-0.05
2020-08-10 16:9:37.1330,-0.04,-0.02,-0.04
2020-08-10 16:9:37.2320,-0.02,-0.14,-0.12
2020-08-10 16:9:37.3310,-0.17,-0.42,-0.02
2020-08-10 16:9:37.4330,-0.81,-0.35,0.24
2020-08-10 16:9:37.5300,0.01,-0.14,0.13
2020-08-10 16:9:37.6290,-0.74,0.3,0.15
2020-08-10 16:9:37.7290,-0.29,-0.13,-0.13
2020-08-10 16:9:37.8280,0.28,-0.29,-0.07
2020-08-10 16:9:37.9270,0.6,-0.43,-0.14
2020-08-10 16:9:38.0260,1.36,-0.17,-0.15
2020-08-10 16:9:38.1250,-1.7,-0.15,0.09
2020-08-10 16:9:38.2250,0.19,-0.1,0.12
2020-08-10 16:9:38.3240,0.06,-0.04,-0.11
2020-08-10 16:9:38.4230,-0.02,-0.01,-0.03
2020-08-10 16:9:38.5230,0.02,-0.04,-0.1
2020-08-10 16:9:38.6220,0.03,-0.02,-0.09
2020-08-10 16:9:38.7210,0.01,-0.02,-0.16
2020-08-10 16:9:38.8200,-0.04,-0.07,-0.03
2020-08-10 16:9:38.9200,-0.06,-0.22,-0.09
2020-08-10 16:9:39.0190,-0.49,-0.62,0.02
2020-08-10 16:9:39.1180,-0.38,-0.21,0.31
2020-08-10 16:9:39.2180,-1.11,0.35,0.15
2020-08-10 16:9:39.3170,-0.6,0.07,-0.07
2020-08-10 16:9:39.4160,0.14,-0.39,-0.02
2020-08-10 16:9:39.5150,0.68,-0.31,-0.06
2020-08-10 16:9:39.6150,1.06,-0.1,-0.12
2020-08-10 16:9:39.7190,0.78,-0.37,-0.1
2020-08-10 16:9:39.8130,0.41,-0.24,0.02
2020-08-10 16:9:39.9120,0.2,-0.07,-0.15
2020-08-10 16:9:40.0120,0.17,-0.04,-0.11
2020-08-10 16:9:40.1110,0.03,-0.02,-0.08
2020-08-10 16:9:40.2110,-0.01,-0.01,-0.06
2020-08-10 16:9:40.3090,-0.02,-0.04,-0.11
2020-08-10 16:9:40.4090,-0.05,-0.05,-0.07
2020-08-10 16:9:40.5080,-0.07,-0.16,-0.08
2020-08-10 16:9:40.6070,-0.2,-0.42,-0.07
2020-08-10 16:9:40.7070,-0.46,-0.44,0.19
2020-08-10 16:9:40.8060,-0.15,-0.04,0.08
2020-08-10 16:9:40.9050,-0.74,0.22,0.04
2020-08-10 16:9:41.0040,-0.14,-0.26,-0.17
2020-08-10 16:9:41.1040,0.56,-0.41,0.0
2020-08-10 16:9:41.2030,0.87,-0.21,-0.06
2020-08-10 16:9:41.3020,1.2,0.01,-0.07
2020-08-10 16:9:41.4010,0.37,-0.32,-0.61
2020-08-10 16:9:41.5010,0.3,-0.01,0.2
2020-08-10 16:9:41.6030,-0.12,-0.01,0.05
2020-08-10 16:9:41.6990,0.03,-0.03,-0.07
2020-08-10 16:9:41.7980,0.02,-0.02,-0.1
2020-08-10 16:9:41.9000,-0.01,-0.01,-0.03
2020-08-10 16:9:41.9970,-0.06,0.01,-0.06
2020-08-10 16:9:42.0960,-0.1,-0.12,-0.12
2020-08-10 16:9:42.1950,-0.2,-0.43,0.0
2020-08-10 16:9:42.2950,-0.74,-0.44,0.09
2020-08-10 16:9:42.3940,-0.17,-0.11,0.07
2020-08-10 16:9:42.4930,-0.82,0.32,0.09
2020-08-10 16:9:42.5930,-0.39,-0.07,-0.08
2020-08-10 16:9:42.6920,0.43,-0.32,-0.09
2020-08-10 16:9:42.7910,0.79,-0.37,-0.08
2020-08-10 16:9:42.8910,1.17,-0.01,-0.08
2020-08-10 16:9:42.9900,-0.05,-0.43,-0.15
2020-08-10 16:9:43.0890,0.23,0.01,-0.03
2020-08-10 16:9:43.1880,0.09,-0.05,-0.06
2020-08-10 16:9:43.2880,-0.04,-0.02,0.0
2020-08-10 16:9:43.3870,0.0,0.01,-0.03
2020-08-10 16:9:43.4860,0.02,0.0,-0.07
2020-08-10 16:9:43.5850,-0.06,-0.01,-0.05
2020-08-10 16:9:43.6840,-0.1,-0.11,-0.05
2020-08-10 16:9:43.7840,-0.16,-0.28,-0.05
2020-08-10 16:9:43.8830,-0.67,-0.46,0.03
2020-08-10 16:9:43.9820,-0.18,-0.24,0.08
2020-08-10 16:9:44.0820,-0.97,0.36,0.12
2020-08-10 16:9:44.1810,-0.51,0.13,-0.05
2020-08-10 16:9:44.2800,0.24,-0.44,-0.02
2020-08-10 16:9:44.3790,0.78,-0.36,-0.11
2020-08-10 16:9:44.4780,1.12,-0.14,-0.21
2020-08-10 16:9:44.5780,-1.64,-0.3,-0.64
2020-08-10 16:9:44.6770,0.41,-0.19,-0.14
2020-08-10 16:9:44.7760,0.13,-0.04,-0.22
2020-08-10 16:9:44.8760,-0.04,-0.02,-0.01
2020-08-10 16:9:44.9750,-0.0,-0.01,-0.08
2020-08-10 16:9:45.0740,0.01,-0.02,-0.06
2020-08-10 16:9:45.1730,0.04,-0.05,-0.12
2020-08-10 16:9:45.2730,-0.06,-0.05,-0.04
2020-08-10 16:9:45.3720,-0.11,-0.15,-0.07
2020-08-10 16:9:45.4710,-0.23,-0.4,-0.07
2020-08-10 16:9:45.5700,-0.67,-0.36,0.21
2020-08-10 16:9:45.6700,-0.05,-0.12,0.08
2020-08-10 16:9:45.7690,-0.84,0.3,0.14
2020-08-10 16:9:45.8700,-0.42,-0.15,-0.19
2020-08-10 16:9:45.9680,0.37,-0.41,-0.16
2020-08-10 16:9:46.0670,0.71,-0.41,-0.14
2020-08-10 16:9:46.1660,1.18,-0.15,-0.1
2020-08-10 16:9:46.2700,-1.09,-0.01,0.18
2020-08-10 16:9:46.3650,0.33,-0.07,-0.02
2020-08-10 16:9:46.4640,0.04,-0.06,-0.13
2020-08-10 16:9:46.5630,-0.03,-0.04,-0.02
2020-08-10 16:9:46.6620,0.02,-0.01,-0.06
2020-08-10 16:9:46.7620,-0.05,0.0,-0.02
2020-08-10 16:9:46.8630,-0.03,-0.03,-0.1
2020-08-10 16:9:46.9600,0.0,-0.04,-0.09
2020-08-10 16:9:47.0590,-0.05,-0.18,-0.07
2020-08-10 16:9:47.1590,-0.4,-0.49,-0.05
2020-08-10 16:9:47.2580,-0.33,-0.52,0.41
2020-08-10 16:9:47.3570,-0.47,-0.08,0.19
2020-08-10 16:9:47.4570,-0.61,0.13,0.02
2020-08-10 16:9:47.5560,-0.03,-0.3,-0.11
2020-08-10 16:9:47.6550,0.33,-0.31,-0.05
2020-08-10 16:9:47.7540,1.03,-0.29,0.02
2020-08-10 16:9:47.8530,1.24,-0.01,-0.12
2020-08-10 16:9:47.9530,0.86,-0.58,0.01
2020-08-10 16:9:48.0520,-0.3,0.1,-0.0
2020-08-10 16:9:48.1510,-0.07,-0.04,-0.04
2020-08-10 16:9:48.2510,0.01,-0.04,-0.11
2020-08-10 16:9:48.3540,0.01,0.0,-0.01
2020-08-10 16:9:48.4490,0.01,-0.01,-0.06
2020-08-10 16:9:48.5480,-0.05,0.0,-0.09
2020-08-10 16:9:48.6480,-0.07,-0.12,-0.06
2020-08-10 16:9:48.7470,-0.21,-0.31,-0.02
2020-08-10 16:9:48.8500,-0.53,-0.6,0.0
2020-08-10 16:9:48.9450,-0.13,-0.14,0.1
2020-08-10 16:9:49.0450,-0.89,0.34,0.1
2020-08-10 16:9:49.1440,-0.47,-0.03,-0.09
2020-08-10 16:9:49.2430,0.24,-0.36,-0.03
2020-08-10 16:9:49.3430,0.76,-0.41,-0.06
2020-08-10 16:9:49.4420,1.36,-0.08,-0.03
2020-08-10 16:9:49.5410,-1.17,-0.09,0.04
2020-08-10 16:9:49.6400,0.33,-0.06,0.01
2020-08-10 16:9:49.7390,-0.0,-0.01,-0.09
2020-08-10 16:9:49.8390,-0.01,-0.02,-0.03
2020-08-10 16:9:49.9380,0.07,-0.05,-0.11
2020-08-10 16:9:50.0370,0.02,-0.03,-0.05
2020-08-10 16:9:50.1370,-0.03,-0.01,-0.07
2020-08-10 16:9:50.2360,0.02,-0.1,-0.09
2020-08-10 16:9:50.3350,-0.11,-0.26,-0.06
2020-08-10 16:9:50.4340,-0.5,-0.55,-0.08
2020-08-10 16:9:50.5340,-0.49,-0.37,0.22
2020-08-10 16:9:50.6330,-0.7,0.09,0.01
2020-08-10 16:9:50.7320,-0.44,0.06,-0.01
2020-08-10 16:9:50.8310,0.22,-0.44,0.01
2020-08-10 16:9:50.9310,0.46,-0.28,-0.04
2020-08-10 16:9:51.0300,0.99,-0.16,-0.11
2020-08-10 16:9:51.1290,1.2,-0.14,-0.1
2020-08-10 16:9:51.2290,0.35,-0.32,0.06
2020-08-10 16:9:51.3280,0.17,-0.09,-0.06
2020-08-10 16:9:51.4270,-0.07,0.01,-0.04
2020-08-10 16:9:51.5260,-0.05,0.01,-0.06
2020-08-10 16:9:51.6260,0.07,-0.07,-0.13
2020-08-10 16:9:51.7250,0.01,-0.03,-0.1
2020-08-10 16:9:51.8240,-0.01,-0.04,-0.06
2020-08-10 16:9:51.9240,-0.08,-0.23,-0.07
2020-08-10 16:9:52.0230,-0.39,-0.6,-0.08
2020-08-10 16:9:52.1220,-0.52,-0.47,0.51
2020-08-10 16:9:52.2210,-0.94,0.14,0.1
2020-08-10 16:9:52.3200,-0.69,0.23,0.04
2020-08-10 16:9:52.4200,0.21,-0.39,0.03
2020-08-10 16:9:52.5190,0.36,-0.32,-0.04
2020-08-10 16:9:52.6180,0.84,-0.31,-0.13
2020-08-10 16:9:52.7180,1.3,-0.02,-0.16
2020-08-10 16:9:52.8170,0.51,-0.51,-0.2
2020-08-10 16:9:52.9160,0.13,-0.07,0.14
2020-08-10 16:9:53.0180,-0.05,-0.02,-0.03
2020-08-10 16:9:53.1150,-0.03,-0.02,-0.09
2020-08-10 16:9:53.2140,0.01,-0.01,-0.08
2020-08-10 16:9:53.3130,-0.0,-0.01,-0.07
2020-08-10 16:9:53.4120,-0.09,0.05,-0.0
2020-08-10 16:9:53.5120,-0.1,-0.12,-0.06
2020-08-10 16:9:53.6110,-0.15,-0.32,-0.06
2020-08-10 16:9:53.7100,-0.59,-0.55,0.02
2020-08-10 16:9:53.8090,-0.22,-0.17,0.12
2020-08-10 16:9:53.9090,-0.97,0.32,0.16
2020-08-10 16:9:54.0080,-0.51,0.09,-0.06
2020-08-10 16:9:54.1070,0.14,-0.42,-0.06
2020-08-10 16:9:54.2070,0.69,-0.36,-0.04
2020-08-10 16:9:54.3060,1.01,-0.13,-0.15
2020-08-10 16:9:54.4050,0.38,-0.38,0.04
2020-08-10 16:9:54.5040,0.33,-0.18,-0.26
2020-08-10 16:9:54.6040,0.09,-0.02,-0.15
2020-08-10 16:9:54.7030,0.02,-0.02,-0.02
2020-08-10 16:9:54.8020,0.01,-0.02,-0.1
2020-08-10 16:9:54.9010,0.04,-0.02,-0.08
2020-08-10 16:9:55.0010,-0.05,-0.01,-0.09
2020-08-10 16:9:55.1000,-0.03,-0.07,-0.05
2020-08-10 16:9:55.1990,-0.12,-0.27,-0.11
2020-08-10 16:9:55.2990,-0.39,-0.66,-0.27
2020-08-10 16:9:55.3970,-0.34,-0.34,0.35
2020-08-10 16:9:55.4970,-0.85,0.13,0.13
2020-08-10 16:9:55.5960,-0.47,0.15,-0.09
2020-08-10 16:9:55.6960,-0.03,-0.36,-0.11
2020-08-10 16:9:55.7960,0.54,-0.28,-0.07
2020-08-10 16:9:55.8940,1.07,-0.16,-0.17
2020-08-10 16:9:55.9930,0.66,-0.32,-0.02
2020-08-10 16:9:56.0930,0.54,-0.18,-0.25
2020-08-10 16:9:56.1920,0.18,-0.07,-0.19
2020-08-10 16:9:56.2910,0.1,-0.04,-0.05
2020-08-10 16:9:56.3900,0.08,-0.03,-0.09
2020-08-10 16:9:56.4900,0.01,0.0,-0.06
2020-08-10 16:9:56.5890,-0.02,-0.01,-0.08
2020-08-10 16:9:56.6880,0.01,-0.09,-0.08
2020-08-10 16:9:56.7880,-0.03,-0.23,-0.08
2020-08-10 16:9:56.8870,-0.31,-0.47,-0.1
2020-08-10 16:9:56.9860,-0.45,-0.51,0.41
2020-08-10 16:9:57.0850,0.05,0.16,0.17
2020-08-10 16:9:57.1840,-0.52,0.2,-0.01
2020-08-10 16:9:57.2840,0.01,-0.22,-0.23
2020-08-10 16:9:57.3830,0.37,-0.36,-0.13
2020-08-10 16:9:57.4820,0.84,-0.34,-0.05
2020-08-10 16:9:57.5810,1.34,-0.03,-0.09
2020-08-10 16:9:57.6810,0.42,-0.37,-0.31
2020-08-10 16:9:57.7800,0.4,-0.16,-0.03
2020-08-10 16:9:57.8790,0.07,-0.04,-0.02
2020-08-10 16:9:57.9790,0.02,-0.01,-0.07
2020-08-10 16:9:58.0780,0.05,0.01,-0.08
2020-08-10 16:9:58.1770,-0.0,-0.0,-0.08
2020-08-10 16:9:58.2770,-0.02,-0.0,-0.11
2020-08-10 16:9:58.3760,-0.11,-0.07,-0.04
2020-08-10 16:9:58.4750,-0.21,-0.26,-0.05
2020-08-10 16:9:58.5740,-0.57,-0.69,-0.03
2020-08-10 16:9:58.6730,-0.13,-0.2,0.04
2020-08-10 16:9:58.7730,-0.85,0.35,0.06
2020-08-10 16:9:58.8720,-0.55,0.16,-0.07
2020-08-10 16:9:58.9710,0.26,-0.49,-0.07
2020-08-10 16:9:59.0700,0.73,-0.39,0.03
2020-08-10 16:9:59.1700,1.06,-0.1,-0.2
2020-08-10 16:9:59.2700,-0.29,-0.37,-0.28
2020-08-10 16:9:59.3680,0.36,-0.17,-0.17
2020-08-10 16:9:59.4680,0.13,-0.07,-0.18
2020-08-10 16:9:59.5670,0.01,-0.02,-0.1
2020-08-10 16:9:59.6660,0.03,-0.01,-0.06
2020-08-10 16:9:59.7650,-0.01,-0.02,-0.09
2020-08-10 16:9:59.8660,-0.03,-0.02,-0.09
2020-08-10 16:9:59.9640,0.01,-0.06,-0.1
2020-08-10 16:10:00.0630,-0.05,-0.2,-0.08
2020-08-10 16:10:00.1630,-0.31,-0.49,-0.08
2020-08-10 16:10:00.2620,-0.44,-0.48,0.39
2020-08-10 16:10:00.3610,-0.05,0.12,0.22
2020-08-10 16:10:00.4600,-0.57,0.2,-0.01
2020-08-10 16:10:00.5600,-0.16,-0.28,-0.25
2020-08-10 16:10:00.6590,0.49,-0.36,-0.1
2020-08-10 16:10:00.7580,0.8,-0.28,-0.06
2020-08-10 16:10:00.8570,1.12,-0.08,-0.1
2020-08-10 16:10:00.9560,-0.47,-0.31,-0.04
2020-08-10 16:10:01.0560,0.34,-0.05,0.11
2020-08-10 16:10:01.1550,-0.02,-0.02,-0.06
2020-08-10 16:10:01.2540,-0.0,-0.0,-0.03
2020-08-10 16:10:01.3530,0.03,-0.02,-0.07
2020-08-10 16:10:01.4530,0.01,-0.01,-0.08
2020-08-10 16:10:01.5520,-0.01,-0.02,-0.11
2020-08-10 16:10:01.6510,-0.02,-0.11,-0.07
2020-08-10 16:10:01.7510,-0.14,-0.28,-0.03
2020-08-10 16:10:01.8500,-0.62,-0.57,-0.03
2020-08-10 16:10:01.9490,-0.42,-0.3,0.25
2020-08-10 16:10:02.0480,-1.11,0.31,0.08
2020-08-10 16:10:02.1480,-0.45,0.18,-0.08
2020-08-10 16:10:02.2470,0.18,-0.4,-0.05
2020-08-10 16:10:02.3470,0.5,-0.34,-0.09
2020-08-10 16:10:02.4460,1.06,-0.2,-0.16
2020-08-10 16:10:02.5450,0.79,-0.39,-0.05
2020-08-10 16:10:02.6440,0.66,-0.45,0.08
2020-08-10 16:10:02.7430,0.07,-0.01,-0.02
2020-08-10 16:10:02.8420,-0.04,0.01,0.02
2020-08-10 16:10:02.9420,-0.04,0.01,-0.04
2020-08-10 16:10:03.0410,0.17,-0.11,-0.23
2020-08-10 16:10:03.1400,-0.01,-0.04,-0.09
2020-08-10 16:10:03.2400,-0.03,-0.03,-0.02
2020-08-10 16:10:03.3390,-0.02,-0.15,-0.08
2020-08-10 16:10:03.4380,-0.25,-0.47,-0.08
2020-08-10 16:10:03.5370,-0.52,-0.44,0.2
2020-08-10 16:10:03.6370,-0.23,0.05,0.19
2020-08-10 16:10:03.7360,-0.51,0.23,0.02
2020-08-10 16:10:03.8350,0.08,-0.28,-0.26
2020-08-10 16:10:03.9340,0.41,-0.32,-0.07
2020-08-10 16:10:04.0340,0.78,-0.38,-0.1
2020-08-10 16:10:04.1340,1.07,-0.07,-0.14
2020-08-10 16:10:04.2320,-0.1,-0.29,-0.13
2020-08-10 16:10:04.3320,0.25,-0.12,0.11
2020-08-10 16:10:04.4310,-0.04,-0.02,-0.06
2020-08-10 16:10:04.5300,-0.01,-0.01,-0.07
2020-08-10 16:10:04.6290,0.04,-0.01,-0.08
2020-08-10 16:10:04.7290,0.02,-0.01,-0.05
2020-08-10 16:10:04.8280,-0.1,0.03,-0.02
2020-08-10 16:10:04.9270,-0.08,-0.05,-0.11
2020-08-10 16:10:05.0260,-0.11,-0.24,-0.09
2020-08-10 16:10:05.1260,-0.56,-0.63,-0.08
2020-08-10 16:10:05.2250,-0.48,-0.43,0.21
2020-08-10 16:10:05.3240,-0.96,0.27,0.03
2020-08-10 16:10:05.4230,-0.57,0.2,0.01
2020-08-10 16:10:05.5230,0.08,-0.5,-0.11
2020-08-10 16:10:05.6220,0.59,-0.4,0.01
2020-08-10 16:10:05.7210,1.01,-0.16,-0.14
2020-08-10 16:10:05.8200,1.0,-0.05,-0.11
2020-08-10 16:10:05.9200,0.21,-0.29,-0.13
2020-08-10 16:10:06.0190,0.11,-0.01,-0.03
2020-08-10 16:10:06.1180,-0.02,-0.02,-0.01
2020-08-10 16:10:06.2170,0.0,-0.02,-0.07
2020-08-10 16:10:06.3170,0.01,-0.0,-0.03
2020-08-10 16:10:06.4160,-0.0,-0.02,-0.08
2020-08-10 16:10:06.5150,-0.07,-0.03,-0.07
2020-08-10 16:10:06.6150,-0.12,-0.21,-0.11
2020-08-10 16:10:06.7140,-0.31,-0.49,-0.05
2020-08-10 16:10:06.8130,-0.69,-0.44,0.54
2020-08-10 16:10:06.9120,-0.42,-0.03,0.15
2020-08-10 16:10:07.0120,-0.47,0.16,0.01
2020-08-10 16:10:07.1110,0.14,-0.28,-0.07
2020-08-10 16:10:07.2100,0.39,-0.35,-0.12
2020-08-10 16:10:07.3090,0.83,-0.21,-0.06
2020-08-10 16:10:07.4090,1.2,-0.03,-0.09
2020-08-10 16:10:07.5080,0.22,-0.35,-0.47
2020-08-10 16:10:07.6070,0.38,-0.15,0.04
2020-08-10 16:10:07.7060,0.11,-0.07,-0.08
2020-08-10 16:10:07.8060,0.05,-0.01,-0.07
2020-08-10 16:10:07.9050,0.07,-0.01,-0.11
2020-08-10 16:10:08.0040,-0.02,-0.01,-0.07
2020-08-10 16:10:08.1030,-0.02,-0.02,-0.12
2020-08-10 16:10:08.2030,-0.08,-0.14,-0.1
2020-08-10 16:10:08.3020,-0.15,-0.41,-0.09
2020-08-10 16:10:08.4020,-0.7,-0.35,0.24
2020-08-10 16:10:08.5010,-0.07,-0.17,0.12
2020-08-10 16:10:08.6000,-0.87,0.31,0.04
2020-08-10 16:10:08.6990,-0.51,0.09,-0.14
2020-08-10 16:10:08.7990,0.29,-0.44,-0.11
2020-08-10 16:10:08.8980,0.77,-0.42,-0.06
2020-08-10 16:10:08.9970,1.24,-0.1,-0.19
2020-08-10 16:10:09.0960,-0.58,-0.28,0.27
2020-08-10 16:10:09.1950,0.21,-0.06,0.21
2020-08-10 16:10:09.2950,0.01,-0.04,-0.11
2020-08-10 16:10:09.3990,-0.0,-0.01,-0.01
2020-08-10 16:10:09.4930,0.01,-0.0,-0.06
2020-08-10 16:10:09.5920,0.03,-0.01,-0.07
2020-08-10 16:10:09.6920,-0.08,-0.02,-0.08
2020-08-10 16:10:09.7910,-0.03,-0.09,-0.03
2020-08-10 16:10:09.8900,-0.13,-0.25,-0.08
2020-08-10 16:10:09.9900,-0.56,-0.6,-0.04
2020-08-10 16:10:10.0890,-0.28,-0.24,0.31
2020-08-10 16:10:10.1880,-1.1,0.23,0.13
2020-08-10 16:10:10.2870,-0.63,0.19,-0.03
2020-08-10 16:10:10.3870,0.07,-0.35,-0.04
2020-08-10 16:10:10.4860,0.47,-0.32,-0.07
2020-08-10 16:10:10.5850,1.13,-0.2,-0.18
2020-08-10 16:10:10.6860,1.15,-0.1,-0.04
2020-08-10 16:10:10.7840,0.64,-0.24,-0.16
2020-08-10 16:10:10.8830,0.4,-0.2,-0.16
2020-08-10 16:10:10.9820,0.14,-0.04,-0.12
2020-08-10 16:10:11.0820,0.0,-0.02,-0.04
2020-08-10 16:10:11.1810,0.05,-0.04,-0.08
2020-08-10 16:10:11.2800,-0.01,-0.03,-0.07
2020-08-10 16:10:11.3790,-0.02,-0.02,-0.07
2020-08-10 16:10:11.4790,-0.07,-0.17,-0.09
2020-08-10 16:10:11.5780,-0.26,-0.36,-0.01
2020-08-10 16:10:11.6770,-0.49,-0.5,0.12
2020-08-10 16:10:11.7760,-0.04,0.02,0.1
2020-08-10 16:10:11.8750,-0.65,0.19,0.02
2020-08-10 16:10:11.9750,-0.14,-0.21,-0.18
2020-08-10 16:10:12.0740,0.46,-0.31,-0.08
2020-08-10 16:10:12.1730,0.8,-0.39,-0.09
2020-08-10 16:10:12.2730,1.33,-0.07,-0.04
2020-08-10 16:10:12.3720,-0.38,-0.13,-0.09
2020-08-10 16:10:12.4720,0.35,-0.11,0.18
2020-08-10 16:10:12.5710,-0.06,-0.02,-0.07
2020-08-10 16:10:12.6700,-0.02,-0.01,0.03
2020-08-10 16:10:12.7690,0.02,0.01,-0.08
2020-08-10 16:10:12.8680,0.03,-0.03,-0.1
2020-08-10 16:10:12.9670,-0.02,-0.03,-0.1
2020-08-10 16:10:13.0670,-0.06,-0.09,-0.04
2020-08-10 16:10:13.1660,-0.17,-0.26,-0.02
2020-08-10 16:10:13.2650,-0.56,-0.65,0.1
2020-08-10 16:10:13.3650,-0.1,-0.1,0.14
2020-08-10 16:10:13.4700,-0.93,0.42,0.13
2020-08-10 16:10:13.5630,-0.52,-0.09,-0.12
2020-08-10 16:10:13.6620,0.18,-0.42,-0.14
2020-08-10 16:10:13.7610,0.62,-0.38,-0.05
2020-08-10 16:10:13.8610,1.3,-0.09,-0.02
2020-08-10 16:10:13.9600,-1.65,-0.14,-0.26
2020-08-10 16:10:14.0590,0.24,-0.05,0.19
2020-08-10 16:10:14.1590,-0.08,-0.02,-0.08
2020-08-10 16:10:14.2580,-0.03,-0.02,-0.03
2020-08-10 16:10:14.3570,0.04,-0.02,-0.07
2020-08-10 16:10:14.4570,-0.0,-0.0,-0.06
2020-08-10 16:10:14.5560,-0.04,-0.01,-0.11
2020-08-10 16:10:14.6550,0.01,-0.08,-0.08
2020-08-10 16:10:14.7540,-0.07,-0.17,-0.09
2020-08-10 16:10:14.8540,-0.35,-0.59,-0.16
2020-08-10 16:10:14.9530,-0.62,-0.46,0.41
2020-08-10 16:10:15.0520,-0.83,0.16,0.1
2020-08-10 16:10:15.1510,-0.62,0.14,-0.04
2020-08-10 16:10:15.2510,-0.0,-0.43,-0.08
2020-08-10 16:10:15.3500,0.61,-0.38,-0.06
2020-08-10 16:10:15.4490,0.94,-0.12,-0.09
2020-08-10 16:10:15.5480,1.41,-0.05,-0.15
2020-08-10 16:10:15.6480,0.22,-0.18,-0.2
2020-08-10 16:10:15.7470,0.35,0.02,-0.14
2020-08-10 16:10:15.8460,0.11,-0.04,-0.08
2020-08-10 16:10:15.9460,0.07,-0.03,-0.08
2020-08-10 16:10:16.0450,0.05,-0.01,-0.08
2020-08-10 16:10:16.1440,-0.03,0.01,-0.09
2020-08-10 16:10:16.2430,0.02,-0.07,-0.07
2020-08-10 16:10:16.3430,-0.06,-0.17,-0.09
2020-08-10 16:10:16.4420,-0.23,-0.42,-0.15
2020-08-10 16:10:16.5410,-0.64,-0.33,0.35
2020-08-10 16:10:16.6400,-0.12,-0.02,0.15
2020-08-10 16:10:16.7400,-0.6,0.22,0.09
2020-08-10 16:10:16.8390,-0.08,-0.24,-0.1
2020-08-10 16:10:16.9380,0.33,-0.36,-0.08
2020-08-10 16:10:17.0370,0.79,-0.36,-0.06
2020-08-10 16:10:17.1370,1.23,-0.1,-0.18
2020-08-10 16:10:17.2360,0.0,-0.37,-0.09
2020-08-10 16:10:17.3350,-0.01,0.13,0.09
2020-08-10 16:10:17.4340,-0.22,-0.01,-0.02
2020-08-10 16:10:17.5340,-0.1,0.01,-0.03
2020-08-10 16:10:17.6330,0.03,0.0,-0.05
2020-08-10 16:10:17.7320,-0.06,0.05,0.01
2020-08-10 16:10:17.8310,-0.09,0.0,-0.07
2020-08-10 16:10:17.9310,-0.05,-0.08,-0.08
2020-08-10 16:10:18.0300,-0.18,-0.28,-0.08
2020-08-10 16:10:18.1290,-0.53,-0.63,-0.01
2020-08-10 16:10:18.2290,-0.31,-0.23,0.18
2020-08-10 16:10:18.3280,-1.01,0.25,0.17
2020-08-10 16:10:18.4270,-0.51,0.1,-0.03
2020-08-10 16:10:18.5260,0.12,-0.38,0.01
2020-08-10 16:10:18.6250,0.53,-0.27,-0.05
2020-08-10 16:10:18.7250,0.89,-0.18,-0.11
2020-08-10 16:10:18.8240,1.1,-0.23,-0.07
2020-08-10 16:10:18.9240,0.57,-0.22,-0.03
2020-08-10 16:10:19.0240,0.14,-0.13,-0.22
2020-08-10 16:10:19.1220,0.02,-0.01,-0.06
2020-08-10 16:10:19.2210,0.03,-0.01,-0.07
2020-08-10 16:10:19.3210,-0.06,0.04,0.03
2020-08-10 16:10:19.4200,-0.02,-0.0,-0.06
2020-08-10 16:10:19.5190,-0.06,-0.01,-0.06
2020-08-10 16:10:19.6180,-0.07,-0.18,-0.09
2020-08-10 16:10:19.7170,-0.25,-0.47,-0.03
2020-08-10 16:10:19.8170,-0.73,-0.43,0.66
2020-08-10 16:10:19.9160,-0.35,0.04,0.19
2020-08-10 16:10:20.0170,-0.55,0.16,-0.01
2020-08-10 16:10:20.1150,-0.11,-0.22,-0.1
2020-08-10 16:10:20.2190,0.39,-0.25,-0.11
2020-08-10 16:10:20.3130,0.69,-0.3,-0.17
2020-08-10 16:10:20.4120,1.15,-0.09,-0.11
2020-08-10 16:10:20.5120,-1.75,-0.11,-0.25
2020-08-10 16:10:20.6110,0.32,-0.03,0.07
2020-08-10 16:10:20.7110,-0.03,-0.05,-0.09
2020-08-10 16:10:20.8100,-0.02,-0.03,-0.02
2020-08-10 16:10:20.9090,-0.02,0.01,-0.03
2020-08-10 16:10:21.0080,-0.01,0.03,-0.03
2020-08-10 16:10:21.1070,-0.07,0.03,-0.05
2020-08-10 16:10:21.2070,-0.04,-0.04,-0.05
2020-08-10 16:10:21.3060,-0.05,-0.2,-0.11
2020-08-10 16:10:21.4050,-0.32,-0.49,-0.03
2020-08-10 16:10:21.5040,-0.63,-0.38,0.48
2020-08-10 16:10:21.6040,-0.25,0.06,0.17
2020-08-10 16:10:21.7030,-0.55,0.24,-0.06
2020-08-10 16:10:21.8020,-0.07,-0.31,-0.1
2020-08-10 16:10:21.9010,0.31,-0.26,-0.13
2020-08-10 16:10:22.0010,0.57,-0.32,-0.18
2020-08-10 16:10:22.1000,1.2,-0.05,-0.13
2020-08-10 16:10:22.1990,-0.81,-0.21,0.1
2020-08-10 16:10:22.2980,0.2,-0.06,0.11
2020-08-10 16:10:22.3980,-0.08,-0.01,-0.05
2020-08-10 16:10:22.4970,-0.03,-0.03,-0.01
2020-08-10 16:10:22.5960,0.02,-0.01,-0.08
2020-08-10 16:10:22.6950,-0.01,-0.0,-0.06
2020-08-10 16:10:22.7950,0.01,-0.03,-0.16
2020-08-10 16:10:22.8940,-0.01,-0.12,-0.06
2020-08-10 16:10:22.9930,-0.07,-0.27,-0.05
2020-08-10 16:10:23.0930,-0.71,-0.68,0.17
2020-08-10 16:10:23.1920,-0.18,-0.33,0.1
2020-08-10 16:10:23.2910,-1.11,0.38,0.18
2020-08-10 16:10:23.3910,-0.6,0.27,-0.01
2020-08-10 16:10:23.4900,0.14,-0.49,-0.09
2020-08-10 16:10:23.5890,0.57,-0.45,-0.09
2020-08-10 16:10:23.6880,1.2,-0.11,-0.15
2020-08-10 16:10:23.7880,-0.54,-0.38,-0.39
2020-08-10 16:10:23.8870,0.05,-0.05,-0.0
2020-08-10 16:10:23.9860,-0.13,-0.04,-0.12
2020-08-10 16:10:24.0870,-0.05,-0.03,-0.03
2020-08-10 16:10:24.1840,0.03,0.01,-0.13
2020-08-10 16:10:24.2840,0.03,-0.02,-0.09
2020-08-10 16:10:24.3830,-0.02,-0.02,-0.12
2020-08-10 16:10:24.4820,-0.03,-0.07,-0.02
2020-08-10 16:10:24.5820,-0.12,-0.21,-0.06
2020-08-10 16:10:24.6810,-0.58,-0.61,0.05
2020-08-10 16:10:24.7800,-0.39,-0.37,0.3
2020-08-10 16:10:24.8790,-1.08,0.25,0.14
2020-08-10 16:10:24.9790,-0.4,0.12,-0.08
2020-08-10 16:10:25.0780,0.17,-0.36,-0.06
2020-08-10 16:10:25.1770,0.49,-0.27,-0.03
2020-08-10 16:10:25.2770,0.89,-0.13,-0.11
2020-08-10 16:10:25.3760,1.07,-0.14,-0.06
2020-08-10 16:10:25.4750,0.61,-0.3,-0.02
2020-08-10 16:10:25.5740,-0.02,0.01,-0.04
2020-08-10 16:10:25.6740,-0.01,-0.01,-0.04
2020-08-10 16:10:25.7730,0.01,-0.02,-0.07
2020-08-10 16:10:25.8720,-0.01,-0.03,-0.06
2020-08-10 16:10:25.9710,-0.0,-0.02,-0.05
2020-08-10 16:10:26.0700,-0.04,-0.01,-0.04
2020-08-10 16:10:26.1700,-0.05,-0.13,-0.12
2020-08-10 16:10:26.2690,-0.24,-0.42,0.05
2020-08-10 16:10:26.3680,-0.59,-0.41,0.16
2020-08-10 16:10:26.4680,-0.19,-0.03,0.04
2020-08-10 16:10:26.5670,-0.71,0.21,0.02
2020-08-10 16:10:26.6660,-0.0,-0.36,-0.28
2020-08-10 16:10:26.7650,0.37,-0.33,-0.15
2020-08-10 16:10:26.8650,0.78,-0.32,-0.13
2020-08-10 16:10:26.9650,1.15,-0.04,-0.08
2020-08-10 16:10:27.0630,-0.31,-0.35,0.22
2020-08-10 16:10:27.1620,0.15,0.03,0.09
2020-08-10 16:10:27.2620,0.02,-0.02,-0.14
2020-08-10 16:10:27.3610,0.12,-0.04,-0.05
2020-08-10 16:10:27.4600,-0.02,-0.0,-0.01
2020-08-10 16:10:27.5600,0.02,-0.01,-0.06
2020-08-10 16:10:27.6610,-0.01,0.0,-0.12
2020-08-10 16:10:27.7580,-0.05,-0.05,-0.03
2020-08-10 16:10:27.8570,-0.09,-0.21,-0.08
2020-08-10 16:10:27.9570,-0.41,-0.57,0.02
2020-08-10 16:10:28.0560,-0.56,-0.34,0.26
2020-08-10 16:10:28.1550,-1.04,0.18,0.09
2020-08-10 16:10:28.2540,-0.53,0.13,-0.1
2020-08-10 16:10:28.3540,0.07,-0.28,-0.11
2020-08-10 16:10:28.4530,0.41,-0.31,-0.08
2020-08-10 16:10:28.5520,1.07,-0.1,-0.1
2020-08-10 16:10:28.6510,1.01,-0.09,-0.02
2020-08-10 16:10:28.7510,0.59,-0.3,-0.35
2020-08-10 16:10:28.8500,-0.05,0.0,-0.05
2020-08-10 16:10:28.9490,0.07,-0.05,-0.1
2020-08-10 16:10:29.0480,0.06,-0.01,-0.08
2020-08-10 16:10:29.1480,0.01,-0.01,-0.08
2020-08-10 16:10:29.2470,0.03,-0.01,-0.1
2020-08-10 16:10:29.3460,0.01,-0.02,-0.03
2020-08-10 16:10:29.4450,-0.15,-0.05,0.01
2020-08-10 16:10:29.5450,-0.03,0.03,-0.03
2020-08-10 16:10:29.6440,-0.03,-0.09,-0.03
2020-08-10 16:10:29.7440,0.05,-0.02,-0.06
2020-08-10 16:10:29.8430,-0.08,-0.0,-0.07
2020-08-10 16:10:29.9420,-0.01,0.06,-0.15
2020-08-10 16:10:30.0420,-0.06,-0.06,0.03
2020-08-10 16:10:30.1400,-0.02,0.01,-0.07
2020-08-10 16:10:30.2400,0.02,-0.02,-0.07
2020-08-10 16:10:30.3390,0.06,0.02,-0.11
2020-08-10 16:10:30.4380,-0.03,0.01,-0.08
2020-08-10 16:10:30.5370,-0.01,-0.02,-0.08
2020-08-10 16:10:30.6370,-0.02,0.03,-0.03
2020-08-10 16:10:30.7360,-0.02,0.0,-0.06
2020-08-10 16:10:30.8350,-0.04,0.01,-0.02
2020-08-10 16:10:30.9340,0.07,0.02,-0.09
