time,ax,ay,az
2020-08-10 15:52:45.9150,-0.12,0.0,0.02
2020-08-10 15:52:46.0130,0.0,0.01,-0.02
2020-08-10 15:52:46.1130,0.01,0.01,0.0
2020-08-10 15:52:46.2110,-0.01,-0.0,0.0
2020-08-10 15:52:46.3100,0.02,0.02,-0.01
2020-08-10 15:52:46.4100,-0.01,-0.02,0.03
2020-08-10 15:52:46.5090,0.02,0.01,-0.02
2020-08-10 15:52:46.6100,-0.01,0.01,0.0
2020-08-10 15:52:46.7070,-0.03,0.03,-0.01
2020-08-10 15:52:46.8080,0.01,0.0,-0.04
2020-08-10 15:52:46.9060,0.01,0.0,-0.07
2020-08-10 15:52:47.0060,-0.01,0.02,0.04
2020-08-10 15:52:47.1040,-0.01,0.0,0.02
2020-08-10 15:52:47.2050,-0.03,-0.03,-0.02
2020-08-10 15:52:47.3030,-0.01,0.01,0.02
2020-08-10 15:52:47.4040,-0.03,-0.04,0.02
2020-08-10 15:52:47.5010,0.08,0.0,-0.04
2020-08-10 15:52:47.6010,0.04,0.01,-0.03
2020-08-10 15:52:47.7000,0.0,0.04,0.05
2020-08-10 15:52:47.7990,0.02,0.0,-0.05
2020-08-10 15:52:47.8980,0.01,-0.0,-0.01
2020-08-10 15:52:47.9980,-0.01,-0.01,-0.03
2020-08-10 15:52:48.0970,0.01,0.03,0.01
2020-08-10 15:52:48.1970,-0.01,-0.0,-0.0
2020-08-10 15:52:48.2950,-0.02,0.0,-0.0
2020-08-10 15:52:48.3970,0.0,-0.01,-0.01
2020-08-10 15:52:48.4940,0.0,0.0,-0.01
2020-08-10 15:52:48.5950,0.02,0.0,-0.01
2020-08-10 15:52:48.6930,-0.01,0.01,0.0
2020-08-10 15:52:48.7920,-0.02,0.0,-0.01
2020-08-10 15:52:48.8910,0.0,0.0,-0.01
2020-08-10 15:52:48.9920,-0.0,0.01,-0.01
2020-08-10 15:52:49.0890,0.01,0.02,0.02
2020-08-10 15:52:49.1890,0.0,0.0,-0.01
2020-08-10 15:52:49.2880,0.01,-0.03,-0.02
2020-08-10 15:52:49.3880,-0.03,0.04,0.02
2020-08-10 15:52:49.4860,-0.03,0.01,-0.01
2020-08-10 15:52:49.5860,0.04,0.01,-0.04
2020-08-10 15:52:49.6850,0.1,-0.0,-0.04
2020-08-10 15:52:49.7860,0.01,0.02,-0.02
2020-08-10 15:52:49.8840,0.04,-0.0,-0.01
2020-08-10 15:52:49.9830,-0.02,0.01,-0.0
2020-08-10 15:52:50.0820,-0.04,-0.0,0.0
2020-08-10 15:52:50.1820,-0.03,0.0,-0.03
2020-08-10 15:52:50.2810,-0.01,-0.01,0.01
2020-08-10 15:52:50.3800,0.01,0.01,-0.01
2020-08-10 15:52:50.4790,-0.03,-0.02,-0.01
2020-08-10 15:52:50.5790,-0.03,0.02,0.0
2020-08-10 15:52:50.6780,-0.04,0.01,0.0
2020-08-10 15:52:50.7770,-0.0,0.01,0.01
2020-08-10 15:52:50.8760,0.04,0.0,-0.03
2020-08-10 15:52:50.9760,-0.07,-0.01,0.05
2020-08-10 15:52:51.0750,-0.01,-0.01,0.01
2020-08-10 15:52:51.1740,-0.02,0.03,0.04
2020-08-10 15:52:51.2740,-0.19,-0.02,0.02
2020-08-10 15:52:51.3730,-0.03,-0.39,0.0
2020-08-10 15:52:51.4720,0.1,-0.15,0.18
2020-08-10 15:52:51.5710,-0.77,0.11,-0.24
2020-08-10 15:52:51.6700,-0.13,-0.26,-0.17
2020-08-10 15:52:51.7700,0.22,-0.22,-0.07
2020-08-10 15:52:51.8690,0.7,0.01,-0.02
2020-08-10 15:52:51.9680,0.91,0.05,0.16
2020-08-10 15:52:52.0670,0.26,-0.52,-0.11
2020-08-10 15:52:52.1670,-0.05,-0.03,0.28
2020-08-10 15:52:52.2660,-0.21,0.04,0.11
2020-08-10 15:52:52.3650,-0.05,0.03,0.03
2020-08-10 15:52:52.4640,0.03,-0.04,-0.01
2020-08-10 15:52:52.5640,0.01,-0.01,-0.02
2020-08-10 15:52:52.6630,-0.04,-0.01,-0.04
2020-08-10 15:52:52.7640,-0.09,-0.14,-0.07
2020-08-10 15:52:52.8620,-0.19,-0.59,-0.1
2020-08-10 15:52:52.9610,-0.54,-0.68,0.22
2020-08-10 15:52:53.0600,-0.87,-0.09,0.05
2020-08-10 15:52:53.1600,-0.6,0.09,-0.13
2020-08-10 15:52:53.2590,0.03,-0.33,-0.08
2020-08-10 15:52:53.3580,0.34,-0.39,-0.08
2020-08-10 15:52:53.4570,0.91,-0.19,0.08
2020-08-10 15:52:53.5570,1.25,0.06,0.21
2020-08-10 15:52:53.6560,-1.85,0.14,0.21
2020-08-10 15:52:53.7560,0.03,-0.07,0.2
2020-08-10 15:52:53.8540,0.08,-0.05,-0.14
2020-08-10 15:52:53.9550,-0.03,-0.02,0.04
2020-08-10 15:52:54.0530,-0.0,0.04,0.02
2020-08-10 15:52:54.1520,0.06,0.01,-0.02
2020-08-10 15:52:54.2510,-0.04,0.01,0.03
2020-08-10 15:52:54.3510,-0.06,-0.06,-0.03
2020-08-10 15:52:54.4500,-0.08,-0.26,-0.13
2020-08-10 15:52:54.5490,-0.5,-1.04,0.08
2020-08-10 15:52:54.6480,-0.52,-0.35,0.2
2020-08-10 15:52:54.7480,-0.88,0.28,-0.11
2020-08-10 15:52:54.8470,-0.39,-0.06,-0.3
2020-08-10 15:52:54.9460,0.21,-0.5,-0.14
2020-08-10 15:52:55.0450,0.73,-0.47,0.04
2020-08-10 15:52:55.1450,1.23,-0.05,0.18
2020-08-10 15:52:55.2440,-0.9,-0.49,-0.27
2020-08-10 15:52:55.3430,0.38,-0.16,-0.17
2020-08-10 15:52:55.4420,0.06,-0.01,-0.13
2020-08-10 15:52:55.5420,-0.02,0.01,0.02
2020-08-10 15:52:55.6410,-0.01,0.01,-0.02
2020-08-10 15:52:55.7400,0.06,0.01,-0.04
2020-08-10 15:52:55.8390,-0.04,-0.01,-0.01
2020-08-10 15:52:55.9390,-0.1,-0.08,0.0
2020-08-10 15:52:56.0380,-0.25,-0.29,-0.01
2020-08-10 15:52:56.1370,-0.58,-0.81,0.0
2020-08-10 15:52:56.2360,-0.1,-0.17,-0.06
2020-08-10 15:52:56.3360,-0.67,0.21,-0.03
2020-08-10 15:52:56.4350,-0.39,-0.14,-0.2
2020-08-10 15:52:56.5340,0.34,-0.45,0.02
2020-08-10 15:52:56.6330,0.69,-0.31,0.04
2020-08-10 15:52:56.7330,1.19,-0.02,0.15
2020-08-10 15:52:56.8320,-1.42,-0.62,-0.74
2020-08-10 15:52:56.9320,0.03,-0.16,0.23
2020-08-10 15:52:57.0310,-0.05,0.01,-0.11
2020-08-10 15:52:57.1300,-0.06,-0.06,0.05
2020-08-10 15:52:57.2290,-0.0,0.04,0.02
2020-08-10 15:52:57.3290,-0.05,0.03,-0.0
2020-08-10 15:52:57.4280,-0.11,0.01,-0.02
2020-08-10 15:52:57.5270,-0.1,-0.11,-0.03
2020-08-10 15:52:57.6260,-0.29,-0.48,-0.04
2020-08-10 15:52:57.7260,-0.8,-0.51,0.38
2020-08-10 15:52:57.8250,-0.39,0.15,0.15
2020-08-10 15:52:57.9240,-0.69,0.33,-0.03
2020-08-10 15:52:58.0230,-0.19,-0.22,-0.01
2020-08-10 15:52:58.1230,0.44,-0.34,-0.0
2020-08-10 15:52:58.2220,0.75,-0.21,0.06
2020-08-10 15:52:58.3210,1.16,0.06,0.2
2020-08-10 15:52:58.4200,-0.29,-0.26,0.6
2020-08-10 15:52:58.5200,0.19,-0.06,0.46
2020-08-10 15:52:58.6200,-0.11,0.0,0.11
2020-08-10 15:52:58.7180,-0.08,0.03,0.05
2020-08-10 15:52:58.8170,0.21,-0.16,-0.17
2020-08-10 15:52:58.9170,-0.04,0.03,0.06
2020-08-10 15:52:59.0160,-0.12,-0.0,-0.1
2020-08-10 15:52:59.1150,-0.06,-0.16,-0.04
2020-08-10 15:52:59.2140,-0.27,-0.53,-0.0
2020-08-10 15:52:59.3140,-0.71,-0.51,0.78
2020-08-10 15:52:59.4130,-0.08,0.09,-0.0
2020-08-10 15:52:59.5120,-0.69,0.05,-0.04
2020-08-10 15:52:59.6110,-0.08,-0.22,-0.13
2020-08-10 15:52:59.7110,0.33,-0.48,0.08
2020-08-10 15:52:59.8100,0.94,-0.21,0.14
2020-08-10 15:52:59.9090,1.27,0.04,0.3
2020-08-10 15:53:00.0090,0.25,-0.44,-0.34
2020-08-10 15:53:00.1080,0.26,0.05,-0.03
2020-08-10 15:53:00.2070,0.1,0.01,0.0
2020-08-10 15:53:00.3060,0.08,-0.04,-0.03
2020-08-10 15:53:00.4060,0.06,0.01,-0.03
2020-08-10 15:53:00.5050,-0.02,-0.0,-0.02
2020-08-10 15:53:00.6040,-0.03,0.0,-0.05
2020-08-10 15:53:00.7030,-0.16,-0.07,0.01
2020-08-10 15:53:00.8030,-0.31,-0.36,0.05
2020-08-10 15:53:00.9020,-0.75,-0.68,-0.07
2020-08-10 15:53:01.0010,-0.21,-0.26,0.04
2020-08-10 15:53:01.1000,-1.07,0.35,0.21
2020-08-10 15:53:01.2000,-0.46,-0.09,-0.13
2020-08-10 15:53:01.2990,0.25,-0.53,-0.03
2020-08-10 15:53:01.3980,0.91,-0.46,0.09
2020-08-10 15:53:01.4980,1.53,-0.0,0.12
2020-08-10 15:53:01.5970,-0.13,-0.22,0.51
2020-08-10 15:53:01.6960,0.09,-0.03,0.22
2020-08-10 15:53:01.7950,-0.05,0.01,0.02
2020-08-10 15:53:01.8950,-0.06,0.04,0.03
2020-08-10 15:53:01.9940,-0.12,0.05,0.1
2020-08-10 15:53:02.0930,-0.04,-0.01,-0.01
2020-08-10 15:53:02.1920,-0.1,-0.0,-0.05
2020-08-10 15:53:02.2920,-0.11,-0.08,-0.02
2020-08-10 15:53:02.3910,-0.16,-0.32,-0.11
2020-08-10 15:53:02.4900,-0.57,-0.83,-0.11
2020-08-10 15:53:02.5890,-0.13,-0.17,0.02
2020-08-10 15:53:02.6890,-1.08,0.35,0.17
2020-08-10 15:53:02.7880,-0.48,-0.1,-0.12
2020-08-10 15:53:02.8870,0.37,-0.47,0.01
2020-08-10 15:53:02.9860,0.83,-0.42,0.09
2020-08-10 15:53:03.0860,1.38,0.01,0.16
2020-08-10 15:53:03.1850,-0.99,-0.21,0.09
2020-08-10 15:53:03.2840,0.09,0.0,0.22
2020-08-10 15:53:03.3830,-0.07,-0.01,-0.03
2020-08-10 15:53:03.4830,0.02,-0.02,-0.0
2020-08-10 15:53:03.5820,-0.01,0.03,-0.01
2020-08-10 15:53:03.6810,-0.03,0.02,-0.01
2020-08-10 15:53:03.7800,0.04,-0.0,-0.07
2020-08-10 15:53:03.8800,0.08,-0.14,-0.11
2020-08-10 15:53:03.9790,-0.12,-0.3,-0.05
2020-08-10 15:53:04.0780,-0.74,-0.67,-0.04
2020-08-10 15:53:04.1780,-0.11,-0.49,-0.22
2020-08-10 15:53:04.2770,-0.82,0.37,0.07
2020-08-10 15:53:04.3760,-0.49,-0.06,-0.11
2020-08-10 15:53:04.4750,0.33,-0.4,-0.07
2020-08-10 15:53:04.5750,0.65,-0.4,0.02
2020-08-10 15:53:04.6740,1.13,-0.02,0.03
2020-08-10 15:53:04.7730,0.0,-0.42,-0.16
2020-08-10 15:53:04.8720,0.34,-0.13,-0.11
2020-08-10 15:53:04.9720,0.02,-0.02,-0.15
2020-08-10 15:53:05.0710,-0.02,0.03,0.02
2020-08-10 15:53:05.1700,0.01,-0.0,-0.03
2020-08-10 15:53:05.2700,0.04,-0.02,-0.04
2020-08-10 15:53:05.3690,-0.07,0.01,-0.03
2020-08-10 15:53:05.4680,-0.06,-0.05,-0.02
2020-08-10 15:53:05.5670,-0.08,-0.18,-0.04
2020-08-10 15:53:05.6670,-0.51,-0.77,-0.1
2020-08-10 15:53:05.7660,-0.76,-0.48,0.33
2020-08-10 15:53:05.8650,-0.91,0.06,-0.12
2020-08-10 15:53:05.9640,-0.58,0.03,-0.15
2020-08-10 15:53:06.0640,0.17,-0.44,-0.05
2020-08-10 15:53:06.1630,0.51,-0.32,0.1
2020-08-10 15:53:06.2620,0.9,-0.09,0.17
2020-08-10 15:53:06.3610,1.07,-0.01,0.2
2020-08-10 15:53:06.4610,0.93,-0.43,-0.35
2020-08-10 15:53:06.5600,0.19,-0.09,-0.11
2020-08-10 15:53:06.6590,0.06,0.02,0.02
2020-08-10 15:53:06.7590,0.03,-0.0,-0.05
2020-08-10 15:53:06.8580,-0.02,0.03,0.02
2020-08-10 15:53:06.9570,0.0,-0.02,-0.13
2020-08-10 15:53:07.0560,-0.05,-0.05,-0.04
2020-08-10 15:53:07.1560,-0.04,-0.2,-0.06
2020-08-10 15:53:07.2550,-0.37,-0.66,-0.04
2020-08-10 15:53:07.3540,-0.75,-0.54,0.46
2020-08-10 15:53:07.4530,-0.84,0.12,-0.05
2020-08-10 15:53:07.5530,-0.6,0.05,-0.13
2020-08-10 15:53:07.6520,0.12,-0.43,-0.09
2020-08-10 15:53:07.7510,0.28,-0.31,0.02
2020-08-10 15:53:07.8500,0.76,-0.27,-0.01
2020-08-10 15:53:07.9500,1.23,0.05,0.19
2020-08-10 15:53:08.0490,0.02,-0.35,0.06
2020-08-10 15:53:08.1480,0.21,-0.02,0.2
2020-08-10 15:53:08.2470,0.04,-0.02,-0.01
2020-08-10 15:53:08.3470,0.03,-0.03,-0.02
2020-08-10 15:53:08.4460,-0.04,0.03,0.03
2020-08-10 15:53:08.5450,-0.03,0.01,-0.02
2020-08-10 15:53:08.6450,-0.08,-0.01,-0.02
2020-08-10 15:53:08.7440,-0.09,-0.1,-0.04
2020-08-10 15:53:08.8430,-0.19,-0.22,-0.05
2020-08-10 15:53:08.9420,-0.55,-0.85,-0.28
2020-08-10 15:53:09.0420,-0.39,-0.17,0.18
2020-08-10 15:53:09.1410,-0.94,0.34,0.02
2020-08-10 15:53:09.2400,-0.52,0.09,-0.15
2020-08-10 15:53:09.3390,0.11,-0.37,-0.05
2020-08-10 15:53:09.4380,0.45,-0.34,0.0
2020-08-10 15:53:09.5380,1.0,-0.04,0.04
2020-08-10 15:53:09.6370,1.21,0.04,0.19
2020-08-10 15:53:09.7370,0.94,-0.52,-0.66
2020-08-10 15:53:09.8360,0.19,-0.03,0.08
2020-08-10 15:53:09.9350,-0.02,0.01,0.02
2020-08-10 15:53:10.0340,-0.04,0.01,-0.02
2020-08-10 15:53:10.1330,-0.08,0.02,0.01
2020-08-10 15:53:10.2330,-0.08,-0.0,-0.0
2020-08-10 15:53:10.3320,-0.03,0.01,-0.05
2020-08-10 15:53:10.4310,-0.03,-0.08,-0.04
2020-08-10 15:53:10.5310,-0.22,-0.39,-0.04
2020-08-10 15:53:10.6300,-0.7,-0.61,0.22
2020-08-10 15:53:10.7290,-0.21,-0.11,-0.13
2020-08-10 15:53:10.8280,-0.69,0.15,-0.03
2020-08-10 15:53:10.9280,-0.2,-0.17,-0.21
2020-08-10 15:53:11.0270,0.31,-0.45,-0.08
2020-08-10 15:53:11.1260,0.65,-0.29,0.01
2020-08-10 15:53:11.2250,1.03,-0.01,-0.01
2020-08-10 15:53:11.3250,-0.16,-0.44,-0.13
2020-08-10 15:53:11.4240,0.34,-0.22,-0.2
2020-08-10 15:53:11.5230,-0.06,0.03,-0.11
2020-08-10 15:53:11.6220,-0.04,0.01,0.0
2020-08-10 15:53:11.7220,0.0,0.01,-0.03
2020-08-10 15:53:11.8210,0.02,-0.02,-0.07
2020-08-10 15:53:11.9200,-0.05,0.01,-0.06
2020-08-10 15:53:12.0190,-0.02,-0.07,-0.04
2020-08-10 15:53:12.1190,-0.12,-0.19,-0.03
2020-08-10 15:53:12.2180,-0.41,-0.54,-0.08
2020-08-10 15:53:12.3170,-0.66,-0.7,0.45
2020-08-10 15:53:12.4170,-0.78,-0.02,-0.06
2020-08-10 15:53:12.5160,-0.47,0.07,-0.13
2020-08-10 15:53:12.6150,0.07,-0.33,-0.02
2020-08-10 15:53:12.7140,0.23,-0.31,-0.08
2020-08-10 15:53:12.8140,0.72,-0.26,0.04
2020-08-10 15:53:12.9130,1.22,0.09,0.19
2020-08-10 15:53:13.0120,0.04,-0.37,0.19
2020-08-10 15:53:13.1110,0.16,-0.04,0.11
2020-08-10 15:53:13.2110,-0.05,-0.0,0.01
2020-08-10 15:53:13.3100,0.04,-0.03,-0.08
2020-08-10 15:53:13.4090,-0.0,0.01,-0.02
2020-08-10 15:53:13.5080,-0.0,0.01,-0.06
2020-08-10 15:53:13.6080,-0.03,-0.02,-0.06
2020-08-10 15:53:13.7070,-0.14,-0.13,-0.04
2020-08-10 15:53:13.8060,-0.16,-0.32,-0.07
2020-08-10 15:53:13.9050,-0.54,-0.66,0.05
2020-08-10 15:53:14.0050,-0.2,-0.04,-0.07
2020-08-10 15:53:14.1040,-0.76,0.17,0.06
2020-08-10 15:53:14.2030,-0.54,-0.07,-0.15
2020-08-10 15:53:14.3030,0.44,-0.51,-0.05
2020-08-10 15:53:14.4020,0.61,-0.26,-0.02
2020-08-10 15:53:14.5010,1.02,-0.04,0.09
2020-08-10 15:53:14.6000,0.15,-0.39,-0.14
2020-08-10 15:53:14.7000,0.52,-0.2,-0.17
2020-08-10 15:53:14.7990,-0.01,0.0,-0.14
2020-08-10 15:53:14.8980,-0.03,-0.02,-0.06
2020-08-10 15:53:14.9970,0.0,-0.02,-0.1
2020-08-10 15:53:15.0970,-0.01,-0.02,-0.06
2020-08-10 15:53:15.1960,-0.03,-0.02,-0.06
2020-08-10 15:53:15.2950,-0.06,-0.05,-0.03
2020-08-10 15:53:15.3940,-0.09,-0.18,-0.07
2020-08-10 15:53:15.4940,-0.51,-0.68,-0.06
2020-08-10 15:53:15.5930,-0.94,-0.5,0.36
2020-08-10 15:53:15.6920,-0.79,0.03,-0.11
2020-08-10 15:53:15.7920,-0.51,0.13,-0.15
2020-08-10 15:53:15.8910,0.2,-0.33,-0.17
2020-08-10 15:53:15.9900,0.42,-0.34,-0.01
2020-08-10 15:53:16.0890,0.79,-0.15,-0.01
2020-08-10 15:53:16.1890,1.03,0.11,0.13
2020-08-10 15:53:16.2880,-0.55,-0.42,0.34
2020-08-10 15:53:16.3870,0.28,-0.03,0.22
2020-08-10 15:53:16.4860,0.07,-0.03,-0.11
2020-08-10 15:53:16.5860,-0.08,-0.01,-0.01
2020-08-10 15:53:16.6850,-0.05,0.03,0.0
2020-08-10 15:53:16.7840,0.03,-0.01,-0.08
2020-08-10 15:53:16.8830,-0.06,-0.01,-0.08
2020-08-10 15:53:16.9830,-0.01,-0.07,-0.08
2020-08-10 15:53:17.0820,-0.16,-0.24,-0.05
2020-08-10 15:53:17.1810,-0.42,-0.8,-0.22
2020-08-10 15:53:17.2800,-0.43,-0.26,0.23
2020-08-10 15:53:17.3800,-1.1,0.3,0.09
2020-08-10 15:53:17.4790,-0.52,-0.01,-0.17
2020-08-10 15:53:17.5780,0.13,-0.39,-0.05
2020-08-10 15:53:17.6770,0.53,-0.41,-0.07
2020-08-10 15:53:17.7770,1.03,-0.11,0.12
2020-08-10 15:53:17.8760,1.02,-0.09,0.06
2020-08-10 15:53:17.9750,0.71,-0.07,0.01
2020-08-10 15:53:18.0750,0.13,-0.01,-0.1
2020-08-10 15:53:18.1740,0.04,0.01,-0.08
2020-08-10 15:53:18.2730,0.05,-0.04,-0.1
2020-08-10 15:53:18.3720,0.06,-0.02,-0.08
2020-08-10 15:53:18.4720,0.01,-0.01,-0.08
2020-08-10 15:53:18.5710,-0.05,-0.03,-0.05
2020-08-10 15:53:18.6700,-0.06,-0.17,-0.12
2020-08-10 15:53:18.7700,-0.33,-0.43,0.04
2020-08-10 15:53:18.8690,-0.62,-0.59,0.48
2020-08-10 15:53:18.9680,-0.22,0.08,0.11
2020-08-10 15:53:19.0670,-0.6,0.2,-0.04
2020-08-10 15:53:19.1670,0.06,-0.34,-0.11
2020-08-10 15:53:19.2660,0.33,-0.39,-0.08
2020-08-10 15:53:19.3650,0.71,-0.26,-0.02
2020-08-10 15:53:19.4640,1.0,0.01,0.02
2020-08-10 15:53:19.5640,-1.49,-0.24,-0.22
2020-08-10 15:53:19.6630,-0.11,-0.08,-0.02
2020-08-10 15:53:19.7620,-0.03,-0.08,-0.21
2020-08-10 15:53:19.8610,0.0,0.01,0.02
2020-08-10 15:53:19.9610,-0.02,-0.01,-0.05
2020-08-10 15:53:20.0600,-0.02,0.0,-0.04
2020-08-10 15:53:20.1590,-0.03,0.01,-0.1
2020-08-10 15:53:20.2580,-0.03,-0.06,-0.04
2020-08-10 15:53:20.3580,-0.12,-0.21,-0.13
2020-08-10 15:53:20.4570,-0.46,-0.69,-0.08
2020-08-10 15:53:20.5560,-0.8,-0.59,0.24
2020-08-10 15:53:20.6550,-0.82,-0.07,-0.15
2020-08-10 15:53:20.7550,-0.34,0.07,-0.19
2020-08-10 15:53:20.8540,0.25,-0.49,-0.16
2020-08-10 15:53:20.9530,0.44,-0.28,0.02
2020-08-10 15:53:21.0530,0.89,-0.11,0.09
2020-08-10 15:53:21.1520,1.21,0.06,0.18
2020-08-10 15:53:21.2510,0.69,-0.62,-0.58
2020-08-10 15:53:21.3500,0.71,-0.33,-0.1
2020-08-10 15:53:21.4500,0.12,-0.01,0.01
2020-08-10 15:53:21.5490,0.1,-0.04,-0.13
2020-08-10 15:53:21.6480,0.02,-0.01,-0.03
2020-08-10 15:53:21.7470,-0.06,0.02,-0.0
2020-08-10 15:53:21.8470,-0.04,-0.02,-0.08
2020-08-10 15:53:21.9460,-0.05,-0.15,-0.12
2020-08-10 15:53:22.0450,-0.23,-0.39,-0.0
2020-08-10 15:53:22.1440,-0.5,-0.64,-0.0
2020-08-10 15:53:22.2440,-0.21,-0.13,0.09
2020-08-10 15:53:22.3430,-0.98,0.33,0.19
2020-08-10 15:53:22.4420,-0.55,-0.12,-0.16
2020-08-10 15:53:22.5410,0.38,-0.57,-0.02
2020-08-10 15:53:22.6410,0.74,-0.37,-0.01
2020-08-10 15:53:22.7400,0.94,0.02,0.05
2020-08-10 15:53:22.8390,0.34,-0.33,0.01
2020-08-10 15:53:22.9390,0.89,-0.31,-0.43
2020-08-10 15:53:23.0380,0.09,-0.02,-0.11
2020-08-10 15:53:23.1370,0.06,0.01,-0.01
2020-08-10 15:53:23.2360,-0.05,0.06,0.02
2020-08-10 15:53:23.3360,-0.04,0.01,-0.01
2020-08-10 15:53:23.4350,0.0,0.0,-0.1
2020-08-10 15:53:23.5340,-0.03,-0.03,-0.06
2020-08-10 15:53:23.6330,-0.07,-0.16,-0.05
2020-08-10 15:53:23.7330,-0.18,-0.55,-0.19
2020-08-10 15:53:23.8320,-0.78,-0.72,0.73
2020-08-10 15:53:23.9310,-0.26,-0.09,-0.11
2020-08-10 15:53:24.0300,-0.55,0.16,-0.16
2020-08-10 15:53:24.1300,-0.04,-0.29,-0.13
2020-08-10 15:53:24.2290,0.39,-0.37,-0.04
2020-08-10 15:53:24.3280,0.77,-0.19,-0.03
2020-08-10 15:53:24.4270,1.13,0.04,0.11
2020-08-10 15:53:24.5270,-0.79,-0.13,0.46
2020-08-10 15:53:24.6260,0.02,-0.06,0.25
2020-08-10 15:53:24.7250,-0.1,-0.04,-0.06
2020-08-10 15:53:24.8250,-0.05,-0.0,-0.03
2020-08-10 15:53:24.9240,-0.04,0.0,-0.06
2020-08-10 15:53:25.0230,-0.05,-0.01,-0.04
2020-08-10 15:53:25.1220,-0.06,-0.02,-0.1
2020-08-10 15:53:25.2220,-0.02,-0.1,-0.06
2020-08-10 15:53:25.3210,-0.1,-0.24,-0.11
2020-08-10 15:53:25.4200,-0.5,-0.85,-0.18
2020-08-10 15:53:25.5190,-0.5,-0.32,0.26
2020-08-10 15:53:25.6180,-0.87,0.26,-0.0
2020-08-10 15:53:25.7180,-0.7,0.14,-0.14
2020-08-10 15:53:25.8170,0.16,-0.53,-0.01
2020-08-10 15:53:25.9160,0.64,-0.48,0.01
2020-08-10 15:53:26.0160,1.06,-0.04,-0.0
2020-08-10 15:53:26.1150,0.85,-0.14,-0.07
2020-08-10 15:53:26.2140,0.55,-0.23,-0.22
2020-08-10 15:53:26.3130,0.01,-0.01,-0.06
2020-08-10 15:53:26.4130,-0.05,0.0,0.04
2020-08-10 15:53:26.5120,-0.02,0.01,-0.06
2020-08-10 15:53:26.6110,0.05,-0.01,-0.1
2020-08-10 15:53:26.7110,0.01,-0.02,-0.15
2020-08-10 15:53:26.8100,-0.07,-0.06,-0.03
2020-08-10 15:53:26.9090,-0.1,-0.22,-0.09
2020-08-10 15:53:27.0080,-0.56,-0.61,-0.09
2020-08-10 15:53:27.1080,-0.71,-0.58,0.18
2020-08-10 15:53:27.2070,-1.02,0.07,-0.16
2020-08-10 15:53:27.3060,-0.65,0.06,-0.18
2020-08-10 15:53:27.4050,0.13,-0.42,-0.14
2020-08-10 15:53:27.5050,0.5,-0.35,-0.09
2020-08-10 15:53:27.6040,1.13,-0.04,0.13
2020-08-10 15:53:27.7030,0.79,-0.21,0.06
2020-08-10 15:53:27.8020,0.61,-0.24,-0.24
2020-08-10 15:53:27.9020,0.21,-0.07,-0.18
2020-08-10 15:53:28.0010,0.01,0.03,-0.03
2020-08-10 15:53:28.1000,-0.01,-0.04,-0.09
2020-08-10 15:53:28.2000,0.02,-0.04,-0.06
2020-08-10 15:53:28.2990,-0.02,-0.01,-0.12
2020-08-10 15:53:28.3980,0.01,-0.08,-0.07
2020-08-10 15:53:28.4970,-0.09,-0.21,-0.11
2020-08-10 15:53:28.5970,-0.48,-0.93,0.0
2020-08-10 15:53:28.6960,-0.75,-0.28,0.3
2020-08-10 15:53:28.7950,-1.07,0.34,-0.11
2020-08-10 15:53:28.8950,-0.77,0.04,-0.27
2020-08-10 15:53:28.9940,0.1,-0.53,-0.03
2020-08-10 15:53:29.0930,0.67,-0.31,0.07
2020-08-10 15:53:29.1920,1.1,-0.11,0.07
2020-08-10 15:53:29.2910,-0.47,-0.68,-0.63
2020-08-10 15:53:29.3910,-0.0,-0.16,0.14
2020-08-10 15:53:29.4900,-0.11,-0.01,-0.08
2020-08-10 15:53:29.5890,-0.07,0.0,-0.03
2020-08-10 15:53:29.6880,0.0,0.0,-0.06
2020-08-10 15:53:29.7880,0.04,-0.03,-0.11
2020-08-10 15:53:29.8870,-0.05,-0.01,-0.08
2020-08-10 15:53:29.9860,-0.01,-0.08,-0.17
2020-08-10 15:53:30.0860,-0.17,-0.25,-0.06
2020-08-10 15:53:30.1850,-0.58,-0.86,-0.09
2020-08-10 15:53:30.2840,-0.32,-0.25,0.05
2020-08-10 15:53:30.3830,-0.89,0.29,0.08
2020-08-10 15:53:30.4830,-0.64,0.09,-0.16
2020-08-10 15:53:30.5820,0.08,-0.42,-0.1
2020-08-10 15:53:30.6810,0.39,-0.41,-0.06
2020-08-10 15:53:30.7800,1.01,-0.08,0.02
2020-08-10 15:53:30.8800,1.29,0.03,0.14
2020-08-10 15:53:30.9790,0.98,-0.31,-0.39
2020-08-10 15:53:31.0780,0.21,0.03,-0.11
2020-08-10 15:53:31.1770,0.09,-0.02,-0.09
2020-08-10 15:53:31.2770,0.03,-0.02,-0.1
2020-08-10 15:53:31.3760,0.03,-0.02,-0.1
2020-08-10 15:53:31.4750,-0.02,-0.0,-0.08
2020-08-10 15:53:31.5740,-0.07,-0.06,-0.07
2020-08-10 15:53:31.6740,-0.04,-0.16,-0.07
2020-08-10 15:53:31.7730,-0.37,-0.53,-0.13
2020-08-10 15:53:31.8720,-0.76,-0.62,0.37
2020-08-10 15:53:31.9720,-0.53,-0.0,-0.01
2020-08-10 15:53:32.0710,-0.66,0.16,-0.13
2020-08-10 15:53:32.1700,-0.02,-0.5,-0.13
2020-08-10 15:53:32.2690,0.43,-0.47,0.03
2020-08-10 15:53:32.3690,0.89,-0.16,0.04
2020-08-10 15:53:32.4680,1.22,0.09,0.16
2020-08-10 15:53:32.5670,0.0,-0.35,0.09
2020-08-10 15:53:32.6660,0.12,0.01,0.11
2020-08-10 15:53:32.7660,0.02,-0.07,-0.02
2020-08-10 15:53:32.8650,0.01,-0.01,-0.08
2020-08-10 15:53:32.9650,0.0,0.0,-0.06
2020-08-10 15:53:33.0630,-0.0,-0.01,-0.09
2020-08-10 15:53:33.1630,-0.05,-0.02,-0.08
2020-08-10 15:53:33.2620,-0.02,-0.13,-0.07
2020-08-10 15:53:33.3610,-0.19,-0.49,-0.16
2020-08-10 15:53:33.4610,-0.8,-0.67,0.23
2020-08-10 15:53:33.5600,-0.01,-0.12,-0.16
2020-08-10 15:53:33.6590,-0.77,0.27,0.06
2020-08-10 15:53:33.7580,-0.42,-0.12,-0.24
2020-08-10 15:53:33.8580,0.55,-0.57,-0.07
2020-08-10 15:53:33.9570,0.94,-0.29,0.07
2020-08-10 15:53:34.0560,1.44,0.1,0.23
2020-08-10 15:53:34.1550,0.43,-0.55,-0.14
2020-08-10 15:53:34.2550,0.24,-0.07,-0.09
2020-08-10 15:53:34.3540,0.06,-0.02,-0.04
2020-08-10 15:53:34.4530,-0.0,0.0,-0.04
2020-08-10 15:53:34.5520,-0.05,-0.01,-0.05
2020-08-10 15:53:34.6520,-0.07,-0.02,-0.07
2020-08-10 15:53:34.7510,0.0,-0.03,-0.12
2020-08-10 15:53:34.8500,0.14,-0.18,-0.19
2020-08-10 15:53:34.9490,-0.16,-0.34,-0.14
2020-08-10 15:53:35.0490,-0.89,-0.57,-0.03
2020-08-10 15:53:35.1480,-0.23,-0.21,-0.07
2020-08-10 15:53:35.2470,-0.78,0.23,0.06
2020-08-10 15:53:35.3460,-0.6,0.07,-0.15
2020-08-10 15:53:35.4460,0.11,-0.4,-0.05
2020-08-10 15:53:35.5450,0.61,-0.35,0.02
2020-08-10 15:53:35.6440,1.1,-0.03,-0.02
2020-08-10 15:53:35.7440,0.93,-0.26,0.07
2020-08-10 15:53:35.8430,0.76,-0.13,-0.1
2020-08-10 15:53:35.9420,0.21,-0.03,-0.18
2020-08-10 15:53:36.0410,0.05,0.02,-0.03
2020-08-10 15:53:36.1400,0.05,-0.06,-0.13
2020-08-10 15:53:36.2400,0.03,-0.03,-0.09
2020-08-10 15:53:36.3390,-0.07,0.01,-0.04
2020-08-10 15:53:36.4380,-0.07,0.0,-0.06
2020-08-10 15:53:36.5380,-0.0,-0.12,-0.13
2020-08-10 15:53:36.6380,-0.17,-0.39,-0.07
2020-08-10 15:53:36.7360,-0.68,-0.71,-0.13
2020-08-10 15:53:36.8350,-0.16,-0.23,-0.01
2020-08-10 15:53:36.9350,-0.89,0.22,0.17
2020-08-10 15:53:37.0340,-0.62,0.01,-0.14
2020-08-10 15:53:37.1330,0.26,-0.5,-0.1
2020-08-10 15:53:37.2320,0.67,-0.34,-0.03
2020-08-10 15:53:37.3320,1.1,-0.05,0.07
2020-08-10 15:53:37.4310,0.79,-0.37,-0.01
2020-08-10 15:53:37.5300,0.85,-0.17,-0.04
2020-08-10 15:53:37.6300,-0.0,-0.06,-0.16
2020-08-10 15:53:37.7290,0.01,0.01,-0.09
2020-08-10 15:53:37.8280,0.09,-0.03,-0.14
2020-08-10 15:53:37.9270,0.02,-0.02,-0.08
2020-08-10 15:53:38.0260,-0.02,-0.0,-0.08
2020-08-10 15:53:38.1260,0.04,-0.05,-0.13
2020-08-10 15:53:38.2250,0.03,-0.19,-0.14
2020-08-10 15:53:38.3240,-0.22,-0.4,-0.07
2020-08-10 15:53:38.4240,-0.84,-0.63,0.3
2020-08-10 15:53:38.5230,-0.02,0.0,0.02
2020-08-10 15:53:38.6220,-0.81,0.12,-0.07
2020-08-10 15:53:38.7210,-0.29,-0.19,-0.29
2020-08-10 15:53:38.8210,0.49,-0.39,-0.16
2020-08-10 15:53:38.9200,0.67,-0.38,-0.04
2020-08-10 15:53:39.0190,1.19,-0.02,0.06
2020-08-10 15:53:39.1180,-2.02,-0.2,-0.36
2020-08-10 15:53:39.2180,-0.01,-0.2,0.18
2020-08-10 15:53:39.3170,-0.05,-0.01,-0.15
2020-08-10 15:53:39.4160,-0.03,-0.02,-0.05
2020-08-10 15:53:39.5150,0.01,-0.01,-0.08
2020-08-10 15:53:39.6150,-0.01,-0.01,-0.08
2020-08-10 15:53:39.7140,-0.03,-0.01,-0.12
2020-08-10 15:53:39.8130,-0.05,-0.07,-0.09
2020-08-10 15:53:39.9130,-0.13,-0.2,-0.07
2020-08-10 15:53:40.0120,-0.57,-0.9,-0.0
2020-08-10 15:53:40.1110,-0.58,-0.24,0.21
2020-08-10 15:53:40.2100,-1.11,0.31,-0.08
2020-08-10 15:53:40.3100,-0.62,0.1,-0.23
2020-08-10 15:53:40.4090,0.14,-0.48,-0.1
2020-08-10 15:53:40.5080,0.54,-0.53,-0.01
2020-08-10 15:53:40.6070,1.17,-0.05,0.03
2020-08-10 15:53:40.7070,1.03,0.04,0.15
2020-08-10 15:53:40.8060,0.94,-0.76,-0.77
2020-08-10 15:53:40.9050,0.07,-0.04,0.04
2020-08-10 15:53:41.0040,0.1,-0.03,-0.07
2020-08-10 15:53:41.1040,0.01,-0.05,-0.12
2020-08-10 15:53:41.2030,0.0,0.01,-0.04
2020-08-10 15:53:41.3020,-0.06,0.03,-0.08
2020-08-10 15:53:41.4020,-0.02,-0.05,-0.11
2020-08-10 15:53:41.5010,-0.04,-0.17,-0.11
2020-08-10 15:53:41.6000,-0.21,-0.41,-0.09
2020-08-10 15:53:41.6990,-1.03,-0.58,0.33
2020-08-10 15:53:41.7990,0.04,-0.04,-0.14
2020-08-10 15:53:41.8980,-0.72,0.25,0.05
2020-08-10 15:53:41.9970,-0.29,-0.17,-0.31
2020-08-10 15:53:42.0960,0.47,-0.4,-0.11
2020-08-10 15:53:42.1960,0.63,-0.33,0.07
2020-08-10 15:53:42.2950,1.14,0.01,0.07
2020-08-10 15:53:42.3940,-1.34,-0.35,-0.75
2020-08-10 15:53:42.4930,0.04,-0.15,0.01
2020-08-10 15:53:42.5930,0.03,-0.03,-0.15
2020-08-10 15:53:42.6920,-0.04,0.03,-0.05
2020-08-10 15:53:42.7910,0.02,-0.03,-0.08
2020-08-10 15:53:42.8900,0.06,-0.07,-0.1
2020-08-10 15:53:42.9900,-0.02,0.01,-0.09
2020-08-10 15:53:43.0890,0.04,-0.06,-0.17
2020-08-10 15:53:43.1880,-0.03,-0.12,-0.07
2020-08-10 15:53:43.2870,-0.24,-0.44,-0.09
2020-08-10 15:53:43.3870,-0.56,-0.55,0.02
2020-08-10 15:53:43.4860,-0.18,-0.01,-0.03
2020-08-10 15:53:43.5850,-0.71,0.28,-0.01
2020-08-10 15:53:43.6850,-0.33,-0.3,-0.16
2020-08-10 15:53:43.7840,0.31,-0.43,-0.11
2020-08-10 15:53:43.8830,0.6,-0.3,-0.06
2020-08-10 15:53:43.9820,1.11,0.04,-0.02
2020-08-10 15:53:44.0820,-0.11,-0.6,-0.3
2020-08-10 15:53:44.1810,-0.06,-0.13,0.17
2020-08-10 15:53:44.2800,-0.32,-0.01,-0.1
2020-08-10 15:53:44.3790,-0.07,-0.03,-0.04
2020-08-10 15:53:44.4790,-0.02,0.01,-0.07
2020-08-10 15:53:44.5780,-0.01,-0.01,-0.09
2020-08-10 15:53:44.6770,-0.18,0.06,-0.01
2020-08-10 15:53:44.7760,-0.01,-0.08,-0.13
2020-08-10 15:53:44.8760,-0.09,-0.19,-0.06
2020-08-10 15:53:44.9750,-0.35,-0.66,-0.14
2020-08-10 15:53:45.0740,-0.73,-0.59,0.42
2020-08-10 15:53:45.1740,-0.91,0.03,-0.22
2020-08-10 15:53:45.2730,-0.57,0.13,-0.19
2020-08-10 15:53:45.3720,-0.01,-0.38,-0.13
2020-08-10 15:53:45.4710,0.45,-0.35,-0.04
2020-08-10 15:53:45.5710,0.75,-0.29,-0.01
2020-08-10 15:53:45.6700,1.33,0.09,0.13
2020-08-10 15:53:45.7690,-0.03,-0.51,-0.13
2020-08-10 15:53:45.8680,-0.14,0.04,0.1
2020-08-10 15:53:45.9680,0.07,-0.07,-0.04
2020-08-10 15:53:46.0670,0.03,-0.02,-0.11
2020-08-10 15:53:46.1660,0.03,-0.02,-0.06
2020-08-10 15:53:46.2650,0.02,-0.03,-0.13
2020-08-10 15:53:46.3650,0.01,-0.01,-0.09
2020-08-10 15:53:46.4640,-0.02,-0.12,-0.09
2020-08-10 15:53:46.5630,-0.14,-0.23,-0.12
2020-08-10 15:53:46.6620,-0.64,-0.75,-0.3
2020-08-10 15:53:46.7620,-0.22,-0.24,0.02
2020-08-10 15:53:46.8610,-0.97,0.25,0.03
2020-08-10 15:53:46.9600,-0.64,0.16,-0.08
2020-08-10 15:53:47.0600,0.2,-0.44,-0.11
2020-08-10 15:53:47.1590,0.52,-0.44,-0.05
2020-08-10 15:53:47.2580,1.13,-0.04,-0.05
2020-08-10 15:53:47.3570,0.74,-0.13,0.03
2020-08-10 15:53:47.4570,0.83,-0.23,0.04
2020-08-10 15:53:47.5560,-0.06,0.0,-0.03
2020-08-10 15:53:47.6550,-0.07,-0.01,-0.09
2020-08-10 15:53:47.7540,-0.02,-0.01,-0.1
2020-08-10 15:53:47.8540,-0.0,-0.01,-0.07
2020-08-10 15:53:47.9530,-0.06,0.0,-0.08
2020-08-10 15:53:48.0520,-0.06,-0.02,-0.09
2020-08-10 15:53:48.1510,-0.05,-0.18,-0.13
2020-08-10 15:53:48.2510,-0.35,-0.53,-0.1
2020-08-10 15:53:48.3500,-0.68,-0.64,0.75
2020-08-10 15:53:48.4490,-0.39,0.03,-0.05
2020-08-10 15:53:48.5490,-0.44,0.12,-0.11
2020-08-10 15:53:48.6480,0.18,-0.33,-0.19
2020-08-10 15:53:48.7470,0.41,-0.27,0.03
2020-08-10 15:53:48.8460,0.81,-0.2,-0.05
2020-08-10 15:53:48.9460,1.27,0.05,0.05
2020-08-10 15:53:49.0450,-1.19,-0.18,0.31
2020-08-10 15:53:49.1440,0.03,0.02,0.25
2020-08-10 15:53:49.2440,-0.07,-0.05,-0.07
2020-08-10 15:53:49.3430,-0.04,-0.01,-0.05
2020-08-10 15:53:49.4420,-0.0,-0.03,-0.08
2020-08-10 15:53:49.5410,-0.02,0.0,-0.09
2020-08-10 15:53:49.6400,0.0,-0.0,-0.12
2020-08-10 15:53:49.7400,-0.03,-0.12,-0.17
2020-08-10 15:53:49.8390,-0.21,-0.31,-0.1
2020-08-10 15:53:49.9380,-0.74,-0.68,0.03
2020-08-10 15:53:50.0380,-0.11,-0.04,-0.08
2020-08-10 15:53:50.1370,-0.71,0.22,-0.07
2020-08-10 15:53:50.2360,-0.29,-0.11,-0.26
2020-08-10 15:53:50.3350,0.39,-0.45,-0.1
2020-08-10 15:53:50.4350,0.56,-0.32,-0.11
2020-08-10 15:53:50.5340,1.12,-0.07,-0.0
2020-08-10 15:53:50.6330,0.25,-0.42,-0.13
2020-08-10 15:53:50.7320,0.81,-0.27,-0.44
2020-08-10 15:53:50.8310,0.31,-0.09,-0.24
2020-08-10 15:53:50.9310,0.07,-0.01,-0.04
2020-08-10 15:53:51.0300,-0.01,-0.03,-0.1
2020-08-10 15:53:51.1290,0.0,-0.03,-0.09
2020-08-10 15:53:51.2290,-0.06,0.03,-0.07
2020-08-10 15:53:51.3280,-0.04,-0.01,-0.09
2020-08-10 15:53:51.4270,-0.06,-0.15,-0.12
2020-08-10 15:53:51.5260,-0.22,-0.38,-0.13
2020-08-10 15:53:51.6250,-0.71,-0.71,0.02
2020-08-10 15:53:51.7250,-0.3,-0.13,-0.16
2020-08-10 15:53:51.8240,-0.81,0.27,0.03
2020-08-10 15:53:51.9230,-0.4,-0.09,-0.22
2020-08-10 15:53:52.0230,0.22,-0.34,-0.08
2020-08-10 15:53:52.1220,0.64,-0.37,-0.01
2020-08-10 15:53:52.2210,1.3,-0.04,0.04
2020-08-10 15:53:52.3200,-2.1,-0.42,-0.92
2020-08-10 15:53:52.4200,0.28,-0.15,-0.09
2020-08-10 15:53:52.5190,0.01,-0.05,-0.18
2020-08-10 15:53:52.6180,-0.06,-0.01,-0.03
2020-08-10 15:53:52.7180,-0.01,0.01,-0.05
2020-08-10 15:53:52.8170,0.01,-0.04,-0.13
2020-08-10 15:53:52.9160,-0.06,-0.01,-0.09
2020-08-10 15:53:53.0150,-0.08,-0.12,-0.08
2020-08-10 15:53:53.1150,-0.2,-0.27,-0.11
2020-08-10 15:53:53.2140,-0.64,-0.91,-0.21
2020-08-10 15:53:53.3130,-0.14,-0.14,-0.03
2020-08-10 15:53:53.4130,-0.84,0.31,0.05
2020-08-10 15:53:53.5120,-0.49,-0.03,-0.16
2020-08-10 15:53:53.6110,0.24,-0.54,-0.14
2020-08-10 15:53:53.7100,0.71,-0.36,-0.05
2020-08-10 15:53:53.8090,1.07,-0.06,0.03
2020-08-10 15:53:53.9090,-0.36,-0.49,-0.35
2020-08-10 15:53:54.0080,0.24,-0.18,0.06
2020-08-10 15:53:54.1070,0.02,-0.03,-0.15
2020-08-10 15:53:54.2060,-0.12,0.03,-0.07
2020-08-10 15:53:54.3060,-0.05,-0.0,-0.09
2020-08-10 15:53:54.4050,-0.01,-0.02,-0.1
2020-08-10 15:53:54.5040,-0.02,0.01,-0.13
2020-08-10 15:53:54.6040,-0.03,-0.06,-0.09
2020-08-10 15:53:54.7030,-0.05,-0.19,-0.09
2020-08-10 15:53:54.8020,-0.34,-0.6,-0.15
2020-08-10 15:53:54.9010,-0.69,-0.62,0.29
2020-08-10 15:53:55.0000,-0.71,-0.16,-0.3
2020-08-10 15:53:55.1000,-0.62,0.12,-0.24
2020-08-10 15:53:55.1990,-0.05,-0.38,-0.1
2020-08-10 15:53:55.2980,0.25,-0.29,-0.06
2020-08-10 15:53:55.3970,0.69,-0.21,-0.0
2020-08-10 15:53:55.4970,1.2,-0.02,0.12
2020-08-10 15:53:55.5960,-2.11,-0.25,-0.56
2020-08-10 15:53:55.6950,0.06,-0.15,0.11
2020-08-10 15:53:55.7950,0.1,-0.09,-0.11
2020-08-10 15:53:55.8940,-0.0,-0.04,-0.06
2020-08-10 15:53:55.9930,0.04,-0.01,-0.07
2020-08-10 15:53:56.0920,0.08,-0.07,-0.18
2020-08-10 15:53:56.1920,-0.06,-0.01,-0.09
2020-08-10 15:53:56.2910,-0.09,-0.09,-0.1
2020-08-10 15:53:56.3900,-0.14,-0.23,-0.16
2020-08-10 15:53:56.4900,-0.44,-0.9,-0.39
2020-08-10 15:53:56.5890,-0.12,-0.2,-0.02
2020-08-10 15:53:56.6880,-0.9,0.22,-0.02
2020-08-10 15:53:56.7870,-0.67,0.11,-0.12
2020-08-10 15:53:56.8870,0.11,-0.35,-0.09
2020-08-10 15:53:56.9860,0.53,-0.22,-0.04
2020-08-10 15:53:57.0850,0.74,-0.07,-0.01
2020-08-10 15:53:57.1840,1.24,0.04,0.1
2020-08-10 15:53:57.2840,0.51,-0.37,-0.48
2020-08-10 15:53:57.3830,0.13,-0.03,0.03
2020-08-10 15:53:57.4820,-0.05,0.01,-0.03
2020-08-10 15:53:57.5810,0.06,-0.03,-0.11
2020-08-10 15:53:57.6810,0.03,-0.01,-0.08
2020-08-10 15:53:57.7800,-0.01,-0.04,-0.09
2020-08-10 15:53:57.8790,-0.05,-0.03,-0.11
2020-08-10 15:53:57.9790,-0.04,-0.16,-0.11
2020-08-10 15:53:58.0780,-0.04,-0.54,-0.27
2020-08-10 15:53:58.1770,-0.64,-0.6,0.48
2020-08-10 15:53:58.2760,-0.07,0.1,0.03
2020-08-10 15:53:58.3750,-0.66,0.1,-0.14
2020-08-10 15:53:58.4750,-0.1,-0.2,-0.28
2020-08-10 15:53:58.5740,0.42,-0.48,0.06
2020-08-10 15:53:58.6730,0.63,-0.31,-0.13
2020-08-10 15:53:58.7720,1.08,-0.04,-0.0
2020-08-10 15:53:58.8720,-1.01,-0.61,-0.76
2020-08-10 15:53:58.9710,0.05,-0.11,0.15
2020-08-10 15:53:59.0700,-0.24,-0.03,0.0
2020-08-10 15:53:59.1700,-0.06,-0.01,-0.08
2020-08-10 15:53:59.2690,0.02,-0.01,-0.08
2020-08-10 15:53:59.3680,-0.02,-0.02,-0.09
2020-08-10 15:53:59.4670,-0.03,-0.01,-0.11
2020-08-10 15:53:59.5670,-0.04,-0.09,-0.09
2020-08-10 15:53:59.6660,-0.08,-0.2,-0.15
2020-08-10 15:53:59.7650,-0.39,-0.88,-0.19
2020-08-10 15:53:59.8640,-0.84,-0.45,0.35
2020-08-10 15:53:59.9640,-1.01,0.1,-0.2
2020-08-10 15:54:00.0630,-0.52,0.05,-0.21
2020-08-10 15:54:00.1620,0.12,-0.46,-0.16
2020-08-10 15:54:00.2610,0.43,-0.24,-0.04
2020-08-10 15:54:00.3610,0.78,-0.27,-0.02
2020-08-10 15:54:00.4600,1.25,0.03,0.13
2020-08-10 15:54:00.5590,0.15,-0.31,0.12
2020-08-10 15:54:00.6590,0.28,-0.18,0.18
2020-08-10 15:54:00.7580,0.05,-0.03,0.0
2020-08-10 15:54:00.8570,-0.02,-0.02,-0.07
2020-08-10 15:54:00.9560,0.06,-0.01,-0.14
2020-08-10 15:54:01.0560,0.01,-0.01,-0.13
2020-08-10 15:54:01.1550,-0.05,0.0,-0.09
2020-08-10 15:54:01.2540,-0.02,-0.15,-0.17
2020-08-10 15:54:01.3530,-0.11,-0.24,-0.16
2020-08-10 15:54:01.4530,-0.7,-0.67,-0.11
2020-08-10 15:54:01.5520,-0.18,-0.23,-0.14
2020-08-10 15:54:01.6510,-0.75,0.17,0.04
2020-08-10 15:54:01.7510,-0.55,0.11,-0.2
2020-08-10 15:54:01.8500,0.15,-0.39,-0.1
2020-08-10 15:54:01.9490,0.37,-0.33,-0.04
2020-08-10 15:54:02.0480,0.82,-0.1,0.03
2020-08-10 15:54:02.1480,0.99,0.02,0.01
2020-08-10 15:54:02.2470,-0.49,-0.47,0.37
2020-08-10 15:54:02.3460,0.13,0.03,0.27
2020-08-10 15:54:02.4450,-0.06,-0.02,-0.1
2020-08-10 15:54:02.5450,-0.11,0.02,-0.0
2020-08-10 15:54:02.6440,-0.02,-0.01,-0.11
2020-08-10 15:54:02.7430,-0.03,-0.03,-0.08
2020-08-10 15:54:02.8420,-0.07,-0.01,-0.08
2020-08-10 15:54:02.9420,-0.0,-0.09,-0.09
2020-08-10 15:54:03.0410,-0.11,-0.3,-0.19
2020-08-10 15:54:03.1400,-0.56,-0.85,-0.23
2020-08-10 15:54:03.2390,-0.46,-0.16,0.06
2020-08-10 15:54:03.3390,-0.93,0.33,-0.13
2020-08-10 15:54:03.4380,-0.68,0.11,-0.16
2020-08-10 15:54:03.5370,0.16,-0.31,-0.19
2020-08-10 15:54:03.6360,0.5,-0.49,-0.02
2020-08-10 15:54:03.7360,0.98,-0.12,0.02
2020-08-10 15:54:03.8350,0.92,0.01,0.05
2020-08-10 15:54:03.9340,0.98,-0.37,-0.53
2020-08-10 15:54:04.0330,0.35,-0.05,-0.04
2020-08-10 15:54:04.1330,0.24,-0.04,-0.09
2020-08-10 15:54:04.2320,0.07,-0.03,-0.12
2020-08-10 15:54:04.3310,-0.02,-0.01,-0.06
2020-08-10 15:54:04.4310,-0.03,-0.02,-0.13
2020-08-10 15:54:04.5300,-0.03,-0.06,-0.16
2020-08-10 15:54:04.6290,-0.13,-0.2,-0.11
2020-08-10 15:54:04.7280,-0.25,-0.47,-0.22
2020-08-10 15:54:04.8280,-0.82,-0.71,0.34
2020-08-10 15:54:04.9270,-0.41,-0.13,-0.09
2020-08-10 15:54:05.0260,-0.45,0.14,-0.12
2020-08-10 15:54:05.1250,0.08,-0.38,-0.11
2020-08-10 15:54:05.2250,0.32,-0.31,-0.08
2020-08-10 15:54:05.3240,0.73,-0.31,-0.09
2020-08-10 15:54:05.4230,1.19,-0.02,0.11
2020-08-10 15:54:05.5230,-1.37,-0.25,-0.03
2020-08-10 15:54:05.6220,0.17,-0.09,0.14
2020-08-10 15:54:05.7210,-0.03,-0.05,-0.14
2020-08-10 15:54:05.8200,-0.02,-0.02,-0.08
2020-08-10 15:54:05.9200,-0.01,-0.01,-0.08
2020-08-10 15:54:06.0190,-0.01,-0.02,-0.11
2020-08-10 15:54:06.1180,-0.02,-0.01,-0.13
2020-08-10 15:54:06.2170,-0.06,-0.09,-0.06
2020-08-10 15:54:06.3170,-0.12,-0.24,-0.11
2020-08-10 15:54:06.4160,-0.31,-0.56,-0.29
2020-08-10 15:54:06.5150,-0.73,-0.57,0.52
2020-08-10 15:54:06.6140,-0.52,-0.16,-0.13
2020-08-10 15:54:06.7140,-0.54,0.1,-0.08
2020-08-10 15:54:06.8130,-0.19,-0.19,-0.29
2020-08-10 15:54:06.9120,0.4,-0.41,-0.15
2020-08-10 15:54:07.0110,1.01,-0.41,0.03
2020-08-10 15:54:07.1110,1.35,0.03,0.22
2020-08-10 15:54:07.2100,0.21,-0.51,-0.45
2020-08-10 15:54:07.3090,0.04,0.01,0.22
2020-08-10 15:54:07.4080,0.01,-0.06,-0.08
2020-08-10 15:54:07.5080,0.04,-0.02,-0.07
2020-08-10 15:54:07.6070,0.06,-0.03,-0.11
2020-08-10 15:54:07.7060,-0.02,-0.02,-0.09
2020-08-10 15:54:07.8050,-0.11,-0.03,-0.08
2020-08-10 15:54:07.9050,-0.0,-0.11,-0.13
2020-08-10 15:54:08.0040,-0.18,-0.32,-0.07
2020-08-10 15:54:08.1030,-0.64,-0.78,-0.19
2020-08-10 15:54:08.2030,-0.25,-0.12,-0.03
2020-08-10 15:54:08.3020,-0.84,0.2,0.08
2020-08-10 15:54:08.4010,-0.65,-0.0,-0.34
2020-08-10 15:54:08.5000,0.36,-0.44,-0.1
2020-08-10 15:54:08.6000,0.48,-0.27,0.04
2020-08-10 15:54:08.6990,0.88,-0.03,0.08
2020-08-10 15:54:08.7980,0.77,0.01,-0.03
2020-08-10 15:54:08.8980,0.03,-0.28,-0.16
2020-08-10 15:54:08.9970,0.37,-0.03,0.09
2020-08-10 15:54:09.0960,0.13,-0.04,-0.07
2020-08-10 15:54:09.1950,-0.02,-0.05,-0.11
2020-08-10 15:54:09.2940,0.03,-0.03,-0.1
2020-08-10 15:54:09.3940,0.01,-0.03,-0.13
2020-08-10 15:54:09.4930,0.0,-0.07,-0.1
2020-08-10 15:54:09.5930,-0.15,-0.15,-0.1
2020-08-10 15:54:09.6910,-0.12,-0.42,-0.23
2020-08-10 15:54:09.7910,-0.41,-0.72,0.29
2020-08-10 15:54:09.8900,-0.13,-0.2,-0.03
2020-08-10 15:54:09.9890,-0.48,0.2,-0.21
2020-08-10 15:54:10.0890,-0.19,-0.15,-0.26
2020-08-10 15:54:10.1880,0.44,-0.35,-0.18
2020-08-10 15:54:10.2870,0.59,-0.19,-0.14
2020-08-10 15:54:10.3860,0.89,-0.04,-0.04
2020-08-10 15:54:10.4860,0.52,-0.33,-0.01
2020-08-10 15:54:10.5850,0.64,-0.37,-0.29
2020-08-10 15:54:10.6840,0.14,-0.07,-0.24
2020-08-10 15:54:10.7830,0.04,-0.01,-0.13
2020-08-10 15:54:10.8830,0.01,-0.04,-0.13
2020-08-10 15:54:10.9820,0.04,-0.02,-0.15
2020-08-10 15:54:11.0810,-0.08,0.01,-0.06
2020-08-10 15:54:11.1800,-0.08,-0.02,-0.09
2020-08-10 15:54:11.2800,-0.03,-0.15,-0.19
2020-08-10 15:54:11.3790,-0.24,-0.45,-0.12
2020-08-10 15:54:11.4780,-0.82,-0.48,0.37
2020-08-10 15:54:11.5780,0.12,-0.0,-0.07
2020-08-10 15:54:11.6770,-0.61,0.11,0.01
2020-08-10 15:54:11.7760,-0.24,-0.18,-0.27
2020-08-10 15:54:11.8750,0.4,-0.45,-0.08
2020-08-10 15:54:11.9750,0.54,-0.3,-0.04
2020-08-10 15:54:12.0740,1.25,-0.05,0.02
2020-08-10 15:54:12.1730,0.79,-0.23,-0.05
2020-08-10 15:54:12.2720,1.4,-0.47,-0.59
2020-08-10 15:54:12.3720,0.19,-0.07,-0.2
2020-08-10 15:54:12.4710,0.09,-0.03,-0.08
2020-08-10 15:54:12.5700,-0.07,0.01,-0.06
2020-08-10 15:54:12.6690,0.01,-0.03,-0.13
2020-08-10 15:54:12.7690,-0.03,0.01,-0.08
2020-08-10 15:54:12.8680,-0.05,-0.04,-0.1
2020-08-10 15:54:12.9670,-0.03,-0.2,-0.18
2020-08-10 15:54:13.0660,-0.26,-0.56,-0.17
2020-08-10 15:54:13.1660,-1.01,-0.88,0.42
2020-08-10 15:54:13.2650,-0.69,-0.16,-0.22
2020-08-10 15:54:13.3640,-0.55,0.18,-0.18
2020-08-10 15:54:13.4630,0.14,-0.4,-0.22
2020-08-10 15:54:13.5630,0.35,-0.29,0.01
2020-08-10 15:54:13.6620,0.54,-0.13,-0.13
2020-08-10 15:54:13.7610,1.13,0.03,-0.05
2020-08-10 15:54:13.8600,-2.21,-0.31,-0.74
2020-08-10 15:54:13.9600,-0.21,-0.03,0.1
2020-08-10 15:54:14.0590,-0.07,-0.07,-0.15
2020-08-10 15:54:14.1580,-0.06,-0.01,-0.09
2020-08-10 15:54:14.2580,-0.03,-0.02,-0.08
2020-08-10 15:54:14.3570,-0.06,0.0,-0.08
2020-08-10 15:54:14.4560,-0.1,-0.01,-0.1
2020-08-10 15:54:14.5550,-0.08,-0.1,-0.08
2020-08-10 15:54:14.6550,-0.13,-0.23,-0.15
2020-08-10 15:54:14.7540,-0.46,-0.99,-0.27
2020-08-10 15:54:14.8530,-0.66,-0.23,0.3
2020-08-10 15:54:14.9520,-1.04,0.27,-0.06
2020-08-10 15:54:15.0520,-0.7,0.21,-0.15
2020-08-10 15:54:15.1510,0.01,-0.47,-0.09
2020-08-10 15:54:15.2500,0.32,-0.4,-0.05
2020-08-10 15:54:15.3490,0.72,-0.15,0.01
2020-08-10 15:54:15.4490,0.98,0.05,0.08
2020-08-10 15:54:15.5480,-1.82,-0.28,-0.81
2020-08-10 15:54:15.6470,-0.03,-0.09,0.14
2020-08-10 15:54:15.7470,-0.18,0.01,-0.12
2020-08-10 15:54:15.8460,-0.03,-0.03,-0.13
2020-08-10 15:54:15.9450,-0.05,-0.04,-0.01
2020-08-10 15:54:16.0440,0.01,-0.01,-0.1
2020-08-10 15:54:16.1440,-0.03,-0.04,-0.14
2020-08-10 15:54:16.2430,-0.06,-0.1,-0.13
2020-08-10 15:54:16.3420,-0.09,-0.28,-0.18
2020-08-10 15:54:16.4420,-0.45,-0.88,-0.2
2020-08-10 15:54:16.5410,-1.0,-0.58,0.26
2020-08-10 15:54:16.6400,-1.12,0.11,-0.26
2020-08-10 15:54:16.7390,-0.38,0.1,-0.17
2020-08-10 15:54:16.8390,0.32,-0.5,-0.17
2020-08-10 15:54:16.9380,0.5,-0.37,-0.02
2020-08-10 15:54:17.0370,0.99,-0.17,0.01
2020-08-10 15:54:17.1360,1.34,-0.01,0.18
2020-08-10 15:54:17.2360,0.67,-0.41,-0.55
2020-08-10 15:54:17.3350,0.33,-0.15,-0.19
2020-08-10 15:54:17.4340,-0.05,0.05,-0.02
2020-08-10 15:54:17.5330,0.06,-0.03,-0.15
2020-08-10 15:54:17.6330,-0.02,-0.0,-0.04
2020-08-10 15:54:17.7320,-0.02,-0.04,-0.1
2020-08-10 15:54:17.8310,0.0,-0.05,-0.14
2020-08-10 15:54:17.9300,-0.09,-0.26,-0.17
2020-08-10 15:54:18.0300,-0.41,-0.75,-0.15
2020-08-10 15:54:18.1290,-0.81,-0.64,0.46
2020-08-10 15:54:18.2280,-0.84,-0.01,-0.25
2020-08-10 15:54:18.3270,-0.57,0.14,-0.12
2020-08-10 15:54:18.4270,0.1,-0.44,-0.13
2020-08-10 15:54:18.5260,0.36,-0.38,-0.05
2020-08-10 15:54:18.6250,1.08,-0.21,0.12
2020-08-10 15:54:18.7240,1.33,-0.0,0.16
2020-08-10 15:54:18.8240,0.9,-0.45,-0.33
2020-08-10 15:54:18.9230,0.23,-0.01,-0.23
2020-08-10 15:54:19.0220,0.15,-0.03,-0.12
2020-08-10 15:54:19.1210,0.05,-0.06,-0.11
2020-08-10 15:54:19.2210,0.04,-0.02,-0.12
2020-08-10 15:54:19.3200,-0.1,0.01,-0.05
2020-08-10 15:54:19.4190,-0.05,-0.09,-0.13
2020-08-10 15:54:19.5190,-0.13,-0.26,-0.21
2020-08-10 15:54:19.6180,-0.53,-0.93,-0.29
2020-08-10 15:54:19.7170,-0.61,-0.44,0.21
2020-08-10 15:54:19.8160,-1.0,0.27,-0.17
2020-08-10 15:54:19.9160,-0.59,0.18,-0.13
2020-08-10 15:54:20.0150,0.1,-0.42,-0.1
2020-08-10 15:54:20.1140,0.51,-0.43,0.0
2020-08-10 15:54:20.2130,0.94,-0.1,0.01
2020-08-10 15:54:20.3130,1.25,0.01,0.14
2020-08-10 15:54:20.4120,0.73,-0.42,-0.62
2020-08-10 15:54:20.5110,0.05,-0.01,-0.11
2020-08-10 15:54:20.6100,-0.0,-0.01,-0.07
2020-08-10 15:54:20.7100,0.04,-0.05,-0.13
2020-08-10 15:54:20.8090,0.02,-0.05,-0.13
2020-08-10 15:54:20.9080,-0.09,0.02,-0.07
2020-08-10 15:54:21.0070,-0.08,-0.02,-0.09
2020-08-10 15:54:21.1070,-0.09,-0.2,-0.14
2020-08-10 15:54:21.2060,-0.39,-0.61,-0.09
2020-08-10 15:54:21.3050,-0.88,-0.74,0.65
2020-08-10 15:54:21.4050,-0.7,-0.04,-0.23
2020-08-10 15:54:21.5040,-0.51,0.12,-0.11
2020-08-10 15:54:21.6030,-0.09,-0.35,-0.17
2020-08-10 15:54:21.7020,0.32,-0.33,-0.06
2020-08-10 15:54:21.8020,0.7,-0.31,0.04
2020-08-10 15:54:21.9010,1.25,-0.02,0.14
2020-08-10 15:54:22.0000,-1.44,-0.27,0.08
2020-08-10 15:54:22.0990,-0.04,-0.05,0.16
2020-08-10 15:54:22.1990,0.13,-0.06,-0.15
2020-08-10 15:54:22.2980,0.0,-0.03,-0.12
2020-08-10 15:54:22.3970,-0.04,0.02,-0.06
2020-08-10 15:54:22.4960,-0.02,-0.02,-0.1
2020-08-10 15:54:22.5960,-0.06,-0.0,-0.12
2020-08-10 15:54:22.6950,0.01,-0.13,-0.12
2020-08-10 15:54:22.7940,-0.15,-0.28,-0.1
2020-08-10 15:54:22.8930,-0.72,-0.94,-0.21
2020-08-10 15:54:22.9930,-0.37,-0.28,-0.02
2020-08-10 15:54:23.0920,-0.82,0.38,-0.03
2020-08-10 15:54:23.1910,-0.53,-0.04,-0.19
2020-08-10 15:54:23.2900,0.23,-0.51,-0.07
2020-08-10 15:54:23.3900,0.62,-0.36,-0.04
2020-08-10 15:54:23.4890,1.15,-0.04,0.03
2020-08-10 15:54:23.5880,0.06,-0.45,-0.24
2020-08-10 15:54:23.6880,0.28,-0.25,0.03
2020-08-10 15:54:23.7870,-0.1,-0.0,-0.16
2020-08-10 15:54:23.8860,-0.11,-0.01,-0.04
2020-08-10 15:54:23.9850,0.0,-0.03,-0.11
2020-08-10 15:54:24.0850,0.0,-0.01,-0.12
2020-08-10 15:54:24.1840,-0.06,-0.02,-0.14
2020-08-10 15:54:24.2830,-0.05,-0.14,-0.14
2020-08-10 15:54:24.3820,-0.17,-0.38,-0.14
2020-08-10 15:54:24.4820,-0.76,-0.75,-0.1
2020-08-10 15:54:24.5810,-0.19,-0.06,0.05
2020-08-10 15:54:24.6800,-0.76,0.29,-0.06
2020-08-10 15:54:24.7800,-0.33,-0.08,-0.21
2020-08-10 15:54:24.8790,0.39,-0.5,-0.1
2020-08-10 15:54:24.9780,0.72,-0.33,-0.08
2020-08-10 15:54:25.0770,1.31,-0.09,0.12
2020-08-10 15:54:25.1770,-2.19,-0.45,-1.1
2020-08-10 15:54:25.2760,-0.24,-0.15,0.16
2020-08-10 15:54:25.3750,-0.16,-0.01,-0.0
2020-08-10 15:54:25.4740,-0.08,-0.01,-0.08
2020-08-10 15:54:25.5740,-0.01,-0.02,-0.1
2020-08-10 15:54:25.6730,0.01,-0.02,-0.13
2020-08-10 15:54:25.7720,0.01,-0.01,-0.13
2020-08-10 15:54:25.8710,0.0,-0.12,-0.16
2020-08-10 15:54:25.9710,-0.15,-0.36,-0.13
2020-08-10 15:54:26.0700,-0.69,-0.71,-0.26
2020-08-10 15:54:26.1690,-0.1,-0.28,0.0
2020-08-10 15:54:26.2690,-0.95,0.25,-0.04
2020-08-10 15:54:26.3680,-0.5,-0.06,-0.24
2020-08-10 15:54:26.4670,0.28,-0.46,-0.12
2020-08-10 15:54:26.5660,0.76,-0.41,0.0
2020-08-10 15:54:26.6660,1.17,-0.13,0.04
2020-08-10 15:54:26.7650,0.35,-0.3,-0.21
2020-08-10 15:54:26.8640,0.45,-0.26,-0.08
2020-08-10 15:54:26.9630,0.07,-0.08,-0.28
2020-08-10 15:54:27.0630,-0.06,0.01,-0.01
2020-08-10 15:54:27.1620,0.01,-0.02,-0.12
2020-08-10 15:54:27.2610,0.01,-0.01,-0.09
2020-08-10 15:54:27.3600,-0.03,-0.01,-0.15
2020-08-10 15:54:27.4600,-0.05,-0.12,-0.13
2020-08-10 15:54:27.5590,-0.15,-0.25,-0.17
2020-08-10 15:54:27.6580,-0.71,-1.05,-0.32
2020-08-10 15:54:27.7570,-0.19,-0.16,0.02
2020-08-10 15:54:27.8570,-0.97,0.32,0.0
2020-08-10 15:54:27.9560,-0.57,0.08,-0.13
2020-08-10 15:54:28.0550,0.25,-0.5,-0.01
2020-08-10 15:54:28.1540,0.64,-0.47,-0.0
2020-08-10 15:54:28.2540,1.33,-0.11,0.07
2020-08-10 15:54:28.3530,-0.31,-0.36,-0.52
2020-08-10 15:54:28.4520,0.6,-0.55,-0.26
2020-08-10 15:54:28.5520,0.2,-0.06,-0.25
2020-08-10 15:54:28.6510,0.06,-0.03,-0.06
2020-08-10 15:54:28.7500,0.01,-0.03,-0.12
2020-08-10 15:54:28.8490,0.04,-0.02,-0.13
2020-08-10 15:54:28.9480,-0.04,-0.01,-0.15
2020-08-10 15:54:29.0480,-0.05,-0.09,-0.09
2020-08-10 15:54:29.1470,-0.08,-0.28,-0.26
2020-08-10 15:54:29.2460,-0.61,-0.98,-0.29
2020-08-10 15:54:29.3460,-0.33,-0.23,0.1
2020-08-10 15:54:29.4450,-1.24,0.29,0.0
2020-08-10 15:54:29.5440,-0.57,0.05,-0.19
2020-08-10 15:54:29.6430,0.18,-0.54,-0.13
2020-08-10 15:54:29.7430,0.83,-0.6,-0.0
2020-08-10 15:54:29.8420,1.45,-0.04,0.15
2020-08-10 15:54:29.9410,-0.02,-0.23,0.41
2020-08-10 15:54:30.0400,0.4,-0.21,0.08
2020-08-10 15:54:30.1400,0.08,-0.0,-0.05
2020-08-10 15:54:30.2390,0.01,-0.02,-0.08
2020-08-10 15:54:30.3380,-0.04,-0.01,-0.07
2020-08-10 15:54:30.4380,-0.01,-0.01,-0.12
2020-08-10 15:54:30.5370,-0.03,-0.06,-0.17
2020-08-10 15:54:30.6360,-0.06,-0.23,-0.17
2020-08-10 15:54:30.7350,-0.4,-0.66,-0.09
2020-08-10 15:54:30.8350,-0.72,-0.63,0.29
2020-08-10 15:54:30.9340,-0.56,-0.05,-0.15
2020-08-10 15:54:31.0330,-0.43,0.11,-0.16
2020-08-10 15:54:31.1320,0.07,-0.37,-0.12
2020-08-10 15:54:31.2320,0.36,-0.35,-0.02
2020-08-10 15:54:31.3310,0.88,-0.23,-0.03
2020-08-10 15:54:31.4300,1.34,0.03,0.06
2020-08-10 15:54:31.5290,0.95,-0.5,-0.74
2020-08-10 15:54:31.6290,0.44,-0.17,-0.49
2020-08-10 15:54:31.7280,0.21,-0.06,-0.12
2020-08-10 15:54:31.8270,0.05,-0.04,-0.14
2020-08-10 15:54:31.9260,-0.01,-0.01,-0.1
2020-08-10 15:54:32.0260,-0.05,-0.0,-0.13
2020-08-10 15:54:32.1250,-0.04,-0.09,-0.1
2020-08-10 15:54:32.2240,-0.18,-0.25,-0.16
2020-08-10 15:54:32.3230,-0.57,-1.07,-0.22
2020-08-10 15:54:32.4230,-0.36,-0.33,0.17
2020-08-10 15:54:32.5220,-0.96,0.38,-0.1
2020-08-10 15:54:32.6210,-0.56,0.04,-0.22
2020-08-10 15:54:32.7210,0.2,-0.52,0.01
2020-08-10 15:54:32.8200,0.51,-0.31,0.01
2020-08-10 15:54:32.9190,0.95,-0.11,0.0
2020-08-10 15:54:33.0180,0.97,-0.25,-0.08
2020-08-10 15:54:33.1170,0.84,-0.34,0.01
2020-08-10 15:54:33.2170,-0.2,-0.0,-0.06
2020-08-10 15:54:33.3160,-0.06,-0.01,-0.08
2020-08-10 15:54:33.4150,0.01,-0.04,-0.11
2020-08-10 15:54:33.5150,0.07,-0.02,-0.15
2020-08-10 15:54:33.6140,-0.09,-0.04,-0.07
2020-08-10 15:54:33.7130,-0.21,-0.14,-0.03
2020-08-10 15:54:33.8120,-0.22,-0.44,-0.1
2020-08-10 15:54:33.9120,-0.9,-0.49,0.27
2020-08-10 15:54:34.0110,-0.19,-0.05,-0.06
2020-08-10 15:54:34.1100,-0.67,0.18,0.0
2020-08-10 15:54:34.2100,-0.39,-0.13,-0.27
2020-08-10 15:54:34.3090,0.35,-0.49,-0.2
2020-08-10 15:54:34.4080,0.88,-0.4,0.01
2020-08-10 15:54:34.5070,1.46,0.02,0.15
2020-08-10 15:54:34.6060,-1.24,-0.13,0.4
2020-08-10 15:54:34.7060,-0.05,0.05,0.22
2020-08-10 15:54:34.8050,0.04,-0.08,-0.11
2020-08-10 15:54:34.9040,-0.01,-0.03,-0.09
2020-08-10 15:54:35.0030,-0.02,0.01,-0.07
2020-08-10 15:54:35.1030,-0.01,-0.04,-0.15
2020-08-10 15:54:35.2020,-0.02,-0.04,-0.14
2020-08-10 15:54:35.3010,-0.06,-0.18,-0.18
2020-08-10 15:54:35.4010,-0.28,-0.39,-0.09
2020-08-10 15:54:35.5000,-0.72,-0.68,-0.02
2020-08-10 15:54:35.5990,0.25,-0.17,-0.12
2020-08-10 15:54:35.6980,-0.7,0.22,0.03
2020-08-10 15:54:35.7980,-0.45,-0.04,-0.17
2020-08-10 15:54:35.8970,0.35,-0.4,-0.09
2020-08-10 15:54:35.9960,0.74,-0.47,-0.1
2020-08-10 15:54:36.0950,1.22,-0.08,-0.05
2020-08-10 15:54:36.1950,-1.7,-0.42,-0.88
2020-08-10 15:54:36.2940,0.06,-0.1,-0.04
2020-08-10 15:54:36.3930,-0.14,-0.0,-0.07
2020-08-10 15:54:36.4930,-0.11,0.01,-0.08
2020-08-10 15:54:36.5920,-0.01,-0.04,-0.12
2020-08-10 15:54:36.6910,-0.0,0.01,-0.12
2020-08-10 15:54:36.7900,-0.13,0.04,-0.05
2020-08-10 15:54:36.8900,-0.11,-0.12,-0.17
2020-08-10 15:54:36.9890,-0.2,-0.34,-0.16
2020-08-10 15:54:37.0880,-0.99,-0.85,-0.17
2020-08-10 15:54:37.1870,-0.05,-0.3,-0.19
2020-08-10 15:54:37.2870,-0.82,0.3,0.02
2020-08-10 15:54:37.3860,-0.55,-0.05,-0.19
2020-08-10 15:54:37.4850,0.44,-0.59,-0.04
2020-08-10 15:54:37.5840,0.79,-0.37,-0.08
2020-08-10 15:54:37.6840,1.26,-0.05,0.03
2020-08-10 15:54:37.7830,-2.82,-0.26,-0.78
2020-08-10 15:54:37.8820,0.2,-0.27,0.02
2020-08-10 15:54:37.9810,0.1,-0.03,-0.25
2020-08-10 15:54:38.0810,-0.04,-0.03,-0.08
2020-08-10 15:54:38.1800,0.0,-0.03,-0.11
2020-08-10 15:54:38.2790,-0.0,-0.02,-0.12
2020-08-10 15:54:38.3790,-0.01,-0.0,-0.12
2020-08-10 15:54:38.4780,0.02,-0.12,-0.15
2020-08-10 15:54:38.5770,-0.13,-0.26,-0.11
2020-08-10 15:54:38.6760,-0.5,-1.06,-0.43
2020-08-10 15:54:38.7760,-0.47,-0.19,-0.13
2020-08-10 15:54:38.8750,-0.95,0.26,-0.06
2020-08-10 15:54:38.9740,-0.52,0.04,-0.17
2020-08-10 15:54:39.0730,0.18,-0.51,-0.07
2020-08-10 15:54:39.1720,0.62,-0.42,-0.05
2020-08-10 15:54:39.2720,1.17,-0.11,0.05
2020-08-10 15:54:39.3710,-0.34,-0.57,-0.64
2020-08-10 15:54:39.4700,0.13,-0.14,0.0
2020-08-10 15:54:39.5690,-0.21,0.01,-0.17
2020-08-10 15:54:39.6690,-0.09,-0.01,-0.08
2020-08-10 15:54:39.7680,-0.03,0.0,-0.12
2020-08-10 15:54:39.8670,0.04,-0.03,-0.16
2020-08-10 15:54:39.9670,-0.06,0.01,-0.16
2020-08-10 15:54:40.0660,-0.03,-0.15,-0.14
2020-08-10 15:54:40.1650,-0.15,-0.32,-0.16
2020-08-10 15:54:40.2640,-0.7,-1.07,-0.15
2020-08-10 15:54:40.3640,-0.53,-0.23,-0.1
2020-08-10 15:54:40.4630,-0.86,0.31,-0.21
2020-08-10 15:54:40.5620,-0.36,0.01,-0.27
2020-08-10 15:54:40.6610,0.32,-0.58,-0.09
2020-08-10 15:54:40.7610,0.72,-0.3,0.01
2020-08-10 15:54:40.8600,1.25,-0.09,0.01
2020-08-10 15:54:40.9590,-2.01,-0.38,-0.84
2020-08-10 15:54:41.0590,-0.05,-0.19,0.14
2020-08-10 15:54:41.1580,-0.02,-0.04,-0.11
2020-08-10 15:54:41.2570,-0.05,-0.03,-0.11
2020-08-10 15:54:41.3560,0.0,-0.0,-0.12
2020-08-10 15:54:41.4560,-0.11,0.01,-0.05
2020-08-10 15:54:41.5550,-0.06,-0.03,-0.14
2020-08-10 15:54:41.6540,-0.01,-0.14,-0.17
2020-08-10 15:54:41.7530,-0.18,-0.39,-0.12
2020-08-10 15:54:41.8530,-1.18,-0.71,0.39
2020-08-10 15:54:41.9520,0.06,0.01,-0.14
2020-08-10 15:54:42.0510,-0.66,0.19,-0.08
2020-08-10 15:54:42.1500,-0.26,-0.14,-0.37
2020-08-10 15:54:42.2500,0.25,-0.54,-0.2
2020-08-10 15:54:42.3490,0.84,-0.33,0.09
2020-08-10 15:54:42.4480,1.23,-0.02,0.03
2020-08-10 15:54:42.5470,-1.76,-0.34,-0.32
2020-08-10 15:54:42.6470,0.02,-0.19,0.28
2020-08-10 15:54:42.7460,0.09,-0.1,-0.21
2020-08-10 15:54:42.8450,0.01,-0.03,-0.13
2020-08-10 15:54:42.9450,-0.0,0.0,-0.11
2020-08-10 15:54:43.0440,-0.04,-0.0,-0.13
2020-08-10 15:54:43.1430,-0.04,-0.03,-0.11
2020-08-10 15:54:43.2420,-0.14,-0.21,-0.12
2020-08-10 15:54:43.3420,-0.29,-0.65,-0.12
2020-08-10 15:54:43.4410,-1.26,-0.69,0.79
2020-08-10 15:54:43.5400,-0.82,0.04,-0.25
2020-08-10 15:54:43.6400,-0.57,0.13,-0.19
2020-08-10 15:54:43.7390,0.04,-0.44,-0.15
2020-08-10 15:54:43.8380,0.43,-0.38,-0.05
2020-08-10 15:54:43.9370,0.88,-0.23,0.01
2020-08-10 15:54:44.0370,1.32,-0.02,0.14
2020-08-10 15:54:44.1360,0.44,-0.52,-0.9
2020-08-10 15:54:44.2350,0.39,-0.19,-0.15
2020-08-10 15:54:44.3340,0.16,-0.01,-0.05
2020-08-10 15:54:44.4340,0.04,-0.04,-0.1
2020-08-10 15:54:44.5330,-0.01,0.01,-0.1
2020-08-10 15:54:44.6320,-0.03,-0.02,-0.13
2020-08-10 15:54:44.7330,-0.08,-0.05,-0.1
2020-08-10 15:54:44.8310,-0.02,-0.21,-0.33
2020-08-10 15:54:44.9300,-0.13,-1.11,-0.58
2020-08-10 15:54:45.0290,-0.62,-0.34,0.45
2020-08-10 15:54:45.1280,-1.23,0.37,-0.02
2020-08-10 15:54:45.2280,-0.44,0.05,-0.19
2020-08-10 15:54:45.3270,0.29,-0.58,-0.13
2020-08-10 15:54:45.4260,0.7,-0.43,-0.08
2020-08-10 15:54:45.5250,1.19,-0.06,-0.1
2020-08-10 15:54:45.6250,0.51,-0.38,0.07
2020-08-10 15:54:45.7240,0.69,-0.19,-0.46
2020-08-10 15:54:45.8230,0.18,-0.08,-0.24
2020-08-10 15:54:45.9230,-0.08,-0.0,-0.11
2020-08-10 15:54:46.0220,-0.01,-0.04,-0.1
2020-08-10 15:54:46.1210,0.06,-0.04,-0.16
2020-08-10 15:54:46.2200,-0.01,-0.03,-0.15
2020-08-10 15:54:46.3200,0.03,-0.05,-0.2
2020-08-10 15:54:46.4190,-0.07,-0.19,-0.1
2020-08-10 15:54:46.5180,-0.39,-0.87,-0.23
2020-08-10 15:54:46.6170,-0.67,-0.29,0.28
2020-08-10 15:54:46.7170,-1.12,0.27,-0.05
2020-08-10 15:54:46.8160,-0.66,-0.03,-0.14
2020-08-10 15:54:46.9150,0.1,-0.52,-0.06
2020-08-10 15:54:47.0140,0.52,-0.32,0.03
2020-08-10 15:54:47.1140,0.95,-0.22,0.05
2020-08-10 15:54:47.2130,1.3,-0.05,0.02
2020-08-10 15:54:47.3120,1.25,-0.47,-0.45
2020-08-10 15:54:47.4120,0.18,-0.08,-0.22
2020-08-10 15:54:47.5110,0.12,-0.01,-0.07
2020-08-10 15:54:47.6100,-0.0,-0.02,-0.1
2020-08-10 15:54:47.7090,0.05,-0.01,-0.09
2020-08-10 15:54:47.8090,-0.02,-0.01,-0.13
2020-08-10 15:54:47.9080,-0.06,-0.06,-0.11
2020-08-10 15:54:48.0070,-0.06,-0.23,-0.17
2020-08-10 15:54:48.1060,-0.48,-0.78,-0.1
2020-08-10 15:54:48.2060,-0.82,-0.51,0.16
2020-08-10 15:54:48.3050,-1.42,0.11,-0.17
2020-08-10 15:54:48.4040,-0.59,-0.13,-0.19
2020-08-10 15:54:48.5030,0.08,-0.43,-0.11
2020-08-10 15:54:48.6030,0.63,-0.43,0.09
2020-08-10 15:54:48.7020,1.18,-0.15,0.11
2020-08-10 15:54:48.8010,0.88,-0.4,-0.11
2020-08-10 15:54:48.9000,0.41,-0.28,0.03
2020-08-10 15:54:48.9990,0.05,-0.08,-0.24
2020-08-10 15:54:49.0990,-0.0,-0.03,-0.17
2020-08-10 15:54:49.1980,-0.02,-0.01,-0.08
2020-08-10 15:54:49.2970,0.04,-0.02,-0.14
2020-08-10 15:54:49.3970,-0.03,-0.03,-0.12
2020-08-10 15:54:49.4970,-0.08,-0.11,-0.16
2020-08-10 15:54:49.5980,-0.13,-0.25,-0.08
2020-08-10 15:54:49.6950,-0.6,-0.76,-0.18
2020-08-10 15:54:49.7940,-0.28,-0.31,0.06
2020-08-10 15:54:49.8930,-1.16,0.33,0.05
2020-08-10 15:54:49.9920,-0.63,0.06,-0.22
2020-08-10 15:54:50.0920,0.02,-0.4,-0.11
2020-08-10 15:54:50.1910,0.44,-0.39,-0.05
2020-08-10 15:54:50.2910,1.15,-0.12,-0.02
2020-08-10 15:54:50.3890,1.18,-0.15,0.16
2020-08-10 15:54:50.4890,1.05,-0.18,0.22
2020-08-10 15:54:50.5880,-0.25,-0.02,-0.21
2020-08-10 15:54:50.6870,-0.05,0.0,-0.1
2020-08-10 15:54:50.7860,-0.02,-0.02,-0.13
2020-08-10 15:54:50.8860,0.03,-0.04,-0.15
2020-08-10 15:54:50.9850,-0.01,-0.04,-0.17
2020-08-10 15:54:51.0840,-0.01,-0.1,-0.15
2020-08-10 15:54:51.1840,-0.15,-0.24,-0.08
2020-08-10 15:54:51.2830,-0.53,-0.92,-0.27
2020-08-10 15:54:51.3820,-0.48,-0.3,0.21
2020-08-10 15:54:51.4810,-1.22,0.32,0.05
2020-08-10 15:54:51.5810,-0.61,0.06,-0.1
2020-08-10 15:54:51.6800,0.04,-0.42,-0.03
2020-08-10 15:54:51.7790,0.52,-0.33,-0.0
2020-08-10 15:54:51.8780,0.84,-0.12,-0.1
2020-08-10 15:54:51.9780,1.23,0.06,0.08
2020-08-10 15:54:52.0770,0.57,-0.44,-0.65
2020-08-10 15:54:52.1760,0.48,-0.21,-0.19
2020-08-10 15:54:52.2750,0.16,-0.03,-0.11
2020-08-10 15:54:52.3750,0.06,-0.04,-0.15
2020-08-10 15:54:52.4740,0.02,-0.01,-0.07
2020-08-10 15:54:52.5730,0.02,-0.01,-0.12
2020-08-10 15:54:52.6730,-0.04,-0.04,-0.12
2020-08-10 15:54:52.7720,-0.06,-0.15,-0.15
2020-08-10 15:54:52.8710,-0.22,-0.31,-0.1
2020-08-10 15:54:52.9700,-0.8,-0.62,-0.01
2020-08-10 15:54:53.0700,-0.19,-0.15,-0.13
2020-08-10 15:54:53.1690,-0.74,0.3,0.02
2020-08-10 15:54:53.2680,-0.2,-0.2,-0.28
2020-08-10 15:54:53.3670,0.28,-0.49,-0.16
2020-08-10 15:54:53.4670,0.63,-0.3,-0.06
2020-08-10 15:54:53.5660,1.11,-0.04,-0.01
2020-08-10 15:54:53.6650,-0.19,-0.43,-0.43
2020-08-10 15:54:53.7640,0.17,-0.18,0.13
2020-08-10 15:54:53.8640,-0.13,-0.02,-0.17
2020-08-10 15:54:53.9630,-0.07,0.01,-0.1
2020-08-10 15:54:54.0620,-0.02,-0.02,-0.11
2020-08-10 15:54:54.1610,-0.03,-0.02,-0.1
2020-08-10 15:54:54.2610,-0.04,-0.01,-0.12
2020-08-10 15:54:54.3600,-0.02,-0.05,-0.09
2020-08-10 15:54:54.4590,-0.13,-0.22,-0.15
2020-08-10 15:54:54.5590,-0.66,-0.95,-0.09
2020-08-10 15:54:54.6580,-0.63,-0.37,0.24
2020-08-10 15:54:54.7570,-1.22,0.29,-0.04
2020-08-10 15:54:54.8560,-0.53,-0.0,-0.26
2020-08-10 15:54:54.9560,0.1,-0.5,-0.07
2020-08-10 15:54:55.0550,0.58,-0.37,0.03
2020-08-10 15:54:55.1540,1.08,-0.09,0.04
2020-08-10 15:54:55.2530,0.66,-0.37,-0.1
2020-08-10 15:54:55.3530,0.73,-0.34,-0.05
2020-08-10 15:54:55.4520,-0.16,0.01,-0.2
2020-08-10 15:54:55.5510,-0.05,-0.01,-0.13
2020-08-10 15:54:55.6500,-0.03,-0.05,-0.11
2020-08-10 15:54:55.7500,0.02,-0.04,-0.15
2020-08-10 15:54:55.8490,-0.03,-0.01,-0.13
2020-08-10 15:54:55.9480,-0.06,-0.08,-0.13
2020-08-10 15:54:56.0480,-0.14,-0.28,-0.13
2020-08-10 15:54:56.1470,-0.64,-0.67,-0.24
2020-08-10 15:54:56.2460,-0.48,-0.31,0.15
2020-08-10 15:54:56.3450,-1.17,0.16,-0.24
2020-08-10 15:54:56.4450,-0.65,0.1,-0.22
2020-08-10 15:54:56.5440,0.04,-0.41,-0.14
2020-08-10 15:54:56.6430,0.36,-0.42,-0.03
2020-08-10 15:54:56.7430,0.92,-0.22,0.02
2020-08-10 15:54:56.8420,1.27,0.12,0.19
2020-08-10 15:54:56.9410,0.85,-0.28,-0.59
2020-08-10 15:54:57.0400,0.11,0.07,-0.06
2020-08-10 15:54:57.1390,0.02,-0.03,-0.1
2020-08-10 15:54:57.2390,0.04,-0.03,-0.16
2020-08-10 15:54:57.3380,0.0,-0.03,-0.1
2020-08-10 15:54:57.4370,-0.03,-0.08,-0.04
2020-08-10 15:54:57.5370,0.09,-0.06,-0.17
2020-08-10 15:54:57.6360,0.04,0.06,-0.1
2020-08-10 15:54:57.7350,0.11,0.03,-0.17
2020-08-10 15:54:57.8340,-0.1,-0.07,-0.08
2020-08-10 15:54:57.9340,-0.25,-0.02,-0.2
2020-08-10 15:54:58.0330,-0.09,-0.0,-0.04
2020-08-10 15:54:58.1320,0.03,0.02,-0.13
2020-08-10 15:54:58.2310,-0.06,0.04,-0.18
2020-08-10 15:54:58.3310,0.02,0.02,-0.17
2020-08-10 15:54:58.4300,-0.04,0.02,-0.13
2020-08-10 15:54:58.5290,0.01,0.02,-0.11
2020-08-10 15:54:58.6280,0.03,0.04,-0.05
2020-08-10 15:54:58.7280,0.04,0.05,-0.14
2020-08-10 15:54:58.8290,0.12,0.11,-0.11