time,ax,ay,az
2020-08-12 20:1:26.9110,0.07,-0.06,0.1
2020-08-12 20:1:27.0110,-0.02,0.0,0.01
2020-08-12 20:1:27.1100,-0.02,0.01,0.0
2020-08-12 20:1:27.2090,0.02,0.02,0.02
2020-08-12 20:1:27.3090,-0.01,0.0,0.0
2020-08-12 20:1:27.4080,0.01,-0.02,-0.0
2020-08-12 20:1:27.5070,0.01,0.01,0.01
2020-08-12 20:1:27.6060,0.01,-0.01,0.01
2020-08-12 20:1:27.7060,-0.03,0.02,0.0
2020-08-12 20:1:27.8050,-0.04,0.04,-0.02
2020-08-12 20:1:27.9040,-0.27,0.04,0.07
2020-08-12 20:1:28.0040,-0.07,0.02,0.04
2020-08-12 20:1:28.1030,0.01,0.01,-0.02
2020-08-12 20:1:28.2010,0.02,-0.01,-0.02
2020-08-12 20:1:28.3010,0.05,0.0,-0.02
2020-08-12 20:1:28.4000,0.0,0.0,0.05
2020-08-12 20:1:28.5000,0.02,-0.03,0.06
2020-08-12 20:1:28.5990,0.03,-0.01,-0.0
2020-08-12 20:1:28.6980,0.0,0.01,0.03
2020-08-12 20:1:28.7980,0.01,0.01,-0.02
2020-08-12 20:1:28.8970,-0.02,0.02,0.03
2020-08-12 20:1:28.9950,-0.05,0.01,0.03
2020-08-12 20:1:29.0950,-0.1,-0.03,0.04
2020-08-12 20:1:29.1950,-0.28,-0.27,0.23
2020-08-12 20:1:29.2940,-0.25,-0.32,0.08
2020-08-12 20:1:29.3930,-0.13,0.04,0.25
2020-08-12 20:1:29.4910,-0.71,0.17,0.08
2020-08-12 20:1:29.5900,-0.23,0.01,-0.08
2020-08-12 20:1:29.6910,0.04,-0.02,-0.12
2020-08-12 20:1:29.7900,0.04,-0.11,-0.13
2020-08-12 20:1:29.8890,0.1,-0.1,-0.03
2020-08-12 20:1:29.9890,0.34,-0.04,0.11
2020-08-12 20:1:30.0880,0.46,0.05,0.13
2020-08-12 20:1:30.1870,0.41,0.02,-0.17
2020-08-12 20:1:30.2850,0.11,0.12,-0.16
2020-08-12 20:1:30.3860,-0.03,0.01,-0.02
2020-08-12 20:1:30.4850,0.04,-0.01,0.02
2020-08-12 20:1:30.5830,0.05,0.03,-0.0
2020-08-12 20:1:30.6820,0.02,-0.01,0.01
2020-08-12 20:1:30.7830,-0.02,-0.01,-0.02
2020-08-12 20:1:30.8820,-0.06,0.01,0.04
2020-08-12 20:1:30.9810,-0.06,-0.02,0.02
2020-08-12 20:1:31.0790,-0.1,-0.14,0.05
2020-08-12 20:1:31.1780,-0.31,-0.53,0.02
2020-08-12 20:1:31.2780,-0.17,-0.15,0.29
2020-08-12 20:1:31.3770,-0.93,0.2,0.08
2020-08-12 20:1:31.4760,-0.56,-0.04,0.02
2020-08-12 20:1:31.5770,0.01,-0.25,-0.04
2020-08-12 20:1:31.6760,0.17,-0.25,-0.02
2020-08-12 20:1:31.7750,0.36,-0.07,0.05
2020-08-12 20:1:31.8750,0.41,-0.06,0.04
2020-08-12 20:1:31.9730,0.69,0.05,0.14
2020-08-12 20:1:32.0730,-0.32,-0.29,0.28
2020-08-12 20:1:32.1720,-0.19,0.07,0.32
2020-08-12 20:1:32.2720,0.0,-0.04,-0.01
2020-08-12 20:1:32.3700,-0.01,0.01,-0.04
2020-08-12 20:1:32.4700,0.05,0.0,0.04
2020-08-12 20:1:32.5680,0.03,0.03,0.0
2020-08-12 20:1:32.6670,0.07,0.02,-0.03
2020-08-12 20:1:32.7680,-0.03,-0.0,-0.0
2020-08-12 20:1:32.8670,0.07,-0.03,-0.08
2020-08-12 20:1:32.9660,-0.06,-0.13,0.13
2020-08-12 20:1:33.0660,-0.25,-0.55,-0.03
2020-08-12 20:1:33.1650,-0.04,-0.14,0.28
2020-08-12 20:1:33.2630,-0.75,0.21,-0.02
2020-08-12 20:1:33.3620,-0.41,0.05,-0.0
2020-08-12 20:1:33.4630,-0.2,-0.11,0.0
2020-08-12 20:1:33.5610,-0.01,-0.23,-0.05
2020-08-12 20:1:33.6600,0.23,-0.18,0.04
2020-08-12 20:1:33.7590,0.37,-0.06,0.08
2020-08-12 20:1:33.8590,0.61,0.02,0.15
2020-08-12 20:1:33.9590,0.73,0.07,0.1
2020-08-12 20:1:34.0580,0.4,-0.16,-0.1
2020-08-12 20:1:34.1570,0.06,-0.0,-0.03
2020-08-12 20:1:34.2550,0.06,0.01,0.08
2020-08-12 20:1:34.3560,0.04,0.02,0.06
2020-08-12 20:1:34.4540,0.01,0.01,0.04
2020-08-12 20:1:34.5550,-0.04,0.02,0.05
2020-08-12 20:1:34.6520,0.04,-0.05,0.01
2020-08-12 20:1:34.7520,-0.01,-0.07,-0.06
2020-08-12 20:1:34.8520,-0.42,-0.34,0.11
2020-08-12 20:1:34.9500,-0.06,0.01,0.25
2020-08-12 20:1:35.0510,-0.48,0.05,-0.03
2020-08-12 20:1:35.1500,-0.35,-0.04,-0.01
2020-08-12 20:1:35.2480,-0.21,-0.12,-0.0
2020-08-12 20:1:35.3480,-0.09,-0.14,-0.0
2020-08-12 20:1:35.4460,0.09,-0.14,0.13
2020-08-12 20:1:35.5460,0.39,-0.1,0.07
2020-08-12 20:1:35.6460,0.46,-0.01,0.01
2020-08-12 20:1:35.7450,0.87,0.06,0.17
2020-08-12 20:1:35.8450,0.35,-0.5,-0.04
2020-08-12 20:1:35.9440,0.11,0.02,0.04
2020-08-12 20:1:36.0420,0.02,-0.01,0.05
2020-08-12 20:1:36.1420,-0.03,-0.01,0.05
2020-08-12 20:1:36.2400,-0.01,0.04,0.05
2020-08-12 20:1:36.3410,-0.03,0.03,0.05
2020-08-12 20:1:36.4390,-0.08,0.05,0.05
2020-08-12 20:1:36.5380,0.02,-0.02,-0.03
2020-08-12 20:1:36.6380,-0.01,-0.05,0.06
2020-08-12 20:1:36.7370,-0.23,-0.41,0.07
2020-08-12 20:1:36.8360,-0.24,-0.17,0.31
2020-08-12 20:1:36.9350,-0.56,0.13,-0.06
2020-08-12 20:1:37.0360,-0.5,0.05,0.1
2020-08-12 20:1:37.1340,-0.25,-0.06,0.07
2020-08-12 20:1:37.2330,-0.06,-0.19,-0.02
2020-08-12 20:1:37.3320,0.23,-0.24,0.03
2020-08-12 20:1:37.4320,0.62,-0.12,-0.04
2020-08-12 20:1:37.5310,0.67,0.02,0.0
2020-08-12 20:1:37.6300,0.57,0.06,0.18
2020-08-12 20:1:37.7310,-0.56,-0.26,0.24
2020-08-12 20:1:37.8290,0.09,-0.04,0.25
2020-08-12 20:1:37.9280,-0.02,-0.01,0.02
2020-08-12 20:1:38.0270,-0.01,-0.02,-0.01
2020-08-12 20:1:38.1260,-0.06,0.03,0.03
2020-08-12 20:1:38.2260,0.04,0.01,-0.05
2020-08-12 20:1:38.3250,-0.07,0.02,0.01
2020-08-12 20:1:38.4240,-0.06,-0.01,0.02
2020-08-12 20:1:38.5230,-0.07,-0.06,0.09
2020-08-12 20:1:38.6240,-0.28,-0.44,0.07
2020-08-12 20:1:38.7220,-0.22,-0.31,0.33
2020-08-12 20:1:38.8210,-0.7,0.31,-0.13
2020-08-12 20:1:38.9200,-0.34,0.07,-0.02
2020-08-12 20:1:39.0210,-0.13,-0.19,0.04
2020-08-12 20:1:39.1200,0.07,-0.08,0.02
2020-08-12 20:1:39.2180,0.07,-0.14,0.01
2020-08-12 20:1:39.3170,0.37,-0.1,0.13
2020-08-12 20:1:39.4180,0.46,0.01,0.06
2020-08-12 20:1:39.5160,0.62,0.07,0.08
2020-08-12 20:1:39.6150,-0.6,-0.25,0.11
2020-08-12 20:1:39.7150,0.03,0.02,0.24
2020-08-12 20:1:39.8140,-0.03,0.0,0.01
2020-08-12 20:1:39.9130,-0.02,0.01,0.02
2020-08-12 20:1:40.0120,-0.03,0.01,0.03
2020-08-12 20:1:40.1120,0.0,0.0,0.01
2020-08-12 20:1:40.2110,-0.01,-0.03,-0.04
2020-08-12 20:1:40.3100,-0.02,-0.1,0.04
2020-08-12 20:1:40.4090,-0.17,-0.25,0.0
2020-08-12 20:1:40.5090,-0.38,-0.28,0.05
2020-08-12 20:1:40.6090,-0.16,0.12,0.06
2020-08-12 20:1:40.7070,-0.56,0.04,0.05
2020-08-12 20:1:40.8060,-0.38,-0.03,0.03
2020-08-12 20:1:40.9060,-0.21,-0.17,0.02
2020-08-12 20:1:41.0050,0.12,-0.15,-0.02
2020-08-12 20:1:41.1040,0.34,-0.08,0.04
2020-08-12 20:1:41.2030,0.55,-0.01,0.07
2020-08-12 20:1:41.3030,0.72,0.04,0.09
2020-08-12 20:1:41.4020,0.25,-0.32,-0.02
2020-08-12 20:1:41.5010,0.15,0.12,0.08
2020-08-12 20:1:41.6010,0.01,-0.01,0.07
2020-08-12 20:1:41.7000,0.02,0.01,0.01
2020-08-12 20:1:41.7990,-0.03,0.0,0.04
2020-08-12 20:1:41.8980,-0.02,0.0,0.03
2020-08-12 20:1:41.9970,-0.05,0.02,0.02
2020-08-12 20:1:42.0970,-0.05,-0.05,-0.01
2020-08-12 20:1:42.1960,-0.1,-0.23,0.01
2020-08-12 20:1:42.2950,-0.28,-0.37,0.03
2020-08-12 20:1:42.3940,-0.02,0.06,0.01
2020-08-12 20:1:42.4940,-0.66,0.07,0.08
2020-08-12 20:1:42.5930,-0.3,-0.02,0.0
2020-08-12 20:1:42.6940,-0.15,-0.1,0.07
2020-08-12 20:1:42.7910,0.06,-0.21,0.04
2020-08-12 20:1:42.8910,0.37,-0.17,0.04
2020-08-12 20:1:42.9900,0.41,-0.03,0.06
2020-08-12 20:1:43.0890,0.65,0.03,0.03
2020-08-12 20:1:43.1880,-0.12,-0.34,-0.47
2020-08-12 20:1:43.2880,0.23,0.01,-0.03
2020-08-12 20:1:43.3870,0.06,0.01,-0.08
2020-08-12 20:1:43.4860,0.09,-0.03,-0.01
2020-08-12 20:1:43.5850,-0.01,0.01,0.02
2020-08-12 20:1:43.6850,-0.0,-0.01,0.01
2020-08-12 20:1:43.7840,-0.01,-0.02,-0.01
2020-08-12 20:1:43.8830,-0.09,-0.03,0.07
2020-08-12 20:1:43.9820,-0.01,-0.17,-0.09
2020-08-12 20:1:44.0820,-0.44,-0.32,0.1
2020-08-12 20:1:44.1810,-0.23,0.08,0.19
2020-08-12 20:1:44.2800,-0.47,0.08,0.11
2020-08-12 20:1:44.3800,-0.39,-0.01,0.02
2020-08-12 20:1:44.4790,-0.16,-0.09,0.05
2020-08-12 20:1:44.5780,-0.07,-0.19,-0.08
2020-08-12 20:1:44.6770,0.06,-0.18,-0.04
2020-08-12 20:1:44.7760,0.46,-0.11,0.09
2020-08-12 20:1:44.8760,0.7,0.03,0.12
2020-08-12 20:1:44.9750,0.69,0.07,0.11
2020-08-12 20:1:45.0740,0.36,-0.29,-0.13
2020-08-12 20:1:45.1730,0.12,0.03,0.12
2020-08-12 20:1:45.2730,0.07,-0.0,0.01
2020-08-12 20:1:45.3720,0.03,-0.01,0.0
2020-08-12 20:1:45.4710,0.04,0.01,-0.01
2020-08-12 20:1:45.5710,-0.0,0.0,0.01
2020-08-12 20:1:45.6700,-0.03,-0.0,0.01
2020-08-12 20:1:45.7690,-0.02,-0.09,0.08
2020-08-12 20:1:45.8680,-0.08,-0.28,-0.03
2020-08-12 20:1:45.9680,-0.29,-0.32,0.07
2020-08-12 20:1:46.0670,-0.11,0.31,0.09
2020-08-12 20:1:46.1660,-0.5,0.07,0.08
2020-08-12 20:1:46.2650,-0.32,-0.03,0.05
2020-08-12 20:1:46.3650,-0.22,-0.09,0.05
2020-08-12 20:1:46.4640,-0.03,-0.27,-0.07
2020-08-12 20:1:46.5630,0.16,-0.06,0.02
2020-08-12 20:1:46.6620,0.33,-0.07,0.08
2020-08-12 20:1:46.7620,0.55,-0.02,0.16
2020-08-12 20:1:46.8610,0.6,0.09,0.05
2020-08-12 20:1:46.9600,0.31,-0.52,0.14
2020-08-12 20:1:47.0590,-0.15,0.07,0.17
2020-08-12 20:1:47.1590,-0.08,0.0,0.09
2020-08-12 20:1:47.2580,-0.04,-0.01,0.02
2020-08-12 20:1:47.3570,0.01,0.02,0.01
2020-08-12 20:1:47.4560,0.04,0.01,0.0
2020-08-12 20:1:47.5560,-0.01,0.03,-0.0
2020-08-12 20:1:47.6550,0.16,-0.09,-0.09
2020-08-12 20:1:47.7540,0.08,-0.1,-0.03
2020-08-12 20:1:47.8530,-0.19,-0.45,0.02
2020-08-12 20:1:47.9530,-0.21,0.09,0.3
2020-08-12 20:1:48.0520,-0.69,0.19,0.08
2020-08-12 20:1:48.1510,-0.32,-0.02,-0.02
2020-08-12 20:1:48.2510,-0.07,-0.04,0.02
2020-08-12 20:1:48.3500,-0.08,-0.1,0.01
2020-08-12 20:1:48.4490,0.0,-0.1,0.02
2020-08-12 20:1:48.5480,0.2,-0.1,0.06
2020-08-12 20:1:48.6480,0.67,-0.04,-0.01
2020-08-12 20:1:48.7470,0.67,0.06,0.03
2020-08-12 20:1:48.8460,-0.95,-0.1,-0.24
2020-08-12 20:1:48.9450,0.07,0.04,0.09
2020-08-12 20:1:49.0440,-0.03,-0.0,-0.02
2020-08-12 20:1:49.1440,0.02,0.0,0.01
2020-08-12 20:1:49.2430,0.01,0.03,0.01
2020-08-12 20:1:49.3420,-0.02,0.01,0.02
2020-08-12 20:1:49.4420,-0.04,0.0,0.0
2020-08-12 20:1:49.5410,-0.0,-0.06,0.0
2020-08-12 20:1:49.6400,-0.02,-0.13,0.0
2020-08-12 20:1:49.7390,-0.26,-0.5,0.04
2020-08-12 20:1:49.8390,-0.09,-0.04,0.11
2020-08-12 20:1:49.9380,-0.54,0.09,0.11
2020-08-12 20:1:50.0370,-0.32,0.03,0.04
2020-08-12 20:1:50.1360,-0.27,-0.09,-0.01
2020-08-12 20:1:50.2360,-0.03,-0.16,0.02
2020-08-12 20:1:50.3350,0.11,-0.18,0.05
2020-08-12 20:1:50.4340,0.32,-0.07,0.02
2020-08-12 20:1:50.5330,0.47,-0.03,0.05
2020-08-12 20:1:50.6330,0.53,0.02,0.07
2020-08-12 20:1:50.7320,-0.25,-0.28,-0.28
2020-08-12 20:1:50.8320,0.19,0.0,-0.09
2020-08-12 20:1:50.9300,0.08,-0.04,-0.05
2020-08-12 20:1:51.0300,0.06,-0.01,0.04
2020-08-12 20:1:51.1290,-0.05,0.03,0.03
2020-08-12 20:1:51.2280,-0.01,0.0,0.0
2020-08-12 20:1:51.3270,-0.01,0.0,0.0
2020-08-12 20:1:51.4270,-0.0,0.02,-0.02
2020-08-12 20:1:51.5260,0.02,-0.04,-0.04
2020-08-12 20:1:51.6250,-0.03,-0.03,0.0
2020-08-12 20:1:51.7240,-0.12,-0.29,0.07
2020-08-12 20:1:51.8240,-0.33,-0.19,0.02
2020-08-12 20:1:51.9230,-0.1,0.26,0.04
2020-08-12 20:1:52.0220,-0.42,0.04,0.03
2020-08-12 20:1:52.1210,-0.08,-0.08,0.01
2020-08-12 20:1:52.2210,-0.09,-0.05,0.02
2020-08-12 20:1:52.3200,0.07,-0.1,-0.11
2020-08-12 20:1:52.4190,0.07,-0.03,-0.06
2020-08-12 20:1:52.5180,0.26,-0.13,-0.0
2020-08-12 20:1:52.6180,0.41,-0.05,0.06
2020-08-12 20:1:52.7170,0.52,0.06,0.11
2020-08-12 20:1:52.8160,-0.72,-0.01,-0.11
2020-08-12 20:1:52.9160,0.08,-0.02,0.03
2020-08-12 20:1:53.0150,0.1,-0.04,-0.1
2020-08-12 20:1:53.1140,0.1,-0.03,-0.02
2020-08-12 20:1:53.2130,0.04,0.0,0.03
2020-08-12 20:1:53.3130,-0.04,0.0,0.0
2020-08-12 20:1:53.4120,-0.03,0.01,0.01
2020-08-12 20:1:53.5110,-0.1,-0.0,0.02
2020-08-12 20:1:53.6100,-0.04,-0.07,-0.0
2020-08-12 20:1:53.7100,-0.16,-0.49,-0.06
2020-08-12 20:1:53.8090,-0.05,0.02,0.23
2020-08-12 20:1:53.9080,-0.45,0.24,0.05
2020-08-12 20:1:54.0070,-0.15,-0.0,-0.01
2020-08-12 20:1:54.1070,-0.14,0.01,-0.02
2020-08-12 20:1:54.2060,-0.05,-0.04,0.01
2020-08-12 20:1:54.3050,-0.14,-0.02,0.05
2020-08-12 20:1:54.4040,-0.04,-0.13,0.0
2020-08-12 20:1:54.5040,0.17,-0.13,0.03
2020-08-12 20:1:54.6030,0.38,-0.01,0.03
2020-08-12 20:1:54.7020,0.51,0.06,0.09
2020-08-12 20:1:54.8010,0.38,-0.17,-0.1
2020-08-12 20:1:54.9010,0.31,-0.1,-0.02
2020-08-12 20:1:55.0000,0.04,-0.04,-0.01
2020-08-12 20:1:55.0990,-0.03,0.01,0.03
2020-08-12 20:1:55.1980,0.01,0.01,0.03
2020-08-12 20:1:55.2980,0.0,0.01,0.01
2020-08-12 20:1:55.3970,-0.02,-0.0,0.02
2020-08-12 20:1:55.4960,-0.09,0.08,0.0
2020-08-12 20:1:55.5960,-0.04,-0.03,0.01
2020-08-12 20:1:55.6950,0.0,-0.1,0.05
2020-08-12 20:1:55.7940,-0.2,-0.49,0.07
2020-08-12 20:1:55.8930,-0.06,0.11,-0.01
2020-08-12 20:1:55.9920,-0.33,0.03,0.0
2020-08-12 20:1:56.0920,-0.17,0.04,0.01
2020-08-12 20:1:56.1910,-0.17,-0.02,-0.03
2020-08-12 20:1:56.2900,-0.07,-0.07,0.05
2020-08-12 20:1:56.3890,-0.01,-0.09,-0.03
2020-08-12 20:1:56.4890,0.21,-0.1,0.0
2020-08-12 20:1:56.5880,0.31,-0.01,0.09
2020-08-12 20:1:56.6870,0.21,0.01,0.02
2020-08-12 20:1:56.7870,0.42,0.05,0.0
2020-08-12 20:1:56.8860,-0.62,-0.13,-0.22
2020-08-12 20:1:56.9850,0.27,-0.08,-0.07
2020-08-12 20:1:57.0840,-0.05,-0.02,-0.03
2020-08-12 20:1:57.1840,-0.01,-0.01,0.03
2020-08-12 20:1:57.2830,0.02,-0.0,0.0
2020-08-12 20:1:57.3820,0.0,0.02,0.01
2020-08-12 20:1:57.4810,-0.05,0.04,0.03
2020-08-12 20:1:57.5810,-0.09,-0.0,0.03
2020-08-12 20:1:57.6800,-0.0,-0.11,-0.02
2020-08-12 20:1:57.7790,-0.22,-0.61,0.13
2020-08-12 20:1:57.8780,-0.26,0.21,0.21
2020-08-12 20:1:57.9780,-0.66,0.4,-0.03
2020-08-12 20:1:58.0770,-0.23,0.06,0.02
2020-08-12 20:1:58.1760,-0.01,-0.03,-0.04
2020-08-12 20:1:58.2750,-0.1,-0.06,-0.07
2020-08-12 20:1:58.3740,-0.04,-0.1,-0.02
2020-08-12 20:1:58.4740,0.03,-0.1,0.06
2020-08-12 20:1:58.5730,0.13,-0.09,0.02
2020-08-12 20:1:58.6720,0.43,-0.02,0.02
2020-08-12 20:1:58.7720,0.54,0.03,0.03
2020-08-12 20:1:58.8710,-0.09,-0.14,-0.1
2020-08-12 20:1:58.9710,0.21,-0.1,-0.14
2020-08-12 20:1:59.0690,0.06,0.0,-0.0
2020-08-12 20:1:59.1690,0.01,0.0,0.01
2020-08-12 20:1:59.2680,-0.07,0.02,0.0
2020-08-12 20:1:59.3670,0.0,0.01,-0.0
2020-08-12 20:1:59.4660,-0.1,0.02,0.05
2020-08-12 20:1:59.5660,-0.1,0.01,0.04
2020-08-12 20:1:59.6650,-0.0,-0.07,0.04
2020-08-12 20:1:59.7640,-0.03,-0.12,-0.03
2020-08-12 20:1:59.8630,-0.36,-0.48,0.09
2020-08-12 20:1:59.9630,-0.35,-0.02,-0.08
2020-08-12 20:2:00.0620,-0.61,0.05,0.02
2020-08-12 20:2:00.1610,-0.24,-0.05,-0.04
2020-08-12 20:2:00.2600,0.11,-0.16,-0.07
2020-08-12 20:2:00.3600,0.2,-0.19,-0.06
2020-08-12 20:2:00.4590,0.2,-0.02,-0.02
2020-08-12 20:2:00.5580,0.18,-0.03,0.1
2020-08-12 20:2:00.6570,0.32,-0.03,0.1
2020-08-12 20:2:00.7570,0.43,0.04,0.03
2020-08-12 20:2:00.8560,0.37,-0.02,-0.11
2020-08-12 20:2:00.9550,0.16,-0.21,-0.01
2020-08-12 20:2:01.0540,0.01,0.03,-0.01
2020-08-12 20:2:01.1540,0.01,-0.01,0.1
2020-08-12 20:2:01.2530,-0.0,0.01,0.01
2020-08-12 20:2:01.3520,0.04,-0.01,-0.01
2020-08-12 20:2:01.4520,-0.02,0.02,-0.01
2020-08-12 20:2:01.5510,-0.02,0.02,-0.03
2020-08-12 20:2:01.6500,-0.02,-0.05,-0.03
2020-08-12 20:2:01.7490,-0.1,-0.57,0.06
2020-08-12 20:2:01.8490,-0.2,0.0,0.07
2020-08-12 20:2:01.9480,-0.48,0.19,-0.01
2020-08-12 20:2:02.0470,-0.28,0.03,-0.04
2020-08-12 20:2:02.1460,-0.17,-0.02,-0.02
2020-08-12 20:2:02.2460,-0.1,-0.08,-0.01
2020-08-12 20:2:02.3450,0.15,-0.13,0.01
2020-08-12 20:2:02.4440,0.21,-0.08,0.01
2020-08-12 20:2:02.5430,0.35,-0.02,0.07
2020-08-12 20:2:02.6430,0.48,0.03,0.05
2020-08-12 20:2:02.7420,0.44,0.05,-0.01
2020-08-12 20:2:02.8410,0.23,-0.3,0.09
2020-08-12 20:2:02.9400,-0.05,-0.04,0.04
2020-08-12 20:2:03.0400,-0.02,0.01,0.07
2020-08-12 20:2:03.1390,-0.03,0.02,0.01
2020-08-12 20:2:03.2380,-0.0,0.02,0.01
2020-08-12 20:2:03.3370,0.04,-0.0,0.0
2020-08-12 20:2:03.4370,-0.03,-0.04,-0.02
2020-08-12 20:2:03.5360,-0.06,-0.06,0.04
2020-08-12 20:2:03.6350,-0.13,-0.44,-0.04
2020-08-12 20:2:03.7340,-0.19,0.07,-0.05
2020-08-12 20:2:03.8340,-0.16,0.1,0.05
2020-08-12 20:2:03.9330,-0.7,0.07,0.2
2020-08-12 20:2:04.0320,-0.17,-0.1,-0.0
2020-08-12 20:2:04.1310,-0.11,-0.14,-0.01
2020-08-12 20:2:04.2310,0.08,-0.23,0.0
2020-08-12 20:2:04.3300,0.32,-0.15,0.03
2020-08-12 20:2:04.4290,0.29,-0.04,0.01
2020-08-12 20:2:04.5280,0.47,0.02,0.12
2020-08-12 20:2:04.6280,0.68,0.02,0.05
2020-08-12 20:2:04.7270,0.3,-0.33,-0.11
2020-08-12 20:2:04.8260,-0.03,-0.0,0.11
2020-08-12 20:2:04.9260,-0.03,0.04,0.02
2020-08-12 20:2:05.0250,-0.02,0.0,0.0
2020-08-12 20:2:05.1240,0.01,-0.0,-0.01
2020-08-12 20:2:05.2230,-0.01,-0.0,0.01
2020-08-12 20:2:05.3220,0.0,-0.01,0.0
2020-08-12 20:2:05.4230,-0.09,0.04,0.03
2020-08-12 20:2:05.5210,0.04,-0.05,-0.02
2020-08-12 20:2:05.6200,-0.11,-0.33,0.07
2020-08-12 20:2:05.7200,-0.36,-0.16,0.14
2020-08-12 20:2:05.8190,-0.53,0.19,-0.14
2020-08-12 20:2:05.9180,-0.46,0.02,0.06
2020-08-12 20:2:06.0170,-0.27,-0.04,0.01
2020-08-12 20:2:06.1160,-0.04,-0.14,0.0
2020-08-12 20:2:06.2160,-0.01,-0.15,-0.09
2020-08-12 20:2:06.3150,0.45,-0.14,-0.02
2020-08-12 20:2:06.4140,0.6,-0.06,-0.01
2020-08-12 20:2:06.5130,0.6,0.05,0.04
2020-08-12 20:2:06.6130,-0.44,-0.08,-0.23
2020-08-12 20:2:06.7120,0.36,-0.12,-0.02
2020-08-12 20:2:06.8110,0.01,-0.04,-0.02
2020-08-12 20:2:06.9110,-0.01,-0.01,0.03
2020-08-12 20:2:07.0100,0.0,0.02,0.03
2020-08-12 20:2:07.1090,-0.01,0.01,0.02
2020-08-12 20:2:07.2080,0.02,-0.01,-0.04
2020-08-12 20:2:07.3080,0.04,-0.04,0.01
2020-08-12 20:2:07.4070,-0.06,-0.16,-0.01
2020-08-12 20:2:07.5060,-0.35,-0.37,0.07
2020-08-12 20:2:07.6050,-0.02,0.16,-0.04
2020-08-12 20:2:07.7050,-0.55,0.07,0.07
2020-08-12 20:2:07.8040,-0.32,-0.03,-0.05
2020-08-12 20:2:07.9030,-0.12,-0.03,0.06
2020-08-12 20:2:08.0020,-0.04,-0.12,-0.0
2020-08-12 20:2:08.1020,0.09,-0.14,0.03
2020-08-12 20:2:08.2010,0.28,-0.12,0.04
2020-08-12 20:2:08.3000,0.59,-0.02,0.05
2020-08-12 20:2:08.3990,0.79,0.06,0.0
2020-08-12 20:2:08.4990,0.24,-0.43,0.11
2020-08-12 20:2:08.5980,0.1,-0.02,0.13
2020-08-12 20:2:08.6970,-0.01,0.01,0.05
2020-08-12 20:2:08.7960,-0.01,0.0,0.0
2020-08-12 20:2:08.8960,-0.04,0.03,0.04
2020-08-12 20:2:08.9950,0.01,-0.01,0.01
2020-08-12 20:2:09.0940,-0.0,0.01,0.0
2020-08-12 20:2:09.1930,-0.02,-0.02,-0.02
2020-08-12 20:2:09.2930,0.06,-0.1,-0.1
2020-08-12 20:2:09.3920,-0.2,-0.44,0.07
2020-08-12 20:2:09.4910,-0.2,-0.05,0.18
2020-08-12 20:2:09.5900,-0.58,0.01,0.01
2020-08-12 20:2:09.6900,-0.59,0.01,0.16
2020-08-12 20:2:09.7890,-0.36,-0.11,0.07
2020-08-12 20:2:09.8880,-0.0,-0.22,-0.1
2020-08-12 20:2:09.9870,0.3,-0.18,-0.04
2020-08-12 20:2:10.0870,0.52,-0.15,0.06
2020-08-12 20:2:10.1860,0.82,0.02,0.1
2020-08-12 20:2:10.2850,-0.41,-0.21,-0.23
2020-08-12 20:2:10.3850,0.14,-0.1,-0.08
2020-08-12 20:2:10.4840,0.15,-0.05,-0.02
2020-08-12 20:2:10.5830,0.03,-0.02,0.03
2020-08-12 20:2:10.6820,0.01,-0.0,-0.0
2020-08-12 20:2:10.7810,-0.04,0.0,0.03
2020-08-12 20:2:10.8810,0.0,0.02,0.02
2020-08-12 20:2:10.9800,-0.0,0.0,0.0
2020-08-12 20:2:11.0790,-0.01,-0.03,-0.02
2020-08-12 20:2:11.1790,-0.08,-0.04,-0.03
2020-08-12 20:2:11.2780,-0.3,-0.72,0.07
2020-08-12 20:2:11.3770,-0.31,0.11,0.26
2020-08-12 20:2:11.4760,-0.79,0.26,-0.0
2020-08-12 20:2:11.5750,-0.48,-0.0,0.02
2020-08-12 20:2:11.6750,-0.12,-0.13,0.06
2020-08-12 20:2:11.7740,0.07,-0.2,0.04
2020-08-12 20:2:11.8730,0.25,-0.12,0.04
2020-08-12 20:2:11.9730,0.41,-0.03,-0.01
2020-08-12 20:2:12.0720,0.53,0.01,0.02
2020-08-12 20:2:12.1710,0.49,-0.04,0.06
2020-08-12 20:2:12.2700,0.37,-0.31,-0.08
2020-08-12 20:2:12.3700,0.12,0.03,0.11
2020-08-12 20:2:12.4690,0.01,-0.01,0.02
2020-08-12 20:2:12.5680,-0.02,0.01,-0.01
2020-08-12 20:2:12.6670,0.03,0.0,0.01
2020-08-12 20:2:12.7670,-0.03,0.03,0.01
2020-08-12 20:2:12.8660,-0.06,0.03,0.0
2020-08-12 20:2:12.9650,-0.04,-0.04,0.05
2020-08-12 20:2:13.0640,-0.08,-0.31,0.0
2020-08-12 20:2:13.1640,-0.42,-0.36,0.15
2020-08-12 20:2:13.2630,-0.19,0.31,-0.08
2020-08-12 20:2:13.3620,-0.5,0.01,0.09
2020-08-12 20:2:13.4610,-0.32,0.01,0.04
2020-08-12 20:2:13.5610,-0.15,-0.05,-0.01
2020-08-12 20:2:13.6600,-0.0,-0.24,-0.02
2020-08-12 20:2:13.7590,0.31,-0.11,0.09
2020-08-12 20:2:13.8580,0.48,-0.08,0.02
2020-08-12 20:2:13.9580,0.72,0.01,0.07
2020-08-12 20:2:14.0570,-0.9,-0.04,-0.08
2020-08-12 20:2:14.1560,0.03,-0.0,-0.0
2020-08-12 20:2:14.2550,0.09,-0.07,-0.08
2020-08-12 20:2:14.3550,0.03,-0.01,0.03
2020-08-12 20:2:14.4540,0.03,-0.01,0.01
2020-08-12 20:2:14.5530,0.06,-0.02,-0.01
2020-08-12 20:2:14.6520,0.04,0.0,-0.03
2020-08-12 20:2:14.7520,-0.03,0.0,0.04
2020-08-12 20:2:14.8510,0.03,-0.08,-0.02
2020-08-12 20:2:14.9500,-0.0,-0.19,-0.01
2020-08-12 20:2:15.0500,-0.28,-0.59,0.02
2020-08-12 20:2:15.1490,-0.08,0.09,-0.02
2020-08-12 20:2:15.2480,-0.52,0.13,0.09
2020-08-12 20:2:15.3470,-0.24,0.02,-0.01
2020-08-12 20:2:15.4470,-0.01,0.01,0.01
2020-08-12 20:2:15.5460,-0.05,-0.07,-0.01
2020-08-12 20:2:15.6450,0.07,-0.13,0.06
2020-08-12 20:2:15.7440,0.14,-0.08,0.04
2020-08-12 20:2:15.8440,0.32,-0.03,0.02
2020-08-12 20:2:15.9430,0.74,0.06,-0.01
2020-08-12 20:2:16.0420,-0.86,-0.19,-0.2
2020-08-12 20:2:16.1410,0.01,0.02,0.1
2020-08-12 20:2:16.2410,-0.14,0.03,0.03
2020-08-12 20:2:16.3400,-0.03,-0.0,-0.01
2020-08-12 20:2:16.4390,-0.01,-0.01,0.02
2020-08-12 20:2:16.5380,0.0,0.0,0.03
2020-08-12 20:2:16.6380,0.01,-0.01,-0.02
2020-08-12 20:2:16.7370,-0.05,-0.0,0.04
2020-08-12 20:2:16.8360,-0.07,-0.32,-0.05
2020-08-12 20:2:16.9350,-0.37,-0.27,-0.01
2020-08-12 20:2:17.0350,-0.23,0.28,0.02
2020-08-12 20:2:17.1340,-0.47,0.1,0.01
2020-08-12 20:2:17.2330,-0.26,-0.05,0.02
2020-08-12 20:2:17.3320,-0.09,-0.1,0.01
2020-08-12 20:2:17.4320,-0.05,-0.07,0.05
2020-08-12 20:2:17.5310,0.07,-0.13,0.03
2020-08-12 20:2:17.6300,0.34,-0.06,0.06
2020-08-12 20:2:17.7290,0.58,0.02,0.02
2020-08-12 20:2:17.8290,0.64,-0.36,-0.19
2020-08-12 20:2:17.9280,0.14,-0.02,-0.04
2020-08-12 20:2:18.0270,0.04,0.01,0.02
2020-08-12 20:2:18.1260,0.05,-0.02,0.02
2020-08-12 20:2:18.2260,0.03,-0.01,-0.0
2020-08-12 20:2:18.3250,-0.03,0.02,0.03
2020-08-12 20:2:18.4240,-0.02,0.0,0.02
2020-08-12 20:2:18.5240,-0.06,0.03,0.0
2020-08-12 20:2:18.6230,-0.06,-0.1,0.0
2020-08-12 20:2:18.7220,-0.16,-0.44,0.09
2020-08-12 20:2:18.8210,-0.2,-0.04,-0.03
2020-08-12 20:2:18.9200,-0.5,0.2,-0.2
2020-08-12 20:2:19.0200,-0.49,0.04,0.04
2020-08-12 20:2:19.1190,-0.16,-0.05,0.06
2020-08-12 20:2:19.2180,-0.07,-0.09,-0.02
2020-08-12 20:2:19.3180,0.05,-0.15,0.05
2020-08-12 20:2:19.4170,0.19,-0.13,0.06
2020-08-12 20:2:19.5160,0.46,-0.05,0.05
2020-08-12 20:2:19.6150,0.61,0.06,0.02
2020-08-12 20:2:19.7150,-0.48,-0.12,-0.1
2020-08-12 20:2:19.8140,0.02,-0.01,-0.04
2020-08-12 20:2:19.9130,0.02,-0.02,-0.05
2020-08-12 20:2:20.0120,0.05,-0.04,0.05
2020-08-12 20:2:20.1110,-0.03,0.02,0.03
2020-08-12 20:2:20.2110,0.01,-0.0,0.01
2020-08-12 20:2:20.3100,0.0,0.01,0.0
2020-08-12 20:2:20.4100,-0.02,-0.0,0.0
2020-08-12 20:2:20.5090,-0.03,-0.09,0.02
2020-08-12 20:2:20.6080,-0.19,-0.33,0.1
2020-08-12 20:2:20.7070,-0.26,-0.13,-0.06
2020-08-12 20:2:20.8060,-0.42,0.21,-0.1
2020-08-12 20:2:20.9060,-0.47,0.01,-0.02
2020-08-12 20:2:21.0050,-0.11,-0.01,0.01
2020-08-12 20:2:21.1040,0.03,-0.11,-0.1
2020-08-12 20:2:21.2030,0.05,-0.18,-0.0
2020-08-12 20:2:21.3030,0.28,-0.1,0.09
2020-08-12 20:2:21.4020,0.32,-0.07,0.07
2020-08-12 20:2:21.5010,0.35,-0.02,-0.06
2020-08-12 20:2:21.6000,0.49,0.03,0.08
2020-08-12 20:2:21.7000,0.33,-0.16,-0.09
2020-08-12 20:2:21.7990,0.02,0.05,-0.01
2020-08-12 20:2:21.8980,0.09,-0.05,0.03
2020-08-12 20:2:21.9970,-0.02,0.02,0.01
2020-08-12 20:2:22.0970,0.02,-0.0,0.0
2020-08-12 20:2:22.1960,-0.0,0.01,0.0
2020-08-12 20:2:22.2950,0.0,0.0,-0.0
2020-08-12 20:2:22.3940,-0.03,-0.03,-0.01
2020-08-12 20:2:22.4940,-0.06,-0.14,0.0
2020-08-12 20:2:22.5930,-0.23,-0.4,-0.02
2020-08-12 20:2:22.6920,-0.07,0.03,0.05
2020-08-12 20:2:22.7910,-0.59,0.13,0.07
2020-08-12 20:2:22.8910,-0.4,-0.04,0.01
2020-08-12 20:2:22.9900,-0.05,-0.16,0.02
2020-08-12 20:2:23.0890,0.08,-0.19,0.04
2020-08-12 20:2:23.1880,0.3,-0.14,0.02
2020-08-12 20:2:23.2880,0.55,-0.1,0.04
2020-08-12 20:2:23.3870,0.66,0.0,0.04
2020-08-12 20:2:23.4860,-0.02,-0.04,-0.21
2020-08-12 20:2:23.5850,0.23,-0.14,0.04
2020-08-12 20:2:23.6850,0.06,-0.01,-0.06
2020-08-12 20:2:23.7840,0.05,-0.02,0.02
2020-08-12 20:2:23.8830,0.03,-0.0,0.0
2020-08-12 20:2:23.9830,0.02,-0.01,0.02
2020-08-12 20:2:24.0820,0.02,0.01,-0.0
2020-08-12 20:2:24.1810,-0.05,0.0,0.01
2020-08-12 20:2:24.2800,0.03,-0.07,-0.05
2020-08-12 20:2:24.3790,-0.24,-0.42,0.11
2020-08-12 20:2:24.4790,-0.34,0.0,-0.02
2020-08-12 20:2:24.5780,-0.7,0.31,-0.09
2020-08-12 20:2:24.6770,-0.28,0.02,-0.03
2020-08-12 20:2:24.7770,-0.18,-0.09,-0.05
2020-08-12 20:2:24.8760,-0.04,-0.09,-0.02
2020-08-12 20:2:24.9750,0.31,-0.05,0.07
2020-08-12 20:2:25.0740,0.36,-0.02,0.09
2020-08-12 20:2:25.1740,0.36,0.04,0.06
2020-08-12 20:2:25.2730,0.37,-0.02,-0.07
2020-08-12 20:2:25.3720,0.27,0.09,-0.14
2020-08-12 20:2:25.4710,0.64,-0.01,-0.38
2020-08-12 20:2:25.5710,0.08,0.02,-0.0
2020-08-12 20:2:25.6700,-0.04,0.03,0.06
2020-08-12 20:2:25.7690,-0.01,0.01,0.0
2020-08-12 20:2:25.8680,-0.01,-0.0,0.03
2020-08-12 20:2:25.9680,-0.05,0.01,0.01
2020-08-12 20:2:26.0670,-0.11,0.01,0.01
2020-08-12 20:2:26.1660,-0.09,-0.17,0.04
2020-08-12 20:2:26.2650,-0.26,-0.59,0.02
2020-08-12 20:2:26.3650,0.01,0.01,0.21
2020-08-12 20:2:26.4640,-0.75,0.21,0.06
2020-08-12 20:2:26.5630,-0.37,0.03,-0.03
2020-08-12 20:2:26.6620,-0.12,-0.06,0.0
2020-08-12 20:2:26.7620,-0.02,-0.05,-0.02
2020-08-12 20:2:26.8610,0.18,-0.13,0.06
2020-08-12 20:2:26.9600,0.22,-0.06,0.1
2020-08-12 20:2:27.0600,0.44,0.01,0.04
2020-08-12 20:2:27.1590,0.61,0.05,0.01
2020-08-12 20:2:27.2580,-0.65,-0.09,-0.43
2020-08-12 20:2:27.3570,0.15,0.08,0.18
2020-08-12 20:2:27.4570,-0.02,0.0,-0.03
2020-08-12 20:2:27.5560,-0.02,0.01,0.03
2020-08-12 20:2:27.6550,-0.03,0.04,0.04
2020-08-12 20:2:27.7540,-0.02,0.01,-0.01
2020-08-12 20:2:27.8530,-0.04,0.0,0.04
2020-08-12 20:2:27.9530,0.01,-0.04,-0.02
2020-08-12 20:2:28.0520,-0.01,-0.16,-0.06
2020-08-12 20:2:28.1510,-0.26,-0.42,0.04
2020-08-12 20:2:28.2500,-0.15,-0.12,0.16
2020-08-12 20:2:28.3500,-0.69,0.13,-0.05
2020-08-12 20:2:28.4490,-0.43,0.03,-0.04
2020-08-12 20:2:28.5480,-0.06,-0.1,-0.01
2020-08-12 20:2:28.6470,0.13,-0.1,0.02
2020-08-12 20:2:28.7470,0.33,-0.03,-0.01
2020-08-12 20:2:28.8460,0.45,-0.01,0.04
2020-08-12 20:2:28.9450,0.4,-0.05,-0.06
2020-08-12 20:2:29.0440,0.15,-0.03,-0.27
2020-08-12 20:2:29.1440,-0.4,0.02,0.27
2020-08-12 20:2:29.2430,-0.15,-0.03,0.0
2020-08-12 20:2:29.3420,0.02,-0.03,0.01
2020-08-12 20:2:29.4420,0.0,-0.02,-0.05
2020-08-12 20:2:29.5410,0.01,0.06,0.02
2020-08-12 20:2:29.6400,-0.0,0.05,0.0
2020-08-12 20:2:29.7390,0.0,-0.11,-0.02
2020-08-12 20:2:29.8380,-0.03,-0.16,0.01
2020-08-12 20:2:29.9380,-0.27,-0.5,0.1
2020-08-12 20:2:30.0370,-0.38,-0.09,0.11
2020-08-12 20:2:30.1360,-0.69,0.32,0.01
2020-08-12 20:2:30.2350,-0.36,-0.03,-0.03
2020-08-12 20:2:30.3350,-0.01,-0.01,-0.02
2020-08-12 20:2:30.4340,0.24,-0.02,-0.03
2020-08-12 20:2:30.5330,0.07,-0.09,0.0
2020-08-12 20:2:30.6330,0.12,-0.05,0.07
2020-08-12 20:2:30.7320,0.23,-0.0,0.04
2020-08-12 20:2:30.8310,0.57,0.03,-0.01
2020-08-12 20:2:30.9300,0.29,-0.08,-0.32
2020-08-12 20:2:31.0300,0.08,0.22,-0.15
2020-08-12 20:2:31.1290,0.09,-0.06,-0.11
2020-08-12 20:2:31.2280,0.04,-0.05,0.01
2020-08-12 20:2:31.3270,0.02,0.02,0.03
2020-08-12 20:2:31.4270,0.04,-0.01,0.0
2020-08-12 20:2:31.5260,-0.01,-0.02,-0.01
2020-08-12 20:2:31.6250,-0.08,-0.04,0.04
2020-08-12 20:2:31.7240,-0.08,-0.18,0.01
2020-08-12 20:2:31.8240,-0.31,-0.5,0.06
2020-08-12 20:2:31.9230,-0.23,-0.04,0.17
2020-08-12 20:2:32.0220,-0.68,0.2,0.16
2020-08-12 20:2:32.1210,-0.28,0.01,-0.03
2020-08-12 20:2:32.2210,-0.13,-0.12,0.05
2020-08-12 20:2:32.3200,0.03,-0.22,-0.02
2020-08-12 20:2:32.4190,0.4,-0.18,0.03
2020-08-12 20:2:32.5180,0.66,-0.05,0.04
2020-08-12 20:2:32.6170,0.5,0.05,0.04
2020-08-12 20:2:32.7170,0.45,0.05,-0.02
2020-08-12 20:2:32.8160,0.36,-0.11,-0.09
2020-08-12 20:2:32.9150,0.09,-0.01,-0.04
2020-08-12 20:2:33.0150,0.08,-0.01,0.06
2020-08-12 20:2:33.1140,-0.05,0.02,0.05
2020-08-12 20:2:33.2130,0.11,-0.04,-0.07
2020-08-12 20:2:33.3120,0.02,0.03,-0.0
2020-08-12 20:2:33.4120,-0.03,0.03,-0.01
2020-08-12 20:2:33.5110,-0.04,-0.03,0.06
2020-08-12 20:2:33.6100,-0.08,-0.13,-0.03
2020-08-12 20:2:33.7100,-0.28,-0.49,-0.01
2020-08-12 20:2:33.8090,0.02,0.05,0.03
2020-08-12 20:2:33.9080,-0.77,0.15,0.16
2020-08-12 20:2:34.0070,-0.18,-0.14,-0.01
2020-08-12 20:2:34.1060,0.13,-0.18,-0.05
2020-08-12 20:2:34.2060,0.12,-0.09,-0.06
2020-08-12 20:2:34.3050,0.24,-0.05,0.04
2020-08-12 20:2:34.4040,0.34,-0.03,0.04
2020-08-12 20:2:34.5040,0.49,-0.0,0.06
2020-08-12 20:2:34.6030,0.41,0.07,-0.01
2020-08-12 20:2:34.7020,0.33,-0.15,-0.19
2020-08-12 20:2:34.8010,0.15,-0.0,0.02
2020-08-12 20:2:34.9000,0.03,-0.03,0.09
2020-08-12 20:2:35.0000,-0.05,0.02,-0.01
2020-08-12 20:2:35.0990,-0.05,0.0,-0.0
2020-08-12 20:2:35.1980,-0.04,0.0,0.04
2020-08-12 20:2:35.2970,0.03,-0.02,-0.05
2020-08-12 20:2:35.3970,-0.03,-0.08,0.01
2020-08-12 20:2:35.4960,-0.23,-0.54,-0.02
2020-08-12 20:2:35.5960,-0.36,0.02,0.28
2020-08-12 20:2:35.6950,-0.61,0.26,0.03
2020-08-12 20:2:35.7940,-0.4,0.06,-0.01
2020-08-12 20:2:35.8930,-0.12,-0.09,0.02
2020-08-12 20:2:35.9920,-0.03,-0.08,0.01
2020-08-12 20:2:36.0920,0.26,-0.2,0.0
2020-08-12 20:2:36.1910,0.28,-0.08,-0.0
2020-08-12 20:2:36.2900,0.31,-0.02,0.04
2020-08-12 20:2:36.3890,0.41,0.03,0.09
2020-08-12 20:2:36.4890,0.55,-0.02,0.04
2020-08-12 20:2:36.5880,0.3,-0.05,-0.04
2020-08-12 20:2:36.6870,-0.07,0.03,0.05
2020-08-12 20:2:36.7860,0.01,-0.01,0.02
2020-08-12 20:2:36.8860,-0.04,0.04,0.03
2020-08-12 20:2:36.9850,0.03,-0.01,0.01
2020-08-12 20:2:37.0840,-0.07,0.01,0.04
2020-08-12 20:2:37.1830,-0.1,-0.05,0.06
2020-08-12 20:2:37.2830,-0.02,-0.22,-0.02
2020-08-12 20:2:37.3820,-0.33,-0.42,0.05
2020-08-12 20:2:37.4810,-0.18,0.13,0.17
2020-08-12 20:2:37.5800,-0.67,0.11,0.01
2020-08-12 20:2:37.6800,-0.22,-0.06,-0.03
2020-08-12 20:2:37.7790,-0.11,-0.04,-0.01
2020-08-12 20:2:37.8780,0.28,-0.18,-0.05
2020-08-12 20:2:37.9770,0.65,-0.16,0.02
2020-08-12 20:2:38.0770,0.58,-0.04,0.01
2020-08-12 20:2:38.1760,0.51,0.04,0.02
2020-08-12 20:2:38.2750,-0.48,-0.02,0.11
2020-08-12 20:2:38.3740,0.12,0.02,0.06
2020-08-12 20:2:38.4740,-0.11,0.02,0.06
2020-08-12 20:2:38.5730,-0.01,0.01,0.03
2020-08-12 20:2:38.6720,0.01,0.01,0.0
2020-08-12 20:2:38.7710,-0.02,-0.01,0.01
2020-08-12 20:2:38.8710,-0.04,0.02,0.01
2020-08-12 20:2:38.9700,-0.06,0.01,-0.0
2020-08-12 20:2:39.0690,0.02,-0.06,0.01
2020-08-12 20:2:39.1680,-0.02,-0.25,0.0
2020-08-12 20:2:39.2680,-0.18,-0.33,0.05
2020-08-12 20:2:39.3670,-0.21,0.2,-0.05
2020-08-12 20:2:39.4660,-0.5,0.07,0.08
2020-08-12 20:2:39.5660,-0.29,-0.01,0.03
2020-08-12 20:2:39.6650,-0.15,-0.12,-0.02
2020-08-12 20:2:39.7640,-0.1,-0.14,-0.03
2020-08-12 20:2:39.8630,0.2,-0.12,0.01
2020-08-12 20:2:39.9630,0.52,-0.06,0.08
2020-08-12 20:2:40.0620,0.55,0.01,0.05
2020-08-12 20:2:40.1610,0.44,0.01,-0.02
2020-08-12 20:2:40.2600,0.37,-0.32,-0.06
2020-08-12 20:2:40.3590,0.15,-0.01,0.0
2020-08-12 20:2:40.4590,-0.04,0.01,0.07
2020-08-12 20:2:40.5580,0.0,-0.0,0.0
2020-08-12 20:2:40.6570,0.01,0.01,0.02
2020-08-12 20:2:40.7570,-0.01,0.01,0.03
2020-08-12 20:2:40.8560,0.01,-0.0,-0.01
2020-08-12 20:2:40.9550,0.0,-0.03,-0.05
2020-08-12 20:2:41.0540,-0.03,-0.09,-0.07
2020-08-12 20:2:41.1540,-0.33,-0.7,0.07
2020-08-12 20:2:41.2530,0.07,0.01,0.03
2020-08-12 20:2:41.3520,-0.61,0.15,0.15
2020-08-12 20:2:41.4510,-0.35,0.02,0.03
2020-08-12 20:2:41.5510,-0.14,0.01,0.03
2020-08-12 20:2:41.6500,0.06,-0.25,-0.07
2020-08-12 20:2:41.7490,0.18,-0.16,0.04
2020-08-12 20:2:41.8480,0.38,-0.05,0.07
2020-08-12 20:2:41.9480,0.41,-0.02,0.06
2020-08-12 20:2:42.0470,0.4,0.03,0.03
2020-08-12 20:2:42.1460,-0.5,-0.2,-0.24
2020-08-12 20:2:42.2450,0.23,0.0,0.07
2020-08-12 20:2:42.3450,-0.09,-0.02,0.02
2020-08-12 20:2:42.4440,-0.02,-0.05,-0.0
2020-08-12 20:2:42.5430,0.04,0.01,0.03
2020-08-12 20:2:42.6420,0.03,0.0,0.0
2020-08-12 20:2:42.7420,-0.02,0.03,-0.0
2020-08-12 20:2:42.8410,-0.07,0.03,0.07
2020-08-12 20:2:42.9400,-0.03,-0.13,-0.06
2020-08-12 20:2:43.0390,-0.26,-0.57,0.06
2020-08-12 20:2:43.1390,0.1,-0.06,0.27
2020-08-12 20:2:43.2380,-0.7,0.22,0.06
2020-08-12 20:2:43.3370,-0.25,-0.03,-0.04
2020-08-12 20:2:43.4360,-0.14,-0.02,0.03
2020-08-12 20:2:43.5360,0.0,-0.08,-0.02
2020-08-12 20:2:43.6350,0.01,-0.06,0.03
2020-08-12 20:2:43.7340,0.25,-0.07,0.05
2020-08-12 20:2:43.8340,0.38,-0.02,0.08
2020-08-12 20:2:43.9330,0.38,0.06,0.03
2020-08-12 20:2:44.0320,0.43,0.08,0.02
2020-08-12 20:2:44.1310,0.19,-0.56,0.27
2020-08-12 20:2:44.2300,0.04,-0.01,0.05
2020-08-12 20:2:44.3300,0.03,-0.03,0.04
2020-08-12 20:2:44.4290,-0.0,0.01,0.0
2020-08-12 20:2:44.5280,0.0,-0.01,0.03
2020-08-12 20:2:44.6270,-0.0,-0.02,0.01
2020-08-12 20:2:44.7270,-0.02,-0.01,0.02
2020-08-12 20:2:44.8260,-0.02,-0.01,0.02
2020-08-12 20:2:44.9250,-0.03,-0.07,-0.03
2020-08-12 20:2:45.0240,-0.18,-0.42,-0.0
2020-08-12 20:2:45.1240,-0.01,-0.01,0.18
2020-08-12 20:2:45.2230,-0.48,0.1,-0.0
2020-08-12 20:2:45.3220,-0.53,-0.02,0.08
2020-08-12 20:2:45.4220,-0.29,-0.06,0.06
2020-08-12 20:2:45.5210,0.18,-0.15,-0.05
2020-08-12 20:2:45.6200,0.22,-0.2,0.03
2020-08-12 20:2:45.7190,0.34,-0.1,0.05
2020-08-12 20:2:45.8190,0.4,-0.01,0.04
2020-08-12 20:2:45.9180,0.43,0.02,0.07
2020-08-12 20:2:46.0170,0.18,-0.12,-0.2
2020-08-12 20:2:46.1160,0.09,-0.02,-0.05
2020-08-12 20:2:46.2160,-0.06,0.03,-0.02
2020-08-12 20:2:46.3150,-0.01,-0.04,0.05
2020-08-12 20:2:46.4140,0.03,0.02,0.01
2020-08-12 20:2:46.5130,0.05,-0.0,-0.01
2020-08-12 20:2:46.6130,0.0,0.01,0.01
2020-08-12 20:2:46.7120,-0.0,-0.02,-0.0
2020-08-12 20:2:46.8110,-0.02,-0.1,-0.04
2020-08-12 20:2:46.9100,-0.11,-0.36,0.01
2020-08-12 20:2:47.0100,-0.21,-0.27,0.02
2020-08-12 20:2:47.1090,-0.32,0.36,-0.02
2020-08-12 20:2:47.2080,-0.25,0.03,0.03
2020-08-12 20:2:47.3070,-0.12,0.08,0.09
2020-08-12 20:2:47.4070,-0.09,-0.03,-0.04
2020-08-12 20:2:47.5060,-0.1,-0.05,0.01
2020-08-12 20:2:47.6050,0.01,-0.11,-0.0
2020-08-12 20:2:47.7040,0.17,-0.13,0.03
2020-08-12 20:2:47.8040,0.36,-0.09,0.05
2020-08-12 20:2:47.9030,0.39,0.02,0.01
2020-08-12 20:2:48.0020,0.55,0.06,-0.02
2020-08-12 20:2:48.1010,0.33,-0.22,-0.14
2020-08-12 20:2:48.2010,0.06,0.03,-0.03
2020-08-12 20:2:48.3000,0.07,-0.02,0.0
2020-08-12 20:2:48.3990,0.0,0.02,0.02
2020-08-12 20:2:48.4980,0.07,-0.01,-0.04
2020-08-12 20:2:48.5980,0.03,-0.0,-0.02
2020-08-12 20:2:48.6970,-0.06,-0.02,0.01
2020-08-12 20:2:48.7960,-0.03,-0.1,-0.05
2020-08-12 20:2:48.8950,-0.08,-0.23,0.01
2020-08-12 20:2:48.9950,-0.36,-0.34,0.01
2020-08-12 20:2:49.0940,-0.14,0.38,0.04
2020-08-12 20:2:49.1930,-0.13,-0.04,-0.0
2020-08-12 20:2:49.2930,-0.04,0.09,0.04
2020-08-12 20:2:49.3920,0.02,-0.01,-0.05
2020-08-12 20:2:49.4910,-0.09,-0.04,0.01
2020-08-12 20:2:49.5900,-0.02,-0.09,0.03
2020-08-12 20:2:49.6890,0.14,-0.11,0.03
2020-08-12 20:2:49.7890,0.4,-0.07,0.01
2020-08-12 20:2:49.8880,0.43,-0.0,0.07
2020-08-12 20:2:49.9870,0.34,0.05,0.01
2020-08-12 20:2:50.0870,-0.52,-0.06,-0.04
2020-08-12 20:2:50.1860,0.13,-0.01,-0.05
2020-08-12 20:2:50.2850,0.04,-0.03,-0.02
2020-08-12 20:2:50.3840,-0.02,-0.01,0.02
2020-08-12 20:2:50.4840,0.02,0.01,0.02
2020-08-12 20:2:50.5830,0.02,0.0,0.0
2020-08-12 20:2:50.6820,-0.02,0.01,-0.01
2020-08-12 20:2:50.7810,-0.02,-0.08,0.03
2020-08-12 20:2:50.8800,-0.04,-0.24,-0.08
2020-08-12 20:2:50.9800,-0.28,-0.5,0.02
2020-08-12 20:2:51.0790,-0.14,0.05,0.14
2020-08-12 20:2:51.1780,-0.55,0.03,0.18
2020-08-12 20:2:51.2770,-0.27,-0.1,0.09
2020-08-12 20:2:51.3770,-0.09,-0.05,-0.0
2020-08-12 20:2:51.4760,0.18,-0.09,-0.09
2020-08-12 20:2:51.5750,0.26,-0.08,0.05
2020-08-12 20:2:51.6750,0.36,-0.02,0.04
2020-08-12 20:2:51.7740,0.34,-0.01,0.04
2020-08-12 20:2:51.8730,0.47,0.07,-0.02
2020-08-12 20:2:51.9720,-0.28,-0.35,0.3
2020-08-12 20:2:52.0720,0.06,-0.06,0.2
2020-08-12 20:2:52.1710,-0.08,0.0,0.06
2020-08-12 20:2:52.2700,-0.09,0.02,0.0
2020-08-12 20:2:52.3690,0.01,0.04,-0.0
2020-08-12 20:2:52.4690,-0.04,0.03,0.02
2020-08-12 20:2:52.5680,-0.02,0.03,0.01
2020-08-12 20:2:52.6670,-0.05,-0.03,0.02
2020-08-12 20:2:52.7660,-0.07,-0.09,-0.01
2020-08-12 20:2:52.8660,-0.23,-0.53,0.1
2020-08-12 20:2:52.9650,-0.1,-0.13,0.29
2020-08-12 20:2:53.0640,-0.63,0.17,0.01
2020-08-12 20:2:53.1630,-0.43,0.0,0.02
2020-08-12 20:2:53.2630,-0.15,-0.08,-0.04
2020-08-12 20:2:53.3620,0.1,-0.2,-0.13
2020-08-12 20:2:53.4610,0.1,-0.08,-0.04
2020-08-12 20:2:53.5600,0.26,-0.06,0.02
2020-08-12 20:2:53.6600,0.41,-0.02,0.07
2020-08-12 20:2:53.7590,0.47,0.04,0.07
2020-08-12 20:2:53.8580,0.42,-0.18,-0.24
2020-08-12 20:2:53.9570,0.42,-0.05,-0.03
2020-08-12 20:2:54.0570,0.05,-0.05,-0.06
2020-08-12 20:2:54.1560,0.01,-0.01,0.05
2020-08-12 20:2:54.2550,-0.01,0.03,0.05
2020-08-12 20:2:54.3540,-0.02,0.0,0.01
2020-08-12 20:2:54.4540,-0.0,0.01,0.02
2020-08-12 20:2:54.5530,-0.06,0.02,-0.0
2020-08-12 20:2:54.6520,-0.03,-0.09,-0.05
2020-08-12 20:2:54.7510,-0.14,-0.26,-0.0
2020-08-12 20:2:54.8510,-0.4,-0.47,0.12
2020-08-12 20:2:54.9500,0.02,0.52,-0.07
2020-08-12 20:2:55.0490,-0.46,0.1,-0.01
2020-08-12 20:2:55.1490,-0.12,-0.0,0.07
2020-08-12 20:2:55.2480,0.14,0.01,0.03
2020-08-12 20:2:55.3470,-0.02,-0.08,-0.01
2020-08-12 20:2:55.4460,-0.0,-0.05,0.04
2020-08-12 20:2:55.5450,0.08,-0.1,0.06
2020-08-12 20:2:55.6450,0.14,-0.06,0.01
2020-08-12 20:2:55.7440,0.36,0.03,0.05
2020-08-12 20:2:55.8430,0.64,0.02,0.08
2020-08-12 20:2:55.9420,0.27,-0.42,0.03
2020-08-12 20:2:56.0420,0.17,0.02,0.1
2020-08-12 20:2:56.1410,-0.06,0.01,0.04
2020-08-12 20:2:56.2400,-0.08,0.02,0.02
2020-08-12 20:2:56.3400,0.03,-0.01,0.01
2020-08-12 20:2:56.4390,0.0,-0.0,0.01
2020-08-12 20:2:56.5380,-0.06,0.02,0.01
2020-08-12 20:2:56.6370,0.0,-0.07,-0.04
2020-08-12 20:2:56.7370,-0.0,-0.16,-0.03
2020-08-12 20:2:56.8360,-0.16,-0.59,0.02
2020-08-12 20:2:56.9350,0.02,-0.1,0.03
2020-08-12 20:2:57.0340,-0.63,0.21,0.05
2020-08-12 20:2:57.1340,-0.28,-0.06,0.0
2020-08-12 20:2:57.2330,-0.17,-0.05,0.08
2020-08-12 20:2:57.3320,-0.01,-0.13,-0.03
2020-08-12 20:2:57.4310,0.19,-0.15,0.01
2020-08-12 20:2:57.5300,0.32,-0.08,0.01
2020-08-12 20:2:57.6300,0.42,-0.02,-0.02
2020-08-12 20:2:57.7290,0.49,0.02,0.03
2020-08-12 20:2:57.8280,-0.54,-0.06,-0.14
2020-08-12 20:2:57.9280,0.24,-0.11,-0.1
2020-08-12 20:2:58.0270,0.06,-0.02,-0.04
2020-08-12 20:2:58.1260,0.03,-0.01,0.01
2020-08-12 20:2:58.2250,-0.0,0.01,0.01
2020-08-12 20:2:58.3250,0.02,0.0,-0.0
2020-08-12 20:2:58.4240,0.0,0.01,-0.01
2020-08-12 20:2:58.5230,-0.04,0.0,0.02
2020-08-12 20:2:58.6220,-0.04,-0.01,0.03
2020-08-12 20:2:58.7220,-0.01,-0.07,-0.02
2020-08-12 20:2:58.8210,-0.13,-0.44,0.0
2020-08-12 20:2:58.9200,-0.28,0.1,0.14
2020-08-12 20:2:59.0190,-0.33,0.32,-0.15
2020-08-12 20:2:59.1190,-0.47,0.03,0.04
2020-08-12 20:2:59.2180,-0.26,-0.01,0.07
2020-08-12 20:2:59.3170,-0.06,-0.09,0.05
2020-08-12 20:2:59.4170,0.15,-0.12,0.0
2020-08-12 20:2:59.5160,0.17,-0.09,-0.03
2020-08-12 20:2:59.6150,0.3,-0.04,0.03
2020-08-12 20:2:59.7140,0.33,0.0,0.03
2020-08-12 20:2:59.8140,0.59,0.04,-0.02
2020-08-12 20:2:59.9130,-0.77,-0.07,-0.07
2020-08-12 20:3:00.0120,0.09,0.06,0.03
2020-08-12 20:3:00.1110,-0.0,-0.0,-0.04
2020-08-12 20:3:00.2100,-0.01,-0.03,0.02
2020-08-12 20:3:00.3100,0.02,-0.0,0.02
2020-08-12 20:3:00.4090,-0.03,0.01,0.01
2020-08-12 20:3:00.5080,-0.07,0.01,0.0
2020-08-12 20:3:00.6070,-0.07,-0.01,0.03
2020-08-12 20:3:00.7070,-0.08,-0.04,0.02
2020-08-12 20:3:00.8060,-0.16,-0.26,-0.01
2020-08-12 20:3:00.9050,-0.38,-0.42,0.11
2020-08-12 20:3:01.0040,-0.11,0.31,-0.14
2020-08-12 20:3:01.1040,-0.28,0.07,-0.02
2020-08-12 20:3:01.2030,-0.2,0.02,-0.0
2020-08-12 20:3:01.3020,-0.09,-0.08,-0.0
2020-08-12 20:3:01.4020,0.01,-0.1,0.01
2020-08-12 20:3:01.5010,0.08,-0.03,0.05
2020-08-12 20:3:01.6000,0.2,-0.05,0.0
2020-08-12 20:3:01.6990,0.36,-0.04,0.0
2020-08-12 20:3:01.7980,0.44,0.03,-0.02
2020-08-12 20:3:01.8980,0.42,-0.15,-0.18
2020-08-12 20:3:01.9970,0.11,-0.07,-0.06
2020-08-12 20:3:02.0960,-0.13,0.06,0.03
2020-08-12 20:3:02.1960,0.05,-0.02,0.01
2020-08-12 20:3:02.2950,0.01,0.01,0.0
2020-08-12 20:3:02.3940,0.0,-0.01,-0.0
2020-08-12 20:3:02.4930,-0.04,0.02,0.04
2020-08-12 20:3:02.5930,0.12,-0.06,-0.1
2020-08-12 20:3:02.6920,-0.0,-0.03,-0.02
2020-08-12 20:3:02.7910,0.0,-0.1,-0.05
2020-08-12 20:3:02.8900,-0.16,-0.4,0.05
2020-08-12 20:3:02.9900,-0.11,0.19,0.0
2020-08-12 20:3:03.0890,-0.86,0.22,-0.3
2020-08-12 20:3:03.1880,-0.34,0.06,0.06
2020-08-12 20:3:03.2870,-0.11,-0.08,0.02
2020-08-12 20:3:03.3870,0.01,-0.08,0.01
2020-08-12 20:3:03.4860,0.13,-0.09,-0.03
2020-08-12 20:3:03.5850,0.21,-0.12,-0.07
2020-08-12 20:3:03.6840,0.33,-0.03,-0.03
2020-08-12 20:3:03.7840,0.49,0.01,0.03
2020-08-12 20:3:03.8830,0.61,0.01,0.1
2020-08-12 20:3:03.9820,0.35,-0.34,-0.12
2020-08-12 20:3:04.0810,0.06,0.03,0.03
2020-08-12 20:3:04.1810,-0.05,0.04,0.1
2020-08-12 20:3:04.2800,-0.03,0.01,-0.01
2020-08-12 20:3:04.3790,-0.02,-0.02,0.01
2020-08-12 20:3:04.4780,0.0,0.01,0.0
2020-08-12 20:3:04.5780,0.02,0.01,0.02
2020-08-12 20:3:04.6770,-0.04,0.04,0.04
2020-08-12 20:3:04.7760,-0.04,0.02,-0.01
2020-08-12 20:3:04.8750,-0.04,-0.09,0.03
2020-08-12 20:3:04.9750,-0.21,-0.46,0.08
2020-08-12 20:3:05.0740,-0.33,-0.11,0.06
2020-08-12 20:3:05.1730,-0.57,0.31,-0.12
2020-08-12 20:3:05.2720,-0.37,0.02,0.1
2020-08-12 20:3:05.3720,-0.02,-0.01,0.08
2020-08-12 20:3:05.4710,-0.17,-0.11,0.01
2020-08-12 20:3:05.5700,0.06,-0.08,-0.04
2020-08-12 20:3:05.6690,0.14,-0.07,-0.02
2020-08-12 20:3:05.7690,0.36,-0.04,0.07
2020-08-12 20:3:05.8680,0.36,0.03,0.08
2020-08-12 20:3:05.9670,0.46,0.03,0.03
2020-08-12 20:3:06.0660,-0.42,-0.07,-0.12
2020-08-12 20:3:06.1660,0.25,-0.03,0.02
2020-08-12 20:3:06.2650,-0.03,-0.04,-0.02
2020-08-12 20:3:06.3640,-0.0,-0.02,-0.0
2020-08-12 20:3:06.4630,0.01,0.02,0.02
2020-08-12 20:3:06.5630,-0.01,0.01,0.03
2020-08-12 20:3:06.6620,-0.04,0.01,-0.0
2020-08-12 20:3:06.7610,-0.04,-0.06,0.0
2020-08-12 20:3:06.8610,-0.03,-0.14,-0.12
2020-08-12 20:3:06.9600,-0.22,-0.58,0.0
2020-08-12 20:3:07.0590,-0.0,-0.05,0.17
2020-08-12 20:3:07.1580,-0.7,0.29,0.11
2020-08-12 20:3:07.2570,-0.22,0.0,0.07
2020-08-12 20:3:07.3570,-0.11,-0.02,0.01
2020-08-12 20:3:07.4560,-0.1,-0.06,-0.02
2020-08-12 20:3:07.5550,-0.05,-0.12,-0.04
2020-08-12 20:3:07.6550,0.18,-0.16,-0.0
2020-08-12 20:3:07.7540,0.31,-0.05,0.06
2020-08-12 20:3:07.8530,0.34,0.04,0.07
2020-08-12 20:3:07.9520,0.45,0.0,0.04
2020-08-12 20:3:08.0520,0.05,-0.35,0.24
2020-08-12 20:3:08.1510,-0.07,0.04,0.12
2020-08-12 20:3:08.2500,-0.0,-0.02,0.0
2020-08-12 20:3:08.3490,0.01,-0.02,0.03
2020-08-12 20:3:08.4480,0.04,0.0,0.02
2020-08-12 20:3:08.5480,-0.03,0.03,0.05
2020-08-12 20:3:08.6470,-0.03,0.01,-0.0
2020-08-12 20:3:08.7460,-0.02,-0.03,-0.0
2020-08-12 20:3:08.8460,-0.04,-0.08,-0.06
2020-08-12 20:3:08.9450,-0.16,-0.27,-0.01
2020-08-12 20:3:09.0440,-0.22,-0.16,0.07
2020-08-12 20:3:09.1430,-0.36,0.33,-0.17
2020-08-12 20:3:09.2430,-0.55,-0.0,0.13
2020-08-12 20:3:09.3420,-0.25,0.04,0.11
2020-08-12 20:3:09.4410,-0.05,-0.01,-0.01
2020-08-12 20:3:09.5400,0.15,-0.04,-0.09
2020-08-12 20:3:09.6400,0.41,-0.03,-0.06
2020-08-12 20:3:09.7390,0.24,-0.01,0.04
2020-08-12 20:3:09.8380,0.29,-0.04,0.06
2020-08-12 20:3:09.9370,0.49,0.07,-0.04
2020-08-12 20:3:10.0360,-0.12,-0.32,0.24
2020-08-12 20:3:10.1360,-0.01,0.02,0.15
2020-08-12 20:3:10.2350,-0.1,0.01,0.1
2020-08-12 20:3:10.3340,-0.05,-0.01,0.01
2020-08-12 20:3:10.4340,-0.01,0.0,0.0
2020-08-12 20:3:10.5330,-0.07,0.03,0.05
2020-08-12 20:3:10.6320,-0.06,0.0,0.02
2020-08-12 20:3:10.7310,0.09,-0.05,-0.02
2020-08-12 20:3:10.8310,0.01,-0.16,-0.02
2020-08-12 20:3:10.9300,-0.14,-0.42,0.08
2020-08-12 20:3:11.0290,-0.14,-0.08,0.22
2020-08-12 20:3:11.1280,-0.33,0.26,-0.23
2020-08-12 20:3:11.2280,-0.45,0.04,0.02
2020-08-12 20:3:11.3270,-0.16,-0.01,0.03
2020-08-12 20:3:11.4260,-0.02,-0.08,-0.02
2020-08-12 20:3:11.5250,-0.01,-0.04,0.06
2020-08-12 20:3:11.6250,0.23,-0.1,0.07
2020-08-12 20:3:11.7240,0.26,-0.08,0.03
2020-08-12 20:3:11.8230,0.26,-0.0,-0.01
2020-08-12 20:3:11.9220,0.38,0.03,-0.02
2020-08-12 20:3:12.0220,0.51,-0.14,-0.04
2020-08-12 20:3:12.1210,0.35,-0.07,-0.19
2020-08-12 20:3:12.2200,0.02,-0.02,-0.02
2020-08-12 20:3:12.3190,0.04,-0.0,0.06
2020-08-12 20:3:12.4190,-0.03,0.02,-0.0
2020-08-12 20:3:12.5180,-0.02,0.01,0.01
2020-08-12 20:3:12.6170,-0.02,0.01,0.03
2020-08-12 20:3:12.7170,-0.02,-0.0,-0.0
2020-08-12 20:3:12.8160,-0.06,-0.04,0.02
2020-08-12 20:3:12.9150,-0.14,-0.09,0.08
2020-08-12 20:3:13.0140,-0.29,-0.44,0.13
2020-08-12 20:3:13.1130,-0.02,0.14,0.22
2020-08-12 20:3:13.2130,-0.59,0.07,0.05
2020-08-12 20:3:13.3120,-0.55,0.06,0.13
2020-08-12 20:3:13.4110,-0.19,-0.12,-0.0
2020-08-12 20:3:13.5100,0.03,-0.19,-0.0
2020-08-12 20:3:13.6100,0.15,-0.11,-0.04
2020-08-12 20:3:13.7090,0.23,-0.04,0.03
2020-08-12 20:3:13.8080,0.47,0.0,0.08
2020-08-12 20:3:13.9080,0.61,0.06,0.04
2020-08-12 20:3:14.0070,-1.02,0.01,-0.17
2020-08-12 20:3:14.1060,0.12,-0.01,0.04
2020-08-12 20:3:14.2050,0.09,-0.06,-0.07
2020-08-12 20:3:14.3050,0.04,-0.01,-0.02
2020-08-12 20:3:14.4040,0.01,0.01,0.02
2020-08-12 20:3:14.5030,-0.03,0.01,0.04
2020-08-12 20:3:14.6020,0.01,-0.01,-0.03
2020-08-12 20:3:14.7010,-0.04,0.02,-0.01
2020-08-12 20:3:14.8010,0.08,-0.17,-0.03
2020-08-12 20:3:14.9000,-0.1,-0.41,0.01
2020-08-12 20:3:14.9990,-0.43,-0.34,0.18
2020-08-12 20:3:15.0990,-0.26,0.36,-0.13
2020-08-12 20:3:15.1980,-0.51,0.2,0.13
2020-08-12 20:3:15.2970,-0.06,-0.05,0.02
2020-08-12 20:3:15.3960,-0.03,-0.07,-0.04
2020-08-12 20:3:15.4960,0.04,-0.15,0.01
2020-08-12 20:3:15.5950,0.17,-0.11,0.02
2020-08-12 20:3:15.6940,0.32,-0.05,0.02
2020-08-12 20:3:15.7930,0.43,0.03,0.04
2020-08-12 20:3:15.8930,0.55,-0.02,-0.03
2020-08-12 20:3:15.9920,-0.12,-0.21,0.06
2020-08-12 20:3:16.0910,0.0,0.05,0.15
2020-08-12 20:3:16.1900,0.07,-0.07,-0.01
2020-08-12 20:3:16.2900,0.05,-0.04,0.0
2020-08-12 20:3:16.3890,0.01,0.01,0.02
2020-08-12 20:3:16.4880,-0.05,0.02,0.02
2020-08-12 20:3:16.5870,-0.02,0.02,0.01
2020-08-12 20:3:16.6870,0.06,-0.03,-0.04
2020-08-12 20:3:16.7860,-0.06,0.01,-0.02
2020-08-12 20:3:16.8850,-0.03,-0.13,-0.05
2020-08-12 20:3:16.9840,-0.22,-0.68,-0.0
2020-08-12 20:3:17.0840,-0.02,-0.06,0.12
2020-08-12 20:3:17.1830,-0.99,0.3,0.08
2020-08-12 20:3:17.2820,-0.43,-0.03,0.05
2020-08-12 20:3:17.3810,-0.03,-0.08,0.0
2020-08-12 20:3:17.4810,0.04,-0.15,0.01
2020-08-12 20:3:17.5800,0.2,-0.12,0.0
2020-08-12 20:3:17.6790,0.41,-0.09,0.01
2020-08-12 20:3:17.7790,0.49,0.03,0.05
2020-08-12 20:3:17.8780,0.66,0.03,0.07
2020-08-12 20:3:17.9770,-0.38,-0.2,0.09
2020-08-12 20:3:18.0760,0.08,0.01,0.14
2020-08-12 20:3:18.1750,-0.03,-0.01,0.03
2020-08-12 20:3:18.2750,0.05,-0.05,-0.03
2020-08-12 20:3:18.3740,0.04,0.0,0.0
2020-08-12 20:3:18.4730,-0.01,0.02,0.02
2020-08-12 20:3:18.5730,-0.16,0.08,0.06
2020-08-12 20:3:18.6720,-0.17,0.02,0.05
2020-08-12 20:3:18.7710,-0.03,-0.11,0.04
2020-08-12 20:3:18.8700,-0.29,-0.5,0.1
2020-08-12 20:3:18.9690,-0.16,0.03,0.14
2020-08-12 20:3:19.0690,-0.86,0.21,-0.25
2020-08-12 20:3:19.1680,-0.22,-0.04,0.05
2020-08-12 20:3:19.2670,-0.07,-0.07,0.05
2020-08-12 20:3:19.3660,-0.01,-0.08,-0.06
2020-08-12 20:3:19.4660,0.07,-0.06,-0.03
2020-08-12 20:3:19.5650,0.08,-0.09,-0.02
2020-08-12 20:3:19.6640,0.27,-0.07,-0.0
2020-08-12 20:3:19.7630,0.48,-0.01,0.05
2020-08-12 20:3:19.8630,0.49,0.03,0.07
2020-08-12 20:3:19.9620,0.45,-0.07,0.04
2020-08-12 20:3:20.0610,0.35,-0.05,0.07
2020-08-12 20:3:20.1600,-0.4,0.05,0.12
2020-08-12 20:3:20.2600,-0.07,0.02,0.03
2020-08-12 20:3:20.3590,-0.06,0.01,0.03
2020-08-12 20:3:20.4580,0.01,0.04,0.03
2020-08-12 20:3:20.5580,0.0,0.05,0.01
2020-08-12 20:3:20.6570,-0.09,-0.01,0.02
2020-08-12 20:3:20.7560,-0.03,-0.02,-0.0
2020-08-12 20:3:20.8550,0.1,-0.11,-0.09
2020-08-12 20:3:20.9540,-0.05,-0.26,-0.04
2020-08-12 20:3:21.0540,-0.36,-0.47,-0.05
2020-08-12 20:3:21.1530,-0.16,0.04,0.22
2020-08-12 20:3:21.2520,-0.81,0.29,0.26
2020-08-12 20:3:21.3520,-0.14,-0.06,-0.08
2020-08-12 20:3:21.4510,-0.11,-0.1,-0.04
2020-08-12 20:3:21.5500,0.07,-0.11,-0.1
2020-08-12 20:3:21.6490,0.18,-0.09,-0.06
2020-08-12 20:3:21.7490,0.24,-0.08,0.02
2020-08-12 20:3:21.8480,0.32,-0.03,0.02
2020-08-12 20:3:21.9470,0.32,0.04,0.07
2020-08-12 20:3:22.0460,0.45,0.11,0.11
2020-08-12 20:3:22.1460,0.22,-0.56,0.22
2020-08-12 20:3:22.2450,0.04,0.01,0.1
2020-08-12 20:3:22.3440,-0.07,0.05,0.08
2020-08-12 20:3:22.4430,-0.0,-0.02,-0.06
2020-08-12 20:3:22.5430,-0.05,-0.02,0.01
2020-08-12 20:3:22.6420,0.05,0.01,0.04
2020-08-12 20:3:22.7410,-0.02,0.0,0.04
2020-08-12 20:3:22.8400,-0.02,0.02,-0.01
2020-08-12 20:3:22.9400,0.09,-0.04,-0.13
2020-08-12 20:3:23.0390,-0.07,-0.05,0.02
2020-08-12 20:3:23.1380,-0.11,-0.38,0.02
2020-08-12 20:3:23.2370,-0.35,-0.04,0.11
2020-08-12 20:3:23.3370,-0.4,0.35,-0.15
2020-08-12 20:3:23.4360,-0.29,0.02,-0.06
2020-08-12 20:3:23.5350,-0.13,0.05,0.01
2020-08-12 20:3:23.6350,-0.16,-0.07,0.01
2020-08-12 20:3:23.7330,-0.12,-0.07,0.04
2020-08-12 20:3:23.8330,0.11,-0.09,0.02
2020-08-12 20:3:23.9320,0.29,-0.06,0.04
2020-08-12 20:3:24.0310,0.53,-0.01,0.04
2020-08-12 20:3:24.1310,0.56,0.03,0.09
2020-08-12 20:3:24.2300,-0.14,-0.2,-0.01
2020-08-12 20:3:24.3290,0.16,-0.02,0.11
2020-08-12 20:3:24.4280,0.07,-0.03,-0.03
2020-08-12 20:3:24.5280,-0.0,-0.02,0.02
2020-08-12 20:3:24.6270,0.03,-0.01,0.02
2020-08-12 20:3:24.7260,-0.06,0.01,0.01
2020-08-12 20:3:24.8250,-0.08,0.02,0.03
2020-08-12 20:3:24.9250,0.07,-0.09,-0.06
2020-08-12 20:3:25.0240,0.01,-0.12,-0.01
2020-08-12 20:3:25.1230,-0.22,-0.45,-0.07
2020-08-12 20:3:25.2220,-0.13,0.14,0.19
2020-08-12 20:3:25.3220,-0.62,0.19,-0.08
2020-08-12 20:3:25.4210,-0.42,-0.01,0.02
2020-08-12 20:3:25.5210,-0.22,-0.01,0.0
2020-08-12 20:3:25.6190,-0.16,-0.11,-0.01
2020-08-12 20:3:25.7190,0.04,-0.15,-0.04
2020-08-12 20:3:25.8180,0.35,-0.09,0.02
2020-08-12 20:3:25.9170,0.41,-0.06,0.09
2020-08-12 20:3:26.0160,0.9,0.01,0.08
2020-08-12 20:3:26.1160,-0.9,0.12,-0.15
2020-08-12 20:3:26.2150,0.1,-0.03,0.0
2020-08-12 20:3:26.3140,0.12,-0.05,-0.08
2020-08-12 20:3:26.4140,0.02,-0.02,0.03
2020-08-12 20:3:26.5130,-0.03,0.01,0.05
2020-08-12 20:3:26.6120,-0.01,0.01,0.03
2020-08-12 20:3:26.7110,-0.01,0.0,0.01
2020-08-12 20:3:26.8100,0.02,0.01,-0.01
2020-08-12 20:3:26.9100,-0.12,-0.03,0.02
2020-08-12 20:3:27.0090,-0.04,-0.16,-0.03
2020-08-12 20:3:27.1080,-0.39,-0.56,0.02
2020-08-12 20:3:27.2080,0.18,0.09,0.08
2020-08-12 20:3:27.3070,-0.57,0.17,0.13
2020-08-12 20:3:27.4060,-0.18,-0.03,0.04
2020-08-12 20:3:27.5050,0.01,-0.04,-0.02
2020-08-12 20:3:27.6050,0.07,-0.19,-0.03
2020-08-12 20:3:27.7040,0.1,-0.14,-0.04
2020-08-12 20:3:27.8030,0.37,-0.09,0.0
2020-08-12 20:3:27.9020,0.49,0.0,0.03
2020-08-12 20:3:28.0020,0.44,0.03,0.09
2020-08-12 20:3:28.1010,-0.62,-0.03,-0.18
2020-08-12 20:3:28.2000,0.16,0.02,0.03
2020-08-12 20:3:28.2990,0.19,-0.1,-0.14
2020-08-12 20:3:28.3990,0.05,-0.05,0.01
2020-08-12 20:3:28.4980,0.09,-0.03,-0.0
2020-08-12 20:3:28.5970,0.06,-0.0,-0.03
2020-08-12 20:3:28.6960,0.02,0.01,0.02
2020-08-12 20:3:28.7960,-0.04,-0.0,-0.0
2020-08-12 20:3:28.8950,-0.11,-0.07,-0.01
2020-08-12 20:3:28.9940,-0.09,-0.22,-0.0
2020-08-12 20:3:29.0930,-0.22,-0.37,-0.07
2020-08-12 20:3:29.1930,-0.01,0.29,0.14
2020-08-12 20:3:29.2920,-0.5,0.07,0.13
2020-08-12 20:3:29.3910,-0.4,0.06,0.02
2020-08-12 20:3:29.4900,-0.12,-0.06,-0.0
2020-08-12 20:3:29.5900,-0.08,-0.14,0.07
2020-08-12 20:3:29.6890,0.09,-0.15,-0.05
2020-08-12 20:3:29.7880,0.47,-0.09,0.02
2020-08-12 20:3:29.8870,0.58,-0.03,0.06
2020-08-12 20:3:29.9870,0.52,0.0,0.02
2020-08-12 20:3:30.0860,-0.47,-0.02,-0.02
2020-08-12 20:3:30.1850,0.08,-0.0,-0.08
2020-08-12 20:3:30.2840,0.06,-0.04,-0.03
2020-08-12 20:3:30.3840,-0.02,0.0,0.0
2020-08-12 20:3:30.4830,-0.0,0.02,0.03
2020-08-12 20:3:30.5820,0.03,-0.0,-0.02
2020-08-12 20:3:30.6810,0.02,0.03,-0.03
2020-08-12 20:3:30.7810,-0.05,-0.04,0.01
2020-08-12 20:3:30.8800,-0.1,-0.1,0.04
2020-08-12 20:3:30.9790,-0.19,-0.55,0.05
2020-08-12 20:3:31.0780,-0.23,-0.11,0.27
2020-08-12 20:3:31.1780,-0.52,0.23,-0.13
2020-08-12 20:3:31.2770,-0.33,0.07,0.07
2020-08-12 20:3:31.3760,-0.08,0.07,0.05
2020-08-12 20:3:31.4750,-0.18,-0.07,-0.0
2020-08-12 20:3:31.5750,-0.18,-0.06,0.01
2020-08-12 20:3:31.6740,0.15,-0.16,-0.01
2020-08-12 20:3:31.7730,0.27,-0.06,0.03
2020-08-12 20:3:31.8720,0.53,0.0,0.06
2020-08-12 20:3:31.9720,0.52,0.05,0.04
2020-08-12 20:3:32.0710,-0.52,-0.05,-0.17
2020-08-12 20:3:32.1700,0.16,0.05,0.05
2020-08-12 20:3:32.2690,0.02,-0.03,-0.05
2020-08-12 20:3:32.3690,-0.04,-0.03,0.05
2020-08-12 20:3:32.4680,-0.03,0.02,0.03
2020-08-12 20:3:32.5670,-0.04,0.01,0.01
2020-08-12 20:3:32.6660,-0.02,-0.0,-0.0
2020-08-12 20:3:32.7660,-0.1,-0.01,0.07
2020-08-12 20:3:32.8650,-0.08,-0.1,-0.02
2020-08-12 20:3:32.9640,-0.14,-0.34,0.06
2020-08-12 20:3:33.0640,-0.1,-0.08,0.02
2020-08-12 20:3:33.1630,-0.08,0.2,-0.21
2020-08-12 20:3:33.2620,-0.43,0.15,0.01
2020-08-12 20:3:33.3610,-0.09,-0.05,-0.03
2020-08-12 20:3:33.4600,-0.09,-0.07,0.02
2020-08-12 20:3:33.5600,-0.03,-0.06,0.03
2020-08-12 20:3:33.6590,-0.0,-0.07,-0.08
2020-08-12 20:3:33.7580,0.37,-0.04,-0.01
2020-08-12 20:3:33.8570,0.34,-0.07,-0.03
2020-08-12 20:3:33.9570,0.66,0.0,0.02
2020-08-12 20:3:34.0560,-0.79,0.06,-0.31
2020-08-12 20:3:34.1550,-0.06,0.05,-0.2
2020-08-12 20:3:34.2550,0.35,-0.06,-0.2
2020-08-12 20:3:34.3540,0.08,-0.02,0.02
2020-08-12 20:3:34.4530,-0.02,0.04,0.03
2020-08-12 20:3:34.5520,0.01,-0.01,-0.02
2020-08-12 20:3:34.6520,0.0,0.01,0.01
2020-08-12 20:3:34.7510,-0.05,0.01,0.06
2020-08-12 20:3:34.8500,-0.15,-0.02,-0.01
2020-08-12 20:3:34.9490,-0.07,-0.13,0.02
2020-08-12 20:3:35.0490,-0.32,-0.62,-0.04
2020-08-12 20:3:35.1480,0.08,0.02,-0.0
2020-08-12 20:3:35.2470,-0.62,0.11,0.16
2020-08-12 20:3:35.3460,-0.4,-0.0,-0.0
2020-08-12 20:3:35.4460,-0.18,-0.02,0.01
2020-08-12 20:3:35.5450,-0.03,-0.11,-0.05
2020-08-12 20:3:35.6440,0.07,-0.1,0.0
2020-08-12 20:3:35.7430,0.13,-0.12,0.04
2020-08-12 20:3:35.8430,0.5,0.01,0.13
2020-08-12 20:3:35.9420,0.41,-0.02,0.09
2020-08-12 20:3:36.0410,0.53,0.07,0.04
2020-08-12 20:3:36.1400,0.22,-0.48,0.09
2020-08-12 20:3:36.2400,0.14,-0.02,0.12
2020-08-12 20:3:36.3390,0.03,0.03,0.01
2020-08-12 20:3:36.4380,-0.01,0.01,0.01
2020-08-12 20:3:36.5370,0.01,-0.01,0.02
2020-08-12 20:3:36.6370,0.01,0.02,0.02
2020-08-12 20:3:36.7360,0.02,0.03,-0.01
2020-08-12 20:3:36.8350,-0.01,-0.01,-0.06
2020-08-12 20:3:36.9340,-0.07,-0.09,0.03
2020-08-12 20:3:37.0340,-0.09,-0.3,0.03
2020-08-12 20:3:37.1330,-0.46,-0.24,0.01
2020-08-12 20:3:37.2320,-0.18,0.33,-0.18
2020-08-12 20:3:37.3310,-0.43,0.11,0.1
2020-08-12 20:3:37.4310,-0.12,-0.01,0.04
2020-08-12 20:3:37.5300,-0.16,-0.1,0.03
2020-08-12 20:3:37.6290,0.04,-0.12,-0.1
2020-08-12 20:3:37.7280,0.11,-0.12,0.02
2020-08-12 20:3:37.8280,0.48,-0.11,-0.04
2020-08-12 20:3:37.9270,0.39,-0.03,0.07
2020-08-12 20:3:38.0260,0.56,0.08,0.01
2020-08-12 20:3:38.1250,-1.11,-0.0,-0.22
2020-08-12 20:3:38.2250,0.0,-0.03,0.14
2020-08-12 20:3:38.3240,0.02,-0.03,-0.05
2020-08-12 20:3:38.4230,0.02,-0.02,0.02
2020-08-12 20:3:38.5220,0.03,-0.01,0.03
2020-08-12 20:3:38.6220,-0.03,0.01,0.02
2020-08-12 20:3:38.7210,-0.13,0.06,0.08
2020-08-12 20:3:38.8200,-0.01,-0.02,-0.05
2020-08-12 20:3:38.9190,-0.05,-0.06,-0.03
2020-08-12 20:3:39.0190,-0.04,-0.27,-0.02
2020-08-12 20:3:39.1180,-0.17,-0.46,-0.06
2020-08-12 20:3:39.2170,-0.2,0.11,0.13
2020-08-12 20:3:39.3160,-0.54,0.09,0.17
2020-08-12 20:3:39.4160,-0.23,0.03,0.07
2020-08-12 20:3:39.5150,-0.1,-0.04,-0.0
2020-08-12 20:3:39.6140,0.09,-0.05,0.01
2020-08-12 20:3:39.7130,0.18,-0.05,-0.02
2020-08-12 20:3:39.8130,0.28,-0.09,-0.02
2020-08-12 20:3:39.9120,0.26,-0.0,-0.01
2020-08-12 20:3:40.0110,0.53,0.01,0.03
2020-08-12 20:3:40.1100,-0.15,-0.18,-0.06
2020-08-12 20:3:40.2100,0.09,-0.0,-0.08
2020-08-12 20:3:40.3090,0.0,0.0,-0.09
2020-08-12 20:3:40.4080,0.04,-0.01,0.0
2020-08-12 20:3:40.5080,-0.04,0.01,0.03
2020-08-12 20:3:40.6070,0.0,-0.01,-0.02
2020-08-12 20:3:40.7060,0.0,0.02,0.01
2020-08-12 20:3:40.8050,-0.05,0.01,0.02
2020-08-12 20:3:40.9050,0.02,-0.04,-0.01
2020-08-12 20:3:41.0040,-0.12,-0.32,-0.01
2020-08-12 20:3:41.1030,-0.3,-0.32,0.14
2020-08-12 20:3:41.2020,-0.29,0.36,-0.18
2020-08-12 20:3:41.3020,-0.47,0.08,0.06
2020-08-12 20:3:41.4010,-0.19,0.0,0.01
2020-08-12 20:3:41.5000,-0.17,-0.07,0.04
2020-08-12 20:3:41.5990,0.03,-0.15,0.0
2020-08-12 20:3:41.6990,0.26,-0.13,0.07
2020-08-12 20:3:41.7980,0.39,-0.06,0.06
2020-08-12 20:3:41.8970,0.5,-0.01,0.02
2020-08-12 20:3:41.9960,0.52,0.05,-0.03
2020-08-12 20:3:42.0960,0.39,-0.32,-0.06
2020-08-12 20:3:42.1950,0.14,-0.04,0.03
2020-08-12 20:3:42.2940,-0.05,-0.0,0.04
2020-08-12 20:3:42.3930,-0.03,0.0,-0.02
2020-08-12 20:3:42.4930,-0.01,-0.01,-0.02
2020-08-12 20:3:42.5920,-0.03,-0.01,0.02
2020-08-12 20:3:42.6910,-0.06,-0.04,0.05
2020-08-12 20:3:42.7900,-0.08,-0.11,-0.07
2020-08-12 20:3:42.8900,-0.11,-0.3,0.05
2020-08-12 20:3:42.9890,-0.27,-0.28,0.36
2020-08-12 20:3:43.0880,-0.73,0.33,0.06
2020-08-12 20:3:43.1870,-0.26,0.03,-0.01
2020-08-12 20:3:43.2870,-0.32,-0.01,-0.01
2020-08-12 20:3:43.3860,-0.03,-0.12,-0.03
2020-08-12 20:3:43.4850,0.15,-0.07,-0.03
2020-08-12 20:3:43.5840,0.2,-0.09,0.01
2020-08-12 20:3:43.6840,0.38,-0.07,0.06
2020-08-12 20:3:43.7830,0.58,0.03,0.03
2020-08-12 20:3:43.8820,0.55,0.03,-0.06
2020-08-12 20:3:43.9810,0.46,-0.21,-0.27
2020-08-12 20:3:44.0810,0.11,-0.01,-0.01
2020-08-12 20:3:44.1800,0.06,-0.0,0.07
2020-08-12 20:3:44.2790,0.0,0.02,0.01
2020-08-12 20:3:44.3780,-0.03,0.02,0.01
2020-08-12 20:3:44.4780,-0.03,-0.01,0.05
2020-08-12 20:3:44.5770,-0.11,-0.0,0.04
2020-08-12 20:3:44.6760,-0.02,-0.15,-0.06
2020-08-12 20:3:44.7750,-0.2,-0.55,0.22
2020-08-12 20:3:44.8750,-0.11,-0.14,0.51
2020-08-12 20:3:44.9740,-0.72,0.38,0.12
2020-08-12 20:3:45.0730,-0.19,0.04,0.04
2020-08-12 20:3:45.1730,0.03,-0.0,-0.08
2020-08-12 20:3:45.2720,-0.13,-0.08,-0.02
2020-08-12 20:3:45.3710,-0.03,-0.11,-0.01
2020-08-12 20:3:45.4700,0.19,-0.09,0.06
2020-08-12 20:3:45.5690,0.36,-0.04,0.03
2020-08-12 20:3:45.6690,0.42,0.03,0.02
2020-08-12 20:3:45.7680,0.47,-0.01,0.04
2020-08-12 20:3:45.8670,0.16,-0.27,0.03
2020-08-12 20:3:45.9670,0.08,0.02,0.17
2020-08-12 20:3:46.0660,-0.12,0.04,0.09
2020-08-12 20:3:46.1650,0.02,-0.01,-0.01
2020-08-12 20:3:46.2640,0.04,0.03,0.02
2020-08-12 20:3:46.3640,0.0,0.04,0.03
2020-08-12 20:3:46.4630,-0.09,0.05,0.01
2020-08-12 20:3:46.5620,-0.01,-0.09,-0.02
2020-08-12 20:3:46.6610,-0.2,-0.27,0.04
2020-08-12 20:3:46.7600,-0.48,-0.47,0.17
2020-08-12 20:3:46.8600,-0.66,0.42,-0.25
2020-08-12 20:3:46.9590,-0.42,0.15,-0.0
2020-08-12 20:3:47.0580,-0.24,0.03,0.08
2020-08-12 20:3:47.1570,0.26,-0.03,-0.02
2020-08-12 20:3:47.2570,0.03,-0.06,-0.02
2020-08-12 20:3:47.3560,0.02,-0.09,0.1
2020-08-12 20:3:47.4550,0.24,-0.06,0.0
2020-08-12 20:3:47.5550,0.32,-0.03,0.03
2020-08-12 20:3:47.6540,0.55,0.02,-0.02
2020-08-12 20:3:47.7530,-0.39,-0.21,-0.21
2020-08-12 20:3:47.8530,0.17,-0.04,-0.11
2020-08-12 20:3:47.9520,0.09,-0.07,-0.08
2020-08-12 20:3:48.0510,-0.02,-0.01,0.05
2020-08-12 20:3:48.1500,0.01,0.01,0.03
2020-08-12 20:3:48.2490,-0.01,0.01,0.01
2020-08-12 20:3:48.3490,-0.08,0.02,0.04
2020-08-12 20:3:48.4480,-0.11,-0.05,0.04
2020-08-12 20:3:48.5470,-0.15,-0.13,-0.04
2020-08-12 20:3:48.6460,-0.42,-0.68,0.07
2020-08-12 20:3:48.7450,-0.05,0.04,0.07
2020-08-12 20:3:48.8450,-0.55,0.09,0.11
2020-08-12 20:3:48.9440,-0.01,0.05,0.08
2020-08-12 20:3:49.0430,-0.08,-0.04,-0.06
2020-08-12 20:3:49.1430,-0.0,-0.11,-0.09
2020-08-12 20:3:49.2420,0.1,-0.11,-0.08
2020-08-12 20:3:49.3410,0.13,-0.06,0.02
2020-08-12 20:3:49.4400,0.18,-0.04,0.06
2020-08-12 20:3:49.5400,0.37,-0.01,0.06
2020-08-12 20:3:49.6390,0.57,0.06,0.06
2020-08-12 20:3:49.7380,-0.72,-0.1,0.06
2020-08-12 20:3:49.8380,0.03,-0.0,0.15
2020-08-12 20:3:49.9370,0.08,-0.04,-0.11
2020-08-12 20:3:50.0360,0.02,-0.04,0.0
2020-08-12 20:3:50.1350,0.05,0.02,0.03
2020-08-12 20:3:50.2340,-0.02,0.01,-0.0
2020-08-12 20:3:50.3340,-0.04,-0.02,0.01
2020-08-12 20:3:50.4330,-0.09,-0.04,0.04
2020-08-12 20:3:50.5320,0.03,-0.2,-0.13
2020-08-12 20:3:50.6310,-0.43,-0.61,0.07
2020-08-12 20:3:50.7310,0.13,0.14,-0.02
2020-08-12 20:3:50.8300,-0.34,0.07,0.02
2020-08-12 20:3:50.9290,-0.17,-0.01,-0.0
2020-08-12 20:3:51.0280,-0.09,-0.06,-0.05
2020-08-12 20:3:51.1280,0.01,-0.04,-0.02
2020-08-12 20:3:51.2270,0.17,-0.11,-0.01
2020-08-12 20:3:51.3260,0.16,-0.09,0.01
2020-08-12 20:3:51.4250,0.24,-0.04,-0.0
2020-08-12 20:3:51.5250,0.26,0.01,0.04
2020-08-12 20:3:51.6240,0.44,0.06,0.03
2020-08-12 20:3:51.7230,-0.64,-0.11,-0.12
2020-08-12 20:3:51.8220,0.16,-0.08,0.12
2020-08-12 20:3:51.9220,0.11,-0.03,-0.05
2020-08-12 20:3:52.0210,0.02,-0.0,-0.02
2020-08-12 20:3:52.1200,-0.02,0.01,-0.01
2020-08-12 20:3:52.2190,-0.04,0.0,0.03
2020-08-12 20:3:52.3190,-0.16,0.0,0.03
2020-08-12 20:3:52.4180,-0.08,-0.09,0.01
2020-08-12 20:3:52.5170,-0.13,-0.76,0.04
2020-08-12 20:3:52.6160,0.07,-0.16,0.19
2020-08-12 20:3:52.7160,-0.54,0.27,0.04
2020-08-12 20:3:52.8150,-0.18,0.1,0.07
2020-08-12 20:3:52.9140,-0.15,0.01,0.05
2020-08-12 20:3:53.0130,-0.02,-0.1,-0.05
2020-08-12 20:3:53.1130,0.12,-0.12,-0.01
2020-08-12 20:3:53.2120,0.11,-0.07,0.07
2020-08-12 20:3:53.3110,0.27,-0.06,0.06
2020-08-12 20:3:53.4110,0.44,-0.0,0.05
2020-08-12 20:3:53.5100,0.44,0.02,0.03
2020-08-12 20:3:53.6090,-0.62,-0.12,-0.3
2020-08-12 20:3:53.7080,0.05,0.01,0.13
2020-08-12 20:3:53.8080,-0.08,-0.02,-0.04
2020-08-12 20:3:53.9070,0.01,0.01,-0.01
2020-08-12 20:3:54.0060,0.01,0.0,0.03
2020-08-12 20:3:54.1050,-0.04,0.01,0.03
2020-08-12 20:3:54.2050,-0.06,-0.02,0.0
2020-08-12 20:3:54.3040,0.01,-0.14,0.01
2020-08-12 20:3:54.4030,-0.11,-0.45,0.08
2020-08-12 20:3:54.5020,-0.33,-0.25,0.3
2020-08-12 20:3:54.6020,-0.7,0.54,0.02
2020-08-12 20:3:54.7010,0.04,0.0,-0.06
2020-08-12 20:3:54.8000,-0.17,0.05,-0.0
2020-08-12 20:3:54.8990,-0.05,0.0,-0.03
2020-08-12 20:3:54.9980,-0.01,-0.07,0.02
2020-08-12 20:3:55.0980,-0.04,-0.04,0.02
2020-08-12 20:3:55.1970,0.03,-0.09,-0.03
2020-08-12 20:3:55.2960,0.19,-0.05,0.04
2020-08-12 20:3:55.3960,0.27,-0.02,0.06
2020-08-12 20:3:55.4950,0.42,0.01,-0.02
2020-08-12 20:3:55.5940,0.53,0.11,-0.02
2020-08-12 20:3:55.6930,0.52,-0.3,0.02
2020-08-12 20:3:55.7930,0.06,0.02,-0.04
2020-08-12 20:3:55.8920,0.02,0.03,0.05
2020-08-12 20:3:55.9910,-0.04,0.03,0.02
2020-08-12 20:3:56.0900,-0.01,-0.02,-0.0
2020-08-12 20:3:56.1900,0.01,-0.01,0.02
2020-08-12 20:3:56.2890,0.06,0.02,-0.02
2020-08-12 20:3:56.3890,-0.03,0.03,-0.0
2020-08-12 20:3:56.4870,-0.12,-0.18,-0.01
2020-08-12 20:3:56.5870,-0.36,-0.6,0.06
2020-08-12 20:3:56.6860,0.08,-0.12,0.07
2020-08-12 20:3:56.7850,-0.52,0.19,0.06
2020-08-12 20:3:56.8840,-0.15,0.01,0.03
2020-08-12 20:3:56.9840,-0.05,0.04,-0.04
2020-08-12 20:3:57.0830,0.1,-0.01,0.04
2020-08-12 20:3:57.1820,-0.08,-0.04,0.09
2020-08-12 20:3:57.2810,-0.0,-0.05,0.04
2020-08-12 20:3:57.3810,0.14,-0.08,0.0
2020-08-12 20:3:57.4800,0.24,-0.03,0.02
2020-08-12 20:3:57.5790,0.54,0.02,0.04
2020-08-12 20:3:57.6780,0.49,-0.17,-0.07
2020-08-12 20:3:57.7780,0.27,-0.1,-0.17
2020-08-12 20:3:57.8770,0.0,-0.02,-0.04
2020-08-12 20:3:57.9770,0.02,-0.0,0.04
2020-08-12 20:3:58.0750,-0.02,-0.0,0.04
2020-08-12 20:3:58.1750,-0.01,-0.01,-0.01
2020-08-12 20:3:58.2740,-0.02,0.02,0.03
2020-08-12 20:3:58.3730,-0.05,-0.01,-0.0
2020-08-12 20:3:58.4720,-0.03,-0.09,0.02
2020-08-12 20:3:58.5720,-0.15,-0.35,-0.01
2020-08-12 20:3:58.6710,-0.27,-0.19,0.12
2020-08-12 20:3:58.7700,0.06,0.31,-0.05
2020-08-12 20:3:58.8690,-0.46,0.03,0.06
2020-08-12 20:3:58.9690,-0.41,0.06,0.06
2020-08-12 20:3:59.0680,-0.27,-0.08,0.05
2020-08-12 20:3:59.1670,-0.07,-0.15,0.08
2020-08-12 20:3:59.2660,0.18,-0.13,0.06
2020-08-12 20:3:59.3660,0.43,-0.09,0.05
2020-08-12 20:3:59.4650,0.44,-0.01,-0.02
2020-08-12 20:3:59.5640,0.48,0.01,0.01
2020-08-12 20:3:59.6630,-0.46,-0.0,-0.11
2020-08-12 20:3:59.7630,0.29,-0.1,-0.11
2020-08-12 20:3:59.8620,-0.05,0.03,-0.08
2020-08-12 20:3:59.9610,-0.0,0.01,0.01
2020-08-12 20:4:00.0600,-0.0,0.02,0.04
2020-08-12 20:4:00.1600,-0.03,0.01,0.0
2020-08-12 20:4:00.2590,0.08,-0.04,-0.04
2020-08-12 20:4:00.3580,-0.03,-0.01,-0.0
2020-08-12 20:4:00.4570,-0.05,-0.08,0.01
2020-08-12 20:4:00.5570,-0.07,-0.2,-0.05
2020-08-12 20:4:00.6560,-0.29,-0.33,-0.02
2020-08-12 20:4:00.7550,-0.13,0.2,0.04
2020-08-12 20:4:00.8550,-0.55,-0.01,0.14
2020-08-12 20:4:00.9540,-0.09,-0.08,0.03
2020-08-12 20:4:01.0530,0.15,-0.04,-0.1
2020-08-12 20:4:01.1520,0.05,-0.07,0.0
2020-08-12 20:4:01.2510,0.12,-0.1,0.04
2020-08-12 20:4:01.3510,0.19,-0.05,0.04
2020-08-12 20:4:01.4500,0.34,-0.03,0.07
2020-08-12 20:4:01.5490,0.44,0.01,0.05
2020-08-12 20:4:01.6490,0.28,0.02,0.03
2020-08-12 20:4:01.7480,-0.17,-0.17,-0.01
2020-08-12 20:4:01.8470,0.09,0.04,-0.06
2020-08-12 20:4:01.9460,0.09,-0.04,-0.07
2020-08-12 20:4:02.0460,0.05,-0.0,0.01
2020-08-12 20:4:02.1450,0.06,-0.0,0.04
2020-08-12 20:4:02.2440,-0.03,0.02,0.03
2020-08-12 20:4:02.3430,0.03,0.01,-0.02
2020-08-12 20:4:02.4430,-0.04,-0.03,-0.01
2020-08-12 20:4:02.5420,-0.11,-0.13,0.02
2020-08-12 20:4:02.6410,-0.26,-0.59,0.06
2020-08-12 20:4:02.7400,-0.26,-0.09,0.16
2020-08-12 20:4:02.8400,-0.88,0.27,0.1
2020-08-12 20:4:02.9390,-0.3,0.01,0.06
2020-08-12 20:4:03.0380,-0.17,-0.06,0.02
2020-08-12 20:4:03.1370,0.0,-0.13,-0.04
2020-08-12 20:4:03.2360,0.18,-0.11,0.08
2020-08-12 20:4:03.3360,0.35,-0.05,0.11
2020-08-12 20:4:03.4350,0.29,-0.0,0.04
2020-08-12 20:4:03.5340,0.45,0.01,0.03
2020-08-12 20:4:03.6340,0.44,-0.02,0.04
2020-08-12 20:4:03.7330,0.41,-0.17,-0.09
2020-08-12 20:4:03.8320,-0.12,0.03,0.03
2020-08-12 20:4:03.9310,-0.01,0.01,0.04
2020-08-12 20:4:04.0310,0.0,0.01,0.03
2020-08-12 20:4:04.1300,0.03,0.02,-0.0
2020-08-12 20:4:04.2290,-0.02,-0.01,0.03
2020-08-12 20:4:04.3280,-0.0,-0.01,0.01
2020-08-12 20:4:04.4280,0.02,-0.01,-0.01
2020-08-12 20:4:04.5270,-0.03,-0.07,-0.03
2020-08-12 20:4:04.6260,-0.18,-0.36,-0.0
2020-08-12 20:4:04.7250,-0.29,-0.14,0.08
2020-08-12 20:4:04.8250,-0.4,0.22,-0.22
2020-08-12 20:4:04.9240,-0.33,0.01,0.06
2020-08-12 20:4:05.0230,-0.13,0.04,0.06
2020-08-12 20:4:05.1230,-0.1,-0.08,-0.01
2020-08-12 20:4:05.2220,0.08,-0.09,-0.03
2020-08-12 20:4:05.3210,0.18,-0.05,-0.01
2020-08-12 20:4:05.4200,0.02,0.0,0.08
2020-08-12 20:4:05.5190,0.22,-0.06,0.06
2020-08-12 20:4:05.6190,0.25,-0.01,0.03
2020-08-12 20:4:05.7180,0.13,0.03,0.02
2020-08-12 20:4:05.8170,0.16,0.01,0.01
2020-08-12 20:4:05.9160,0.27,-0.01,-0.09
2020-08-12 20:4:06.0160,0.05,-0.28,0.07
2020-08-12 20:4:06.1150,-0.02,0.0,0.09
2020-08-12 20:4:06.2140,-0.02,-0.01,0.07
2020-08-12 20:4:06.3140,-0.02,-0.01,-0.02
2020-08-12 20:4:06.4130,0.0,-0.0,0.0
2020-08-12 20:4:06.5120,0.02,0.01,0.01
2020-08-12 20:4:06.6110,0.02,-0.0,0.0
2020-08-12 20:4:06.7100,0.06,0.01,-0.02
2020-08-12 20:4:06.8100,0.1,-0.08,-0.04
2020-08-12 20:4:06.9090,0.01,-0.22,-0.03
2020-08-12 20:4:07.0080,-0.45,-0.35,0.12
2020-08-12 20:4:07.1080,-0.64,0.35,-0.28
2020-08-12 20:4:07.2070,-0.65,-0.07,0.22
2020-08-12 20:4:07.3060,-0.17,-0.07,0.05
2020-08-12 20:4:07.4050,0.35,-0.11,-0.01
2020-08-12 20:4:07.5040,0.41,-0.08,-0.15
2020-08-12 20:4:07.6040,0.64,-0.01,-0.02
2020-08-12 20:4:07.7030,0.5,0.08,0.07
2020-08-12 20:4:07.8020,0.31,-0.36,-0.04
2020-08-12 20:4:07.9020,0.06,0.0,0.07
2020-08-12 20:4:08.0010,-0.01,0.04,0.02
2020-08-12 20:4:08.1000,-0.04,-0.0,-0.05
2020-08-12 20:4:08.1990,0.02,-0.01,0.02
2020-08-12 20:4:08.2990,-0.12,0.03,0.03
2020-08-12 20:4:08.3980,0.08,-0.02,-0.01
2020-08-12 20:4:08.4970,-0.05,0.03,-0.02
2020-08-12 20:4:08.5960,0.01,0.0,-0.01
2020-08-12 20:4:08.6960,0.04,0.0,0.0
2020-08-12 20:4:08.7950,-0.03,0.02,0.01
2020-08-12 20:4:08.8940,-0.0,0.01,0.0
2020-08-12 20:4:08.9930,0.04,-0.0,-0.03
2020-08-12 20:4:09.0930,-0.06,0.02,0.04
2020-08-12 20:4:09.1920,-0.02,0.01,0.04
2020-08-12 20:4:09.2900,0.07,-0.01,-0.06
2020-08-12 20:4:09.3890,0.05,0.0,-0.02
2020-08-12 20:4:09.4890,0.01,-0.0,-0.0
2020-08-12 20:4:09.5890,0.01,-0.0,0.01
2020-08-12 20:4:09.6880,-0.05,0.01,0.03
2020-08-12 20:4:09.7870,0.02,-0.01,-0.02
2020-08-12 20:4:09.8870,0.01,0.0,0.0
2020-08-12 20:4:09.9860,-0.03,0.01,0.01
2020-08-12 20:4:10.0850,0.02,0.01,-0.02
2020-08-12 20:4:10.1850,-0.03,0.01,0.0
2020-08-12 20:4:10.2840,-0.01,0.0,0.02
2020-08-12 20:4:10.3830,-0.01,0.01,-0.0
2020-08-12 20:4:10.4820,-0.01,-0.02,-0.03
2020-08-12 20:4:10.5810,-0.01,0.0,0.01
2020-08-12 20:4:10.6810,0.01,0.0,-0.01
2020-08-12 20:4:10.7800,0.01,0.0,-0.0
2020-08-12 20:4:10.8800,0.01,-0.01,-0.0
2020-08-12 20:4:10.9790,0.07,0.02,-0.02
