time,ax,ay,az
2020-08-12 19:22:07.0420,-0.04,0.02,0.02
2020-08-12 19:22:07.1410,0.0,0.01,0.0
2020-08-12 19:22:07.2400,0.01,0.0,0.01
2020-08-12 19:22:07.3400,-0.0,0.02,-0.02
2020-08-12 19:22:07.4390,0.05,0.01,-0.02
2020-08-12 19:22:07.5380,-0.0,0.01,-0.0
2020-08-12 19:22:07.6370,-0.01,-0.0,0.02
2020-08-12 19:22:07.7360,-0.04,0.02,-0.02
2020-08-12 19:22:07.8360,0.01,-0.01,-0.01
2020-08-12 19:22:07.9350,0.04,-0.0,0.04
2020-08-12 19:22:08.0340,-0.06,-0.01,0.03
2020-08-12 19:22:08.1340,0.07,0.03,-0.03
2020-08-12 19:22:08.2330,0.02,0.0,0.02
2020-08-12 19:22:08.3320,-0.01,0.0,-0.0
2020-08-12 19:22:08.4320,-0.02,0.01,-0.01
2020-08-12 19:22:08.5310,0.03,0.01,-0.0
2020-08-12 19:22:08.6300,-0.0,0.01,-0.0
2020-08-12 19:22:08.7290,-0.0,-0.0,-0.0
2020-08-12 19:22:08.8290,0.01,0.01,-0.0
2020-08-12 19:22:08.9280,0.01,0.01,-0.0
2020-08-12 19:22:09.0270,-0.01,0.01,0.01
2020-08-12 19:22:09.1260,0.0,-0.02,-0.0
2020-08-12 19:22:09.2260,-0.0,-0.0,-0.0
2020-08-12 19:22:09.3250,-0.01,0.01,-0.01
2020-08-12 19:22:09.4240,0.0,0.01,-0.01
2020-08-12 19:22:09.5230,0.02,0.01,0.0
2020-08-12 19:22:09.6220,-0.0,-0.0,0.0
2020-08-12 19:22:09.7220,-0.01,0.01,-0.0
2020-08-12 19:22:09.8210,-0.02,0.01,-0.01
2020-08-12 19:22:09.9200,-0.01,0.01,-0.0
2020-08-12 19:22:10.0200,0.01,0.01,-0.03
2020-08-12 19:22:10.1190,-0.01,0.01,-0.0
2020-08-12 19:22:10.2180,-0.03,-0.01,0.06
2020-08-12 19:22:10.3170,0.02,0.01,-0.02
2020-08-12 19:22:10.4170,-0.0,0.0,0.0
2020-08-12 19:22:10.5160,-0.03,0.01,0.01
2020-08-12 19:22:10.6150,-0.05,-0.0,0.02
2020-08-12 19:22:10.7140,-0.09,-0.04,0.03
2020-08-12 19:22:10.8140,-0.29,-0.37,-0.02
2020-08-12 19:22:10.9130,-0.24,-0.26,0.18
2020-08-12 19:22:11.0120,-0.79,0.09,0.19
2020-08-12 19:22:11.1120,-0.39,0.05,0.04
2020-08-12 19:22:11.2110,-0.07,-0.16,-0.04
2020-08-12 19:22:11.3100,0.64,-0.38,0.13
2020-08-12 19:22:11.4090,0.77,0.17,0.03
2020-08-12 19:22:11.5080,-0.53,-0.36,-0.46
2020-08-12 19:22:11.6080,0.14,0.14,-0.15
2020-08-12 19:22:11.7070,-0.02,-0.04,-0.12
2020-08-12 19:22:11.8060,0.01,-0.01,-0.01
2020-08-12 19:22:11.9050,-0.0,0.01,0.06
2020-08-12 19:22:12.0050,0.01,0.0,0.04
2020-08-12 19:22:12.1060,-0.02,0.02,0.06
2020-08-12 19:22:12.2040,-0.08,-0.12,-0.02
2020-08-12 19:22:12.3030,-0.22,-0.27,0.1
2020-08-12 19:22:12.4020,-0.44,-0.43,0.02
2020-08-12 19:22:12.5010,-0.43,-0.04,0.25
2020-08-12 19:22:12.6000,-0.82,0.1,0.15
2020-08-12 19:22:12.6990,0.06,-0.19,0.01
2020-08-12 19:22:12.7990,0.06,-0.31,0.12
2020-08-12 19:22:12.8980,0.87,-0.16,0.22
2020-08-12 19:22:12.9970,0.68,0.16,0.01
2020-08-12 19:22:13.0970,-0.9,-0.12,-0.29
2020-08-12 19:22:13.1960,0.2,-0.04,-0.04
2020-08-12 19:22:13.2950,-0.15,0.01,0.13
2020-08-12 19:22:13.3940,0.02,0.01,-0.01
2020-08-12 19:22:13.4940,0.0,-0.01,-0.04
2020-08-12 19:22:13.5930,0.06,-0.0,0.02
2020-08-12 19:22:13.6920,-0.02,-0.03,0.01
2020-08-12 19:22:13.7920,-0.09,-0.02,0.01
2020-08-12 19:22:13.8910,-0.17,-0.21,0.01
2020-08-12 19:22:13.9900,-0.36,-0.41,0.0
2020-08-12 19:22:14.0890,-0.52,-0.43,0.26
2020-08-12 19:22:14.1880,-0.74,0.11,-0.1
2020-08-12 19:22:14.2880,-0.46,-0.05,-0.07
2020-08-12 19:22:14.3870,0.12,-0.29,0.04
2020-08-12 19:22:14.4860,0.93,-0.48,0.02
2020-08-12 19:22:14.5860,0.77,0.2,0.16
2020-08-12 19:22:14.6850,-0.82,-0.04,-0.18
2020-08-12 19:22:14.7840,0.16,-0.06,-0.1
2020-08-12 19:22:14.8830,-0.06,-0.03,0.03
2020-08-12 19:22:14.9830,0.05,-0.0,0.02
2020-08-12 19:22:15.0820,0.07,0.02,-0.01
2020-08-12 19:22:15.1810,-0.03,0.01,0.04
2020-08-12 19:22:15.2800,0.04,0.0,-0.02
2020-08-12 19:22:15.3800,-0.06,0.02,0.03
2020-08-12 19:22:15.4790,-0.33,-0.4,0.07
2020-08-12 19:22:15.5780,-0.54,-0.45,0.09
2020-08-12 19:22:15.6770,-0.57,-0.27,0.19
2020-08-12 19:22:15.7770,-0.65,0.07,-0.09
2020-08-12 19:22:15.8760,-0.21,-0.03,-0.0
2020-08-12 19:22:15.9750,0.2,-0.44,0.12
2020-08-12 19:22:16.0740,0.89,-0.23,0.16
2020-08-12 19:22:16.1740,0.65,0.09,0.09
2020-08-12 19:22:16.2730,-1.17,-0.46,-1.09
2020-08-12 19:22:16.3720,0.32,0.09,-0.18
2020-08-12 19:22:16.4710,0.03,-0.03,-0.08
2020-08-12 19:22:16.5710,0.04,-0.01,0.07
2020-08-12 19:22:16.6700,0.05,0.01,0.02
2020-08-12 19:22:16.7690,-0.0,0.03,-0.01
2020-08-12 19:22:16.8680,-0.03,0.02,0.04
2020-08-12 19:22:16.9680,-0.14,-0.03,0.02
2020-08-12 19:22:17.0670,-0.19,-0.33,0.02
2020-08-12 19:22:17.1660,-0.35,-0.36,-0.0
2020-08-12 19:22:17.2650,-0.63,-0.43,0.18
2020-08-12 19:22:17.3650,-0.72,0.01,-0.13
2020-08-12 19:22:17.4640,-0.41,-0.05,-0.02
2020-08-12 19:22:17.5630,0.06,-0.21,0.14
2020-08-12 19:22:17.6620,0.96,-0.4,0.22
2020-08-12 19:22:17.7620,0.99,0.16,0.17
2020-08-12 19:22:17.8610,-0.36,0.08,0.44
2020-08-12 19:22:17.9600,0.13,0.04,0.15
2020-08-12 19:22:18.0600,-0.03,0.02,0.15
2020-08-12 19:22:18.1590,0.0,0.01,-0.01
2020-08-12 19:22:18.2580,-0.03,0.01,0.04
2020-08-12 19:22:18.3570,0.0,0.01,0.02
2020-08-12 19:22:18.4570,-0.14,-0.05,0.02
2020-08-12 19:22:18.5560,-0.22,-0.27,-0.03
2020-08-12 19:22:18.6550,-0.49,-0.54,0.18
2020-08-12 19:22:18.7550,-0.49,-0.37,0.2
2020-08-12 19:22:18.8540,-0.86,0.15,0.03
2020-08-12 19:22:18.9530,-0.36,0.0,-0.01
2020-08-12 19:22:19.0520,0.06,-0.23,0.0
2020-08-12 19:22:19.1510,0.86,-0.49,0.19
2020-08-12 19:22:19.2510,0.88,0.13,0.09
2020-08-12 19:22:19.3500,-0.92,-0.1,-0.2
2020-08-12 19:22:19.4490,0.35,-0.14,-0.1
2020-08-12 19:22:19.5490,-0.06,-0.01,0.04
2020-08-12 19:22:19.6470,0.01,-0.0,0.06
2020-08-12 19:22:19.7470,0.04,0.02,0.04
2020-08-12 19:22:19.8460,-0.07,0.0,0.08
2020-08-12 19:22:19.9460,-0.05,0.02,0.05
2020-08-12 19:22:20.0450,-0.07,0.0,0.06
2020-08-12 19:22:20.1440,-0.34,-0.31,0.04
2020-08-12 19:22:20.2430,-0.45,-0.29,0.02
2020-08-12 19:22:20.3430,-0.48,-0.5,0.13
2020-08-12 19:22:20.4410,-0.85,0.0,-0.07
2020-08-12 19:22:20.5420,-0.52,-0.01,0.05
2020-08-12 19:22:20.6400,0.13,-0.43,0.22
2020-08-12 19:22:20.7400,1.27,-0.28,0.39
2020-08-12 19:22:20.8390,0.99,0.09,0.25
2020-08-12 19:22:20.9380,0.65,-0.27,0.5
2020-08-12 19:22:21.0370,0.19,0.02,0.01
2020-08-12 19:22:21.1370,0.03,0.03,0.09
2020-08-12 19:22:21.2360,0.02,0.03,0.08
2020-08-12 19:22:21.3350,0.01,-0.0,-0.02
2020-08-12 19:22:21.4340,0.02,-0.03,0.03
2020-08-12 19:22:21.5340,-0.09,0.0,0.04
2020-08-12 19:22:21.6330,-0.22,-0.35,0.01
2020-08-12 19:22:21.7320,-0.45,-0.36,0.04
2020-08-12 19:22:21.8310,-0.44,-0.54,0.12
2020-08-12 19:22:21.9310,-0.37,-0.0,0.14
2020-08-12 19:22:22.0300,-0.51,0.17,-0.08
2020-08-12 19:22:22.1290,-0.14,-0.07,-0.19
2020-08-12 19:22:22.2280,0.63,-0.58,0.17
2020-08-12 19:22:22.3280,0.96,0.06,0.27
2020-08-12 19:22:22.4270,-0.78,-0.54,-1.1
2020-08-12 19:22:22.5260,0.13,0.07,-0.06
2020-08-12 19:22:22.6250,-0.04,-0.02,0.05
2020-08-12 19:22:22.7250,0.15,-0.0,0.02
2020-08-12 19:22:22.8240,0.03,0.01,0.05
2020-08-12 19:22:22.9230,-0.04,0.02,-0.0
2020-08-12 19:22:23.0220,-0.03,-0.01,-0.05
2020-08-12 19:22:23.1210,-0.1,0.01,0.03
2020-08-12 19:22:23.2210,-0.23,-0.32,0.07
2020-08-12 19:22:23.3200,-0.48,-0.53,0.06
2020-08-12 19:22:23.4200,-0.39,-0.46,0.4
2020-08-12 19:22:23.5190,-0.67,-0.01,-0.0
2020-08-12 19:22:23.6180,-0.56,0.05,0.05
2020-08-12 19:22:23.7170,0.23,-0.29,-0.01
2020-08-12 19:22:23.8170,0.7,-0.56,0.3
2020-08-12 19:22:23.9160,0.86,0.24,0.27
2020-08-12 19:22:24.0150,0.02,-0.13,0.39
2020-08-12 19:22:24.1140,0.21,0.04,0.09
2020-08-12 19:22:24.2140,-0.08,0.01,0.02
2020-08-12 19:22:24.3130,0.06,-0.01,-0.08
2020-08-12 19:22:24.4120,-0.03,0.03,0.05
2020-08-12 19:22:24.5110,0.06,0.02,0.02
2020-08-12 19:22:24.6110,0.0,-0.0,0.02
2020-08-12 19:22:24.7100,-0.17,-0.02,-0.01
2020-08-12 19:22:24.8090,-0.38,-0.44,-0.0
2020-08-12 19:22:24.9080,-0.28,-0.49,0.02
2020-08-12 19:22:25.0080,-0.57,0.12,0.1
2020-08-12 19:22:25.1070,-0.54,0.06,0.13
2020-08-12 19:22:25.2060,0.01,-0.17,0.05
2020-08-12 19:22:25.3050,0.43,-0.46,0.06
2020-08-12 19:22:25.4050,0.96,0.14,0.22
2020-08-12 19:22:25.5040,0.6,0.03,-0.02
2020-08-12 19:22:25.6030,0.89,-1.12,0.7
2020-08-12 19:22:25.7020,0.09,-0.0,0.11
2020-08-12 19:22:25.8020,0.0,0.01,0.09
2020-08-12 19:22:25.9010,0.03,0.01,0.04
2020-08-12 19:22:26.0000,-0.02,0.01,-0.0
2020-08-12 19:22:26.1000,0.04,0.09,-0.01
2020-08-12 19:22:26.1990,-0.09,0.0,0.02
2020-08-12 19:22:26.2980,-0.21,-0.23,0.05
2020-08-12 19:22:26.3970,-0.43,-0.51,0.21
2020-08-12 19:22:26.4960,-0.27,-0.24,0.21
2020-08-12 19:22:26.5960,-0.79,0.23,-0.07
2020-08-12 19:22:26.6950,-0.18,-0.06,0.01
2020-08-12 19:22:26.7940,0.1,-0.17,0.14
2020-08-12 19:22:26.8940,0.6,-0.44,0.21
2020-08-12 19:22:26.9930,0.75,0.11,0.08
2020-08-12 19:22:27.0920,0.5,0.0,0.05
2020-08-12 19:22:27.1910,0.61,-0.93,0.54
2020-08-12 19:22:27.2900,0.23,-0.04,0.03
2020-08-12 19:22:27.3900,0.0,0.04,0.08
2020-08-12 19:22:27.4890,0.01,0.01,-0.01
2020-08-12 19:22:27.5880,0.06,0.01,-0.01
2020-08-12 19:22:27.6870,0.01,0.01,0.04
2020-08-12 19:22:27.7870,0.01,0.0,0.01
2020-08-12 19:22:27.8860,-0.1,-0.0,0.04
2020-08-12 19:22:27.9850,-0.25,-0.28,-0.02
2020-08-12 19:22:28.0850,-0.53,-0.38,0.07
2020-08-12 19:22:28.1840,-0.5,-0.44,0.18
2020-08-12 19:22:28.2830,-0.91,0.01,-0.22
2020-08-12 19:22:28.3820,-0.31,-0.05,-0.0
2020-08-12 19:22:28.4820,-0.05,-0.13,0.1
2020-08-12 19:22:28.5810,0.93,-0.47,0.27
2020-08-12 19:22:28.6800,1.0,0.14,0.22
2020-08-12 19:22:28.7790,-0.11,-0.03,0.49
2020-08-12 19:22:28.8790,0.19,0.05,-0.03
2020-08-12 19:22:28.9780,-0.05,0.01,0.08
2020-08-12 19:22:29.0770,-0.0,0.01,0.04
2020-08-12 19:22:29.1760,0.05,0.01,-0.01
2020-08-12 19:22:29.2760,0.06,-0.01,-0.01
2020-08-12 19:22:29.3750,-0.13,-0.05,0.05
2020-08-12 19:22:29.4740,-0.09,-0.02,-0.03
2020-08-12 19:22:29.5730,-0.28,-0.39,-0.04
2020-08-12 19:22:29.6730,-0.5,-0.43,-0.0
2020-08-12 19:22:29.7720,-0.66,-0.22,0.25
2020-08-12 19:22:29.8710,-0.71,0.13,-0.04
2020-08-12 19:22:29.9700,-0.37,-0.07,-0.12
2020-08-12 19:22:30.0690,0.21,-0.55,0.08
2020-08-12 19:22:30.1690,1.23,0.1,0.35
2020-08-12 19:22:30.2690,0.17,-0.58,-0.05
2020-08-12 19:22:30.3680,0.32,-0.43,0.17
2020-08-12 19:22:30.4670,0.05,-0.01,0.02
2020-08-12 19:22:30.5660,0.0,0.0,0.06
2020-08-12 19:22:30.6650,0.09,-0.02,-0.03
2020-08-12 19:22:30.7650,0.01,0.02,-0.02
2020-08-12 19:22:30.8640,-0.03,0.01,-0.01
2020-08-12 19:22:30.9630,-0.07,0.02,0.02
2020-08-12 19:22:31.0620,-0.11,-0.0,0.0
2020-08-12 19:22:31.1610,-0.08,-0.06,0.09
2020-08-12 19:22:31.2610,-0.45,-0.58,-0.03
2020-08-12 19:22:31.3600,-0.14,-0.14,0.25
2020-08-12 19:22:31.4590,-0.65,0.24,-0.11
2020-08-12 19:22:31.5590,-0.12,-0.09,-0.03
2020-08-12 19:22:31.6580,-0.07,-0.09,0.16
2020-08-12 19:22:31.7570,0.6,-0.48,0.2
2020-08-12 19:22:31.8560,0.82,0.11,0.21
2020-08-12 19:22:31.9560,0.12,-0.4,-0.52
2020-08-12 19:22:32.0550,0.42,-0.18,-0.04
2020-08-12 19:22:32.1540,0.04,-0.01,-0.01
2020-08-12 19:22:32.2530,0.09,0.01,0.1
2020-08-12 19:22:32.3530,0.02,0.01,0.04
2020-08-12 19:22:32.4520,0.01,0.02,0.05
2020-08-12 19:22:32.5510,0.04,-0.0,-0.02
2020-08-12 19:22:32.6500,-0.07,0.06,-0.01
2020-08-12 19:22:32.7500,-0.17,-0.01,0.13
2020-08-12 19:22:32.8490,-0.22,-0.46,-0.07
2020-08-12 19:22:32.9480,-0.4,-0.45,0.1
2020-08-12 19:22:33.0480,-0.17,0.27,0.35
2020-08-12 19:22:33.1470,-0.52,0.04,-0.07
2020-08-12 19:22:33.2460,-0.05,-0.23,-0.01
2020-08-12 19:22:33.3450,0.43,-0.47,0.16
2020-08-12 19:22:33.4450,0.99,0.11,0.19
2020-08-12 19:22:33.5440,0.52,0.01,0.11
2020-08-12 19:22:33.6430,0.71,-0.62,0.28
2020-08-12 19:22:33.7420,0.22,-0.03,0.07
2020-08-12 19:22:33.8410,-0.03,0.01,0.1
2020-08-12 19:22:33.9410,0.0,0.01,0.03
2020-08-12 19:22:34.0400,-0.08,-0.04,0.05
2020-08-12 19:22:34.1400,0.04,0.05,0.03
2020-08-12 19:22:34.2390,0.0,0.04,-0.06
2020-08-12 19:22:34.3380,-0.1,-0.01,0.04
2020-08-12 19:22:34.4370,-0.23,-0.36,0.01
2020-08-12 19:22:34.5360,-0.3,-0.38,0.16
2020-08-12 19:22:34.6360,-0.39,-0.01,0.2
2020-08-12 19:22:34.7350,-0.62,0.21,-0.02
2020-08-12 19:22:34.8340,-0.18,-0.15,-0.06
2020-08-12 19:22:34.9340,0.42,-0.5,0.07
2020-08-12 19:22:35.0330,0.88,0.16,0.22
2020-08-12 19:22:35.1320,0.43,0.07,0.11
2020-08-12 19:22:35.2310,0.59,-0.4,0.38
2020-08-12 19:22:35.3300,0.29,0.0,0.11
2020-08-12 19:22:35.4300,-0.03,0.02,0.07
2020-08-12 19:22:35.5290,0.04,0.0,-0.0
2020-08-12 19:22:35.6280,0.0,0.02,0.06
2020-08-12 19:22:35.7270,0.01,0.08,-0.01
2020-08-12 19:22:35.8270,-0.1,-0.03,0.04
2020-08-12 19:22:35.9260,-0.31,-0.02,0.11
2020-08-12 19:22:36.0250,-0.28,-0.55,-0.04
2020-08-12 19:22:36.1250,-0.38,-0.49,0.11
2020-08-12 19:22:36.2240,-0.56,0.01,0.1
2020-08-12 19:22:36.3230,-0.65,0.08,0.09
2020-08-12 19:22:36.4220,0.07,-0.35,0.04
2020-08-12 19:22:36.5210,0.6,-0.43,0.15
2020-08-12 19:22:36.6210,0.76,0.06,0.07
2020-08-12 19:22:36.7200,0.61,-0.0,0.21
2020-08-12 19:22:36.8190,0.57,-0.47,0.17
2020-08-12 19:22:36.9190,0.39,-0.02,0.0
2020-08-12 19:22:37.0180,-0.08,0.03,0.09
2020-08-12 19:22:37.1170,-0.04,0.03,0.08
2020-08-12 19:22:37.2170,0.05,0.03,-0.04
2020-08-12 19:22:37.3160,-0.03,0.02,0.02
2020-08-12 19:22:37.4150,-0.09,-0.05,0.05
2020-08-12 19:22:37.5140,-0.04,-0.1,0.1
2020-08-12 19:22:37.6130,-0.44,-0.52,0.01
2020-08-12 19:22:37.7120,-0.29,-0.33,0.25
2020-08-12 19:22:37.8120,-0.6,-0.05,-0.09
2020-08-12 19:22:37.9110,-0.66,0.05,0.1
2020-08-12 19:22:38.0100,0.14,-0.22,0.13
2020-08-12 19:22:38.1100,0.88,-0.54,0.14
2020-08-12 19:22:38.2090,0.87,0.21,0.16
2020-08-12 19:22:38.3080,-1.08,-0.34,-0.76
2020-08-12 19:22:38.4070,0.25,-0.04,0.14
2020-08-12 19:22:38.5070,0.0,-0.03,0.07
2020-08-12 19:22:38.6060,0.04,-0.02,0.06
2020-08-12 19:22:38.7050,-0.05,0.04,-0.02
2020-08-12 19:22:38.8050,-0.01,-0.01,0.03
2020-08-12 19:22:38.9040,-0.09,-0.01,0.08
2020-08-12 19:22:39.0030,-0.1,0.01,-0.01
2020-08-12 19:22:39.1020,-0.07,-0.04,-0.02
2020-08-12 19:22:39.2010,-0.39,-0.19,-0.01
2020-08-12 19:22:39.3010,-0.51,-0.65,0.03
2020-08-12 19:22:39.4000,-0.38,0.21,0.28
2020-08-12 19:22:39.4990,-0.62,0.06,-0.13
2020-08-12 19:22:39.5990,-0.09,-0.16,0.1
2020-08-12 19:22:39.6980,0.58,-0.49,0.11
2020-08-12 19:22:39.7970,1.05,0.07,0.24
2020-08-12 19:22:39.8960,0.73,-0.06,0.03
2020-08-12 19:22:39.9950,0.46,-0.5,0.32
2020-08-12 19:22:40.0950,0.23,-0.03,-0.04
2020-08-12 19:22:40.1940,-0.04,0.02,0.08
2020-08-12 19:22:40.2930,-0.01,0.01,-0.0
2020-08-12 19:22:40.3930,0.0,0.01,-0.0
2020-08-12 19:22:40.4920,0.01,0.06,0.02
2020-08-12 19:22:40.5910,0.03,0.07,-0.0
2020-08-12 19:22:40.6900,-0.07,-0.04,-0.0
2020-08-12 19:22:40.7900,-0.23,-0.16,0.03
2020-08-12 19:22:40.8890,-0.37,-0.43,0.04
2020-08-12 19:22:40.9880,-0.67,-0.23,0.28
2020-08-12 19:22:41.0870,-0.7,0.18,0.07
2020-08-12 19:22:41.1870,-0.33,-0.06,-0.05
2020-08-12 19:22:41.2860,0.26,-0.35,0.06
2020-08-12 19:22:41.3850,0.83,-0.3,0.2
2020-08-12 19:22:41.4840,0.71,0.11,0.15
2020-08-12 19:22:41.5840,0.01,0.07,0.36
2020-08-12 19:22:41.6830,0.17,0.07,-0.0
2020-08-12 19:22:41.7820,-0.03,0.03,0.06
2020-08-12 19:22:41.8820,-0.01,0.0,-0.01
2020-08-12 19:22:41.9810,0.01,0.05,0.0
2020-08-12 19:22:42.0800,0.07,-0.15,0.03
2020-08-12 19:22:42.1790,-0.07,-0.04,0.05
2020-08-12 19:22:42.2780,-0.14,-0.0,0.03
2020-08-12 19:22:42.3780,-0.25,-0.33,0.02
2020-08-12 19:22:42.4770,-0.27,-0.52,-0.12
2020-08-12 19:22:42.5760,-0.55,0.08,0.3
2020-08-12 19:22:42.6760,-0.54,0.15,0.18
2020-08-12 19:22:42.7750,-0.09,-0.03,-0.04
2020-08-12 19:22:42.8740,0.11,-0.34,0.05
2020-08-12 19:22:42.9730,0.63,-0.22,0.38
2020-08-12 19:22:43.0720,0.89,0.18,0.15
2020-08-12 19:22:43.1720,-0.39,-0.05,0.49
2020-08-12 19:22:43.2710,0.43,0.19,-0.04
2020-08-12 19:22:43.3700,-0.08,0.04,0.05
2020-08-12 19:22:43.4700,0.04,0.0,-0.05
2020-08-12 19:22:43.5690,0.02,-0.0,0.03
2020-08-12 19:22:43.6680,-0.02,0.03,0.01
2020-08-12 19:22:43.7680,-0.09,0.01,-0.02
2020-08-12 19:22:43.8670,-0.05,-0.06,0.01
2020-08-12 19:22:43.9660,-0.2,-0.25,0.03
2020-08-12 19:22:44.0650,-0.38,-0.52,-0.02
2020-08-12 19:22:44.1640,-0.53,-0.0,-0.02
2020-08-12 19:22:44.2640,-0.47,0.1,0.02
2020-08-12 19:22:44.3630,0.02,-0.18,-0.1
2020-08-12 19:22:44.4620,0.2,-0.19,0.07
2020-08-12 19:22:44.5610,0.84,-0.4,0.28
2020-08-12 19:22:44.6610,0.93,0.19,0.15
2020-08-12 19:22:44.7600,0.03,0.26,0.74
2020-08-12 19:22:44.8590,0.32,0.06,-0.03
2020-08-12 19:22:44.9580,-0.07,0.03,0.09
2020-08-12 19:22:45.0580,-0.04,0.01,-0.03
2020-08-12 19:22:45.1570,-0.02,0.04,0.0
2020-08-12 19:22:45.2560,0.07,0.0,0.02
2020-08-12 19:22:45.3550,-0.08,-0.0,0.04
2020-08-12 19:22:45.4550,-0.1,-0.03,0.01
2020-08-12 19:22:45.5540,-0.2,-0.28,-0.02
2020-08-12 19:22:45.6530,-0.43,-0.43,0.07
2020-08-12 19:22:45.7530,-0.46,-0.2,0.3
2020-08-12 19:22:45.8520,-0.68,0.11,-0.03
2020-08-12 19:22:45.9510,-0.38,-0.17,-0.11
2020-08-12 19:22:46.0500,0.21,-0.47,0.07
2020-08-12 19:22:46.1500,1.02,-0.16,0.29
2020-08-12 19:22:46.2490,0.89,0.14,0.19
2020-08-12 19:22:46.3480,0.27,-0.36,0.35
2020-08-12 19:22:46.4470,0.22,-0.03,-0.04
2020-08-12 19:22:46.5470,-0.04,0.01,0.11
2020-08-12 19:22:46.6460,0.03,0.01,0.05
2020-08-12 19:22:46.7450,0.0,0.02,0.02
2020-08-12 19:22:46.8440,0.01,-0.0,-0.0
2020-08-12 19:22:46.9440,-0.12,-0.05,0.02
2020-08-12 19:22:47.0430,-0.17,-0.18,0.04
2020-08-12 19:22:47.1420,-0.53,-0.41,0.05
2020-08-12 19:22:47.2410,-0.47,-0.39,0.42
2020-08-12 19:22:47.3410,-0.79,0.11,-0.16
2020-08-12 19:22:47.4400,-0.26,-0.05,-0.1
2020-08-12 19:22:47.5390,0.05,-0.18,-0.01
2020-08-12 19:22:47.6390,0.57,-0.62,0.12
2020-08-12 19:22:47.7380,1.03,0.15,0.21
2020-08-12 19:22:47.8370,-0.6,-0.46,-0.62
2020-08-12 19:22:47.9360,0.24,0.03,-0.01
2020-08-12 19:22:48.0360,-0.07,0.01,0.01
2020-08-12 19:22:48.1350,0.01,0.01,-0.03
2020-08-12 19:22:48.2340,0.08,-0.06,-0.03
2020-08-12 19:22:48.3330,0.05,0.01,0.01
2020-08-12 19:22:48.4330,-0.1,0.0,0.01
2020-08-12 19:22:48.5320,-0.09,-0.13,-0.09
2020-08-12 19:22:48.6310,-0.45,-0.37,0.09
2020-08-12 19:22:48.7300,-0.2,-0.49,0.25
2020-08-12 19:22:48.8300,-0.42,-0.13,-0.01
2020-08-12 19:22:48.9290,-0.62,0.06,0.02
2020-08-12 19:22:49.0280,0.04,-0.22,0.05
2020-08-12 19:22:49.1270,0.64,-0.57,0.32
2020-08-12 19:22:49.2270,0.92,0.12,0.24
2020-08-12 19:22:49.3260,0.5,-0.05,0.01
2020-08-12 19:22:49.4250,0.44,-0.72,0.23
2020-08-12 19:22:49.5240,0.09,-0.02,0.04
2020-08-12 19:22:49.6240,0.06,0.0,0.06
2020-08-12 19:22:49.7230,-0.03,0.01,0.07
2020-08-12 19:22:49.8220,-0.07,0.1,0.07
2020-08-12 19:22:49.9210,0.02,0.01,0.0
2020-08-12 19:22:50.0210,-0.11,-0.06,0.05
2020-08-12 19:22:50.1200,-0.14,-0.07,0.1
2020-08-12 19:22:50.2190,-0.42,-0.37,0.04
2020-08-12 19:22:50.3180,-0.25,-0.59,0.18
2020-08-12 19:22:50.4180,-0.72,-0.01,-0.15
2020-08-12 19:22:50.5170,-0.43,-0.1,0.0
2020-08-12 19:22:50.6160,0.04,-0.22,-0.03
2020-08-12 19:22:50.7160,0.96,-0.76,0.24
2020-08-12 19:22:50.8150,1.04,0.31,0.19
2020-08-12 19:22:50.9140,-0.29,-0.1,0.45
2020-08-12 19:22:51.0130,0.31,0.08,0.08
2020-08-12 19:22:51.1120,-0.04,0.02,0.06
2020-08-12 19:22:51.2120,0.07,-0.0,-0.0
2020-08-12 19:22:51.3110,-0.01,0.05,0.04
2020-08-12 19:22:51.4110,-0.02,0.02,-0.02
2020-08-12 19:22:51.5100,-0.03,-0.02,0.02
2020-08-12 19:22:51.6090,-0.2,-0.25,0.01
2020-08-12 19:22:51.7080,-0.39,-0.31,0.08
2020-08-12 19:22:51.8070,-0.18,-0.45,0.3
2020-08-12 19:22:51.9070,-0.85,0.01,-0.05
2020-08-12 19:22:52.0060,-0.47,-0.05,0.02
2020-08-12 19:22:52.1050,0.03,-0.26,0.14
2020-08-12 19:22:52.2050,0.92,-0.65,0.27
2020-08-12 19:22:52.3040,1.02,0.16,0.19
2020-08-12 19:22:52.4030,-1.64,-0.41,-1.19
2020-08-12 19:22:52.5020,0.22,-0.0,-0.29
2020-08-12 19:22:52.6010,-0.09,0.0,0.04
2020-08-12 19:22:52.7010,0.04,0.0,-0.01
2020-08-12 19:22:52.8000,-0.01,0.01,0.03
2020-08-12 19:22:52.8990,-0.0,0.01,0.03
2020-08-12 19:22:52.9990,-0.07,-0.05,-0.01
2020-08-12 19:22:53.0980,-0.1,-0.03,0.02
2020-08-12 19:22:53.1970,-0.26,-0.32,-0.02
2020-08-12 19:22:53.2960,-0.43,-0.64,0.05
2020-08-12 19:22:53.3960,-0.49,0.1,0.18
2020-08-12 19:22:53.4950,-0.49,0.15,0.02
2020-08-12 19:22:53.5940,-0.13,-0.01,-0.02
2020-08-12 19:22:53.6930,0.24,-0.41,-0.04
2020-08-12 19:22:53.7930,0.86,0.0,0.28
2020-08-12 19:22:53.8920,0.79,0.11,0.2
2020-08-12 19:22:53.9910,-0.13,0.3,0.46
2020-08-12 19:22:54.0900,0.18,0.12,-0.03
2020-08-12 19:22:54.1890,-0.16,0.01,0.09
2020-08-12 19:22:54.2890,-0.0,0.01,0.04
2020-08-12 19:22:54.3880,0.01,0.02,0.04
2020-08-12 19:22:54.4870,0.01,-0.02,-0.02
2020-08-12 19:22:54.5860,-0.02,-0.0,0.01
2020-08-12 19:22:54.6860,-0.14,-0.04,-0.01
2020-08-12 19:22:54.7850,-0.42,-0.39,0.02
2020-08-12 19:22:54.8840,-0.36,-0.57,0.45
2020-08-12 19:22:54.9840,-0.37,-0.06,0.02
2020-08-12 19:22:55.0830,-0.5,0.11,0.06
2020-08-12 19:22:55.1820,0.06,-0.19,0.01
2020-08-12 19:22:55.2820,0.69,-0.62,0.16
2020-08-12 19:22:55.3810,0.73,0.09,0.13
2020-08-12 19:22:55.4800,0.55,-0.11,0.02
2020-08-12 19:22:55.5790,0.51,-0.68,0.04
2020-08-12 19:22:55.6790,0.09,-0.05,0.04
2020-08-12 19:22:55.7780,0.09,-0.03,0.05
2020-08-12 19:22:55.8770,0.02,-0.01,0.02
2020-08-12 19:22:55.9760,-0.05,0.01,0.02
2020-08-12 19:22:56.0760,-0.01,0.02,0.03
2020-08-12 19:22:56.1750,-0.06,0.0,-0.02
2020-08-12 19:22:56.2740,-0.22,-0.25,-0.0
2020-08-12 19:22:56.3730,-0.75,-0.55,-0.0
2020-08-12 19:22:56.4730,-0.64,-0.36,0.3
2020-08-12 19:22:56.5720,-0.7,0.25,-0.05
2020-08-12 19:22:56.6710,-0.23,0.0,-0.0
2020-08-12 19:22:56.7700,0.07,-0.23,0.07
2020-08-12 19:22:56.8690,0.72,-0.44,0.22
2020-08-12 19:22:56.9690,1.01,0.15,0.17
2020-08-12 19:22:57.0680,-1.03,-0.19,-0.34
2020-08-12 19:22:57.1670,0.07,0.24,-0.35
2020-08-12 19:22:57.2670,0.01,0.01,0.15
2020-08-12 19:22:57.3660,0.08,0.03,0.04
2020-08-12 19:22:57.4650,-0.03,0.0,0.08
2020-08-12 19:22:57.5640,-0.05,-0.02,0.02
2020-08-12 19:22:57.6640,-0.03,-0.04,-0.01
2020-08-12 19:22:57.7630,-0.06,-0.07,0.05
2020-08-12 19:22:57.8620,-0.29,-0.24,-0.03
2020-08-12 19:22:57.9610,-0.43,-0.46,0.12
2020-08-12 19:22:58.0610,-0.43,-0.15,0.12
2020-08-12 19:22:58.1600,-0.61,0.14,-0.04
2020-08-12 19:22:58.2590,-0.1,-0.0,-0.1
2020-08-12 19:22:58.3590,0.28,-0.28,-0.03
2020-08-12 19:22:58.4580,1.0,-0.25,0.35
2020-08-12 19:22:58.5570,0.78,0.11,0.43
2020-08-12 19:22:58.6560,0.28,-0.09,0.24
2020-08-12 19:22:58.7560,0.24,0.07,0.15
2020-08-12 19:22:58.8550,-0.06,0.03,0.02
2020-08-12 19:22:58.9540,0.01,0.06,-0.02
2020-08-12 19:22:59.0530,0.01,0.04,0.01
2020-08-12 19:22:59.1530,-0.01,0.0,-0.01
2020-08-12 19:22:59.2520,-0.03,-0.02,0.06
2020-08-12 19:22:59.3510,-0.07,-0.07,-0.02
2020-08-12 19:22:59.4500,-0.35,-0.19,0.08
2020-08-12 19:22:59.5490,-0.45,-0.39,0.1
2020-08-12 19:22:59.6490,-0.45,-0.2,0.12
2020-08-12 19:22:59.7480,-0.65,0.03,-0.01
2020-08-12 19:22:59.8470,-0.3,0.01,0.03
2020-08-12 19:22:59.9470,-0.01,-0.1,0.04
2020-08-12 19:23:00.0460,0.81,-0.71,0.18
2020-08-12 19:23:00.1450,1.09,0.15,0.26
2020-08-12 19:23:00.2450,-0.81,-0.0,0.17
2020-08-12 19:23:00.3440,0.4,0.03,0.1
2020-08-12 19:23:00.4430,-0.03,0.01,0.04
2020-08-12 19:23:00.5420,0.01,-0.02,0.01
2020-08-12 19:23:00.6410,0.05,-0.05,-0.03
2020-08-12 19:23:00.7410,-0.02,0.02,0.02
2020-08-12 19:23:00.8400,-0.04,0.01,0.05
2020-08-12 19:23:00.9390,-0.07,-0.04,0.04
2020-08-12 19:23:01.0380,-0.28,-0.37,-0.07
2020-08-12 19:23:01.1380,-0.46,-0.41,-0.08
2020-08-12 19:23:01.2370,-0.57,-0.09,0.18
2020-08-12 19:23:01.3360,-0.47,0.14,-0.08
2020-08-12 19:23:01.4350,-0.01,-0.13,-0.07
2020-08-12 19:23:01.5350,0.33,-0.42,0.06
2020-08-12 19:23:01.6340,0.92,-0.0,0.33
2020-08-12 19:23:01.7330,0.82,0.01,0.18
2020-08-12 19:23:01.8320,0.59,-0.77,0.54
2020-08-12 19:23:01.9320,0.1,-0.01,0.03
2020-08-12 19:23:02.0310,0.02,0.03,0.06
2020-08-12 19:23:02.1300,0.02,0.03,0.02
2020-08-12 19:23:02.2300,0.01,-0.0,0.0
2020-08-12 19:23:02.3290,-0.01,-0.0,0.01
2020-08-12 19:23:02.4280,-0.11,0.0,-0.01
2020-08-12 19:23:02.5270,-0.25,-0.39,0.03
2020-08-12 19:23:02.6270,-0.6,-0.24,0.2
2020-08-12 19:23:02.7260,-0.3,-0.53,0.1
2020-08-12 19:23:02.8250,-0.66,-0.09,-0.02
2020-08-12 19:23:02.9240,-0.54,0.05,-0.06
2020-08-12 19:23:03.0240,0.12,-0.32,0.03
2020-08-12 19:23:03.1230,0.78,-0.56,0.21
2020-08-12 19:23:03.2220,0.84,0.14,0.19
2020-08-12 19:23:03.3210,-0.93,-0.33,-0.62
2020-08-12 19:23:03.4210,0.48,0.06,0.12
2020-08-12 19:23:03.5200,-0.07,0.02,0.07
2020-08-12 19:23:03.6190,0.03,-0.02,-0.01
2020-08-12 19:23:03.7180,0.0,0.0,0.09
2020-08-12 19:23:03.8180,0.05,-0.02,-0.01
2020-08-12 19:23:03.9170,-0.01,-0.04,-0.03
2020-08-12 19:23:04.0160,-0.15,-0.03,-0.04
2020-08-12 19:23:04.1160,-0.16,-0.23,-0.05
2020-08-12 19:23:04.2150,-0.48,-0.48,0.08
2020-08-12 19:23:04.3140,-0.61,-0.27,0.21
2020-08-12 19:23:04.4130,-0.64,0.19,-0.04
2020-08-12 19:23:04.5120,-0.49,-0.11,0.07
2020-08-12 19:23:04.6120,-0.01,-0.34,0.13
2020-08-12 19:23:04.7110,1.07,-0.76,0.08
2020-08-12 19:23:04.8100,0.98,0.18,0.15
2020-08-12 19:23:04.9090,-0.74,-0.12,-0.11
2020-08-12 19:23:05.0090,0.28,0.09,-0.04
2020-08-12 19:23:05.1080,-0.06,0.01,0.1
2020-08-12 19:23:05.2070,0.08,0.0,0.03
2020-08-12 19:23:05.3070,-0.03,0.03,0.04
2020-08-12 19:23:05.4060,-0.01,0.04,0.02
2020-08-12 19:23:05.5050,-0.03,-0.02,0.03
2020-08-12 19:23:05.6050,-0.1,-0.02,-0.01
2020-08-12 19:23:05.7040,-0.15,-0.19,-0.01
2020-08-12 19:23:05.8030,-0.52,-0.54,-0.02
2020-08-12 19:23:05.9020,-0.47,-0.18,0.17
2020-08-12 19:23:06.0010,-0.62,0.13,-0.1
2020-08-12 19:23:06.1010,-0.29,-0.13,-0.05
2020-08-12 19:23:06.2000,0.18,-0.16,0.09
2020-08-12 19:23:06.2990,0.64,-0.4,0.3
2020-08-12 19:23:06.3990,0.9,0.17,0.15
2020-08-12 19:23:06.4980,0.02,-0.41,-0.2
2020-08-12 19:23:06.5970,0.33,-0.39,-0.09
2020-08-12 19:23:06.6960,0.03,0.0,-0.05
2020-08-12 19:23:06.7950,0.08,-0.0,0.03
2020-08-12 19:23:06.8950,0.03,0.03,0.04
2020-08-12 19:23:06.9940,-0.04,-0.01,0.04
2020-08-12 19:23:07.0930,0.01,0.08,-0.0
2020-08-12 19:23:07.1930,-0.04,0.01,0.05
2020-08-12 19:23:07.2920,-0.04,-0.1,0.01
2020-08-12 19:23:07.3910,-0.28,-0.33,0.0
2020-08-12 19:23:07.4900,-0.37,-0.46,0.1
2020-08-12 19:23:07.5890,-0.38,0.13,0.09
2020-08-12 19:23:07.6890,-0.89,0.15,-0.13
2020-08-12 19:23:07.7880,0.21,-0.11,0.09
2020-08-12 19:23:07.8870,0.11,-0.25,0.14
2020-08-12 19:23:07.9870,0.91,-0.24,0.33
2020-08-12 19:23:08.0860,0.85,0.14,0.12
2020-08-12 19:23:08.1850,0.2,0.23,0.57
2020-08-12 19:23:08.2840,0.33,0.09,0.24
2020-08-12 19:23:08.3840,-0.06,0.02,0.04
2020-08-12 19:23:08.4830,0.04,-0.01,0.03
2020-08-12 19:23:08.5820,0.06,-0.03,0.05
2020-08-12 19:23:08.6810,0.0,-0.03,-0.0
2020-08-12 19:23:08.7810,-0.06,0.01,-0.03
2020-08-12 19:23:08.8800,-0.07,-0.04,0.01
2020-08-12 19:23:08.9790,-0.21,-0.22,0.01
2020-08-12 19:23:09.0780,-0.43,-0.54,0.05
2020-08-12 19:23:09.1780,-0.4,-0.32,0.25
2020-08-12 19:23:09.2770,-0.71,0.08,-0.07
2020-08-12 19:23:09.3760,-0.39,0.02,0.0
2020-08-12 19:23:09.4750,0.04,-0.19,-0.0
2020-08-12 19:23:09.5750,0.61,-0.56,0.13
2020-08-12 19:23:09.6740,0.94,0.16,0.17
2020-08-12 19:23:09.7730,-0.31,-0.48,-0.49
2020-08-12 19:23:09.8730,0.3,-0.12,0.26
2020-08-12 19:23:09.9720,0.02,-0.03,0.04
2020-08-12 19:23:10.0710,0.02,0.03,0.08
2020-08-12 19:23:10.1700,-0.01,0.06,0.04
2020-08-12 19:23:10.2690,-0.01,-0.04,-0.05
2020-08-12 19:23:10.3690,0.02,-0.02,0.04
2020-08-12 19:23:10.4680,-0.05,-0.03,-0.02
2020-08-12 19:23:10.5670,-0.08,-0.09,-0.01
2020-08-12 19:23:10.6670,-0.35,-0.25,-0.03
2020-08-12 19:23:10.7660,-0.34,-0.34,-0.03
2020-08-12 19:23:10.8650,-0.57,0.06,0.25
2020-08-12 19:23:10.9640,-0.56,0.05,0.0
2020-08-12 19:23:11.0640,-0.03,-0.19,0.01
2020-08-12 19:23:11.1630,0.6,-0.38,0.16
2020-08-12 19:23:11.2620,1.03,0.04,0.27
2020-08-12 19:23:11.3610,-0.09,-0.42,-0.54
2020-08-12 19:23:11.4600,0.26,0.03,-0.0
2020-08-12 19:23:11.5600,-0.02,-0.02,0.01
2020-08-12 19:23:11.6590,0.09,-0.01,0.05
2020-08-12 19:23:11.7580,0.05,-0.01,0.03
2020-08-12 19:23:11.8570,0.03,-0.07,-0.03
2020-08-12 19:23:11.9570,-0.04,0.01,-0.0
2020-08-12 19:23:12.0560,-0.08,-0.01,0.03
2020-08-12 19:23:12.1550,-0.13,-0.27,0.01
2020-08-12 19:23:12.2550,-0.54,-0.43,-0.01
2020-08-12 19:23:12.3540,-0.41,-0.34,0.13
2020-08-12 19:23:12.4530,-0.77,0.16,-0.13
2020-08-12 19:23:12.5530,-0.45,-0.05,0.03
2020-08-12 19:23:12.6520,0.15,-0.19,0.08
2020-08-12 19:23:12.7510,0.59,-0.48,0.22
2020-08-12 19:23:12.8500,1.11,0.11,0.24
2020-08-12 19:23:12.9490,-1.17,-0.35,-1.09
2020-08-12 19:23:13.0490,0.11,0.03,-0.02
2020-08-12 19:23:13.1480,-0.1,0.01,0.07
2020-08-12 19:23:13.2470,0.15,-0.04,0.02
2020-08-12 19:23:13.3460,0.07,0.01,0.05
2020-08-12 19:23:13.4460,0.01,0.01,0.02
2020-08-12 19:23:13.5450,-0.01,0.0,0.02
2020-08-12 19:23:13.6440,-0.17,-0.01,-0.02
2020-08-12 19:23:13.7430,-0.27,-0.36,-0.04
2020-08-12 19:23:13.8430,-0.29,-0.39,0.13
2020-08-12 19:23:13.9420,-0.63,-0.03,0.09
2020-08-12 19:23:14.0410,-0.6,0.12,0.0
2020-08-12 19:23:14.1410,-0.04,-0.28,-0.04
2020-08-12 19:23:14.2400,0.77,-0.62,0.19
2020-08-12 19:23:14.3390,1.0,0.19,0.2
2020-08-12 19:23:14.4380,-0.89,-0.36,-0.47
2020-08-12 19:23:14.5370,0.16,0.07,0.09
2020-08-12 19:23:14.6370,-0.08,-0.01,0.05
2020-08-12 19:23:14.7360,0.07,0.01,-0.0
2020-08-12 19:23:14.8350,0.02,0.02,0.07
2020-08-12 19:23:14.9350,0.01,-0.01,-0.04
2020-08-12 19:23:15.0340,-0.0,0.01,0.05
2020-08-12 19:23:15.1330,-0.06,-0.02,-0.03
2020-08-12 19:23:15.2320,-0.28,-0.24,0.09
2020-08-12 19:23:15.3320,-0.6,-0.41,0.05
2020-08-12 19:23:15.4310,-0.32,-0.43,0.2
2020-08-12 19:23:15.5300,-0.72,-0.04,-0.06
2020-08-12 19:23:15.6300,-0.53,-0.05,0.06
2020-08-12 19:23:15.7290,-0.02,-0.21,0.12
2020-08-12 19:23:15.8280,0.87,-0.57,0.15
2020-08-12 19:23:15.9270,1.05,0.17,0.25
2020-08-12 19:23:16.0260,-0.17,-0.07,0.33
2020-08-12 19:23:16.1260,0.28,-0.0,-0.14
2020-08-12 19:23:16.2250,-0.03,0.03,0.09
2020-08-12 19:23:16.3240,0.0,0.04,0.02
2020-08-12 19:23:16.4230,0.05,0.05,0.04
2020-08-12 19:23:16.5230,-0.01,-0.01,0.01
2020-08-12 19:23:16.6220,-0.08,0.03,0.01
2020-08-12 19:23:16.7210,-0.07,-0.1,0.01
2020-08-12 19:23:16.8210,-0.37,-0.29,0.05
2020-08-12 19:23:16.9200,-0.45,-0.5,0.05
2020-08-12 19:23:17.0190,-0.53,-0.02,0.1
2020-08-12 19:23:17.1180,-0.39,0.15,0.07
2020-08-12 19:23:17.2180,-0.11,-0.08,-0.08
2020-08-12 19:23:17.3170,0.46,-0.72,0.05
2020-08-12 19:23:17.4160,1.02,0.07,0.2
2020-08-12 19:23:17.5150,0.15,-0.65,-0.98
2020-08-12 19:23:17.6140,0.22,-0.45,0.31
2020-08-12 19:23:17.7140,0.06,-0.05,0.04
2020-08-12 19:23:17.8130,0.08,-0.01,0.06
2020-08-12 19:23:17.9120,0.01,-0.01,-0.13
2020-08-12 19:23:18.0120,-0.01,-0.0,0.03
2020-08-12 19:23:18.1110,0.01,0.01,-0.02
2020-08-12 19:23:18.2100,-0.16,-0.0,0.0
2020-08-12 19:23:18.3090,-0.35,-0.63,-0.11
2020-08-12 19:23:18.4090,-0.68,-0.5,-0.03
2020-08-12 19:23:18.5080,-0.53,-0.04,0.1
2020-08-12 19:23:18.6070,-0.6,0.04,-0.06
2020-08-12 19:23:18.7070,-0.22,-0.09,-0.19
2020-08-12 19:23:18.8060,0.53,-0.7,-0.03
2020-08-12 19:23:18.9050,0.95,0.08,0.17
2020-08-12 19:23:19.0040,0.52,-0.22,0.26
2020-08-12 19:23:19.1040,0.45,-0.47,0.25
2020-08-12 19:23:19.2030,-0.0,-0.01,0.06
2020-08-12 19:23:19.3020,0.02,-0.0,0.05
2020-08-12 19:23:19.4010,-0.02,0.02,0.03
2020-08-12 19:23:19.5010,0.04,-0.01,-0.03
2020-08-12 19:23:19.6000,-0.0,0.01,0.02
2020-08-12 19:23:19.6990,-0.16,-0.0,0.02
2020-08-12 19:23:19.7980,-0.16,-0.25,-0.04
2020-08-12 19:23:19.8970,-0.55,-0.5,0.05
2020-08-12 19:23:19.9970,-0.65,-0.27,0.16
2020-08-12 19:23:20.0960,-0.72,0.18,-0.07
2020-08-12 19:23:20.1950,-0.47,-0.01,-0.04
2020-08-12 19:23:20.2940,0.09,-0.29,-0.01
2020-08-12 19:23:20.3940,0.9,-0.62,0.17
2020-08-12 19:23:20.4930,1.16,0.24,0.24
2020-08-12 19:23:20.5920,0.54,-0.31,0.17
2020-08-12 19:23:20.6910,0.26,0.03,0.05
2020-08-12 19:23:20.7910,-0.07,0.03,0.09
2020-08-12 19:23:20.8900,0.09,-0.03,-0.08
2020-08-12 19:23:20.9900,0.01,0.02,0.07
2020-08-12 19:23:21.0890,0.02,0.01,0.03
2020-08-12 19:23:21.1880,-0.1,0.0,0.03
2020-08-12 19:23:21.2870,-0.07,-0.07,0.03
2020-08-12 19:23:21.3860,-0.3,-0.24,-0.06
2020-08-12 19:23:21.4860,-0.53,-0.47,0.09
2020-08-12 19:23:21.5850,-0.62,-0.05,0.08
2020-08-12 19:23:21.6840,-0.53,0.15,-0.0
2020-08-12 19:23:21.7830,-0.07,-0.28,-0.06
2020-08-12 19:23:21.8830,0.68,-0.6,0.14
2020-08-12 19:23:21.9820,1.13,0.24,0.33
2020-08-12 19:23:22.0810,-0.21,-0.63,-1.06
2020-08-12 19:23:22.1800,0.23,-0.11,-0.05
2020-08-12 19:23:22.2800,-0.09,-0.02,0.11
2020-08-12 19:23:22.3790,0.09,0.03,0.05
2020-08-12 19:23:22.4780,-0.01,-0.03,0.03
2020-08-12 19:23:22.5770,0.01,0.0,-0.02
2020-08-12 19:23:22.6770,-0.06,-0.0,-0.01
2020-08-12 19:23:22.7760,-0.15,-0.03,0.03
2020-08-12 19:23:22.8750,-0.29,-0.35,-0.04
2020-08-12 19:23:22.9740,-0.49,-0.44,-0.02
2020-08-12 19:23:23.0740,-0.61,-0.03,0.06
2020-08-12 19:23:23.1730,-0.56,0.16,-0.01
2020-08-12 19:23:23.2720,-0.09,-0.17,0.04
2020-08-12 19:23:23.3720,0.57,-0.56,0.09
2020-08-12 19:23:23.4710,0.89,0.09,0.2
2020-08-12 19:23:23.5700,0.72,0.03,0.21
2020-08-12 19:23:23.6690,0.87,-1.0,0.78
2020-08-12 19:23:23.7680,0.14,-0.01,-0.02
2020-08-12 19:23:23.8680,0.06,0.02,0.04
2020-08-12 19:23:23.9670,0.03,0.0,0.01
2020-08-12 19:23:24.0660,0.0,0.01,0.04
2020-08-12 19:23:24.1660,-0.03,0.03,0.0
2020-08-12 19:23:24.2650,-0.03,-0.02,0.02
2020-08-12 19:23:24.3640,-0.19,-0.19,0.06
2020-08-12 19:23:24.4630,-0.33,-0.31,-0.04
2020-08-12 19:23:24.5630,-0.35,-0.49,-0.03
2020-08-12 19:23:24.6620,-0.61,0.12,0.28
2020-08-12 19:23:24.7610,-0.51,-0.09,-0.06
2020-08-12 19:23:24.8600,-0.05,-0.13,0.03
2020-08-12 19:23:24.9600,0.47,-0.43,0.24
2020-08-12 19:23:25.0590,1.16,0.12,0.27
2020-08-12 19:23:25.1580,-0.18,-0.55,-0.43
2020-08-12 19:23:25.2570,0.2,0.05,-0.07
2020-08-12 19:23:25.3570,-0.09,-0.0,0.07
2020-08-12 19:23:25.4560,0.01,0.1,-0.02
2020-08-12 19:23:25.5560,0.07,-0.01,0.0
2020-08-12 19:23:25.6550,0.01,0.01,-0.01
2020-08-12 19:23:25.7540,-0.07,0.01,0.03
2020-08-12 19:23:25.8530,-0.1,-0.14,-0.11
2020-08-12 19:23:25.9520,-0.43,-0.21,0.03
2020-08-12 19:23:26.0510,-0.41,-0.51,0.16
2020-08-12 19:23:26.1510,-0.24,-0.01,0.08
2020-08-12 19:23:26.2500,-0.57,0.19,-0.04
2020-08-12 19:23:26.3490,0.11,-0.18,0.01
2020-08-12 19:23:26.4490,0.44,-0.47,0.08
2020-08-12 19:23:26.5480,0.92,0.11,0.27
2020-08-12 19:23:26.6470,0.32,-0.42,-0.47
2020-08-12 19:23:26.7460,0.28,0.05,-0.09
2020-08-12 19:23:26.8450,0.07,-0.05,-0.05
2020-08-12 19:23:26.9450,0.1,-0.04,0.1
2020-08-12 19:23:27.0440,0.08,-0.01,0.01
2020-08-12 19:23:27.1430,-0.02,-0.02,0.04
2020-08-12 19:23:27.2430,-0.04,0.01,0.02
2020-08-12 19:23:27.3420,-0.07,-0.06,-0.01
2020-08-12 19:23:27.4410,-0.17,-0.28,-0.14
2020-08-12 19:23:27.5400,-0.57,-0.45,0.08
2020-08-12 19:23:27.6400,-0.62,-0.08,0.29
2020-08-12 19:23:27.7390,-0.61,0.16,-0.04
2020-08-12 19:23:27.8380,-0.19,-0.15,-0.09
2020-08-12 19:23:27.9370,0.26,-0.39,0.04
2020-08-12 19:23:28.0370,0.94,-0.2,0.29
2020-08-12 19:23:28.1360,0.77,0.11,0.28
2020-08-12 19:23:28.2350,0.38,0.02,0.36
2020-08-12 19:23:28.3340,0.28,0.04,0.14
2020-08-12 19:23:28.4340,-0.0,0.01,0.05
2020-08-12 19:23:28.5330,-0.03,0.03,0.03
2020-08-12 19:23:28.6320,0.03,0.02,0.06
2020-08-12 19:23:28.7310,0.0,0.01,0.02
2020-08-12 19:23:28.8310,-0.06,-0.0,0.0
2020-08-12 19:23:28.9300,-0.08,-0.06,-0.01
2020-08-12 19:23:29.0290,-0.47,-0.31,-0.06
2020-08-12 19:23:29.1280,-0.37,-0.62,0.21
2020-08-12 19:23:29.2280,-0.55,-0.13,0.11
2020-08-12 19:23:29.3270,-0.53,0.09,-0.05
2020-08-12 19:23:29.4260,-0.0,-0.25,-0.03
2020-08-12 19:23:29.5260,0.97,-0.64,0.34
2020-08-12 19:23:29.6250,1.01,0.25,0.33
2020-08-12 19:23:29.7240,-0.32,-0.12,0.36
2020-08-12 19:23:29.8230,0.4,0.09,0.2
2020-08-12 19:23:29.9230,0.03,0.02,-0.0
2020-08-12 19:23:30.0220,-0.01,0.01,0.02
2020-08-12 19:23:30.1210,0.05,0.01,0.02
2020-08-12 19:23:30.2200,-0.04,0.0,-0.0
2020-08-12 19:23:30.3190,-0.23,-0.0,-0.03
2020-08-12 19:23:30.4190,-0.36,-0.45,-0.03
2020-08-12 19:23:30.5180,-0.58,-0.6,0.09
2020-08-12 19:23:30.6170,-0.49,0.03,0.02
2020-08-12 19:23:30.7160,-0.73,0.22,0.09
2020-08-12 19:23:30.8160,0.01,-0.33,0.08
2020-08-12 19:23:30.9150,0.42,-0.39,0.21
2020-08-12 19:23:31.0140,0.78,-0.01,0.18
2020-08-12 19:23:31.1140,0.85,0.1,0.1
2020-08-12 19:23:31.2130,0.48,-0.19,0.02
2020-08-12 19:23:31.3120,0.23,0.02,0.08
2020-08-12 19:23:31.4120,0.01,0.0,0.07
2020-08-12 19:23:31.5110,-0.02,-0.02,0.02
2020-08-12 19:23:31.6100,-0.02,0.05,0.07
2020-08-12 19:23:31.7100,0.01,-0.05,-0.02
2020-08-12 19:23:31.8090,-0.1,-0.01,-0.02
2020-08-12 19:23:31.9080,-0.23,-0.21,-0.04
2020-08-12 19:23:32.0070,-0.66,-0.62,0.01
2020-08-12 19:23:32.1060,-0.69,-0.2,0.31
2020-08-12 19:23:32.2050,-0.77,0.24,-0.03
2020-08-12 19:23:32.3050,-0.28,-0.19,0.0
2020-08-12 19:23:32.4040,0.22,-0.29,0.06
2020-08-12 19:23:32.5030,1.01,-0.38,0.3
2020-08-12 19:23:32.6020,0.86,0.13,0.23
2020-08-12 19:23:32.7020,0.55,-0.42,0.12
2020-08-12 19:23:32.8010,0.04,-0.01,-0.01
2020-08-12 19:23:32.9000,0.03,-0.01,0.02
2020-08-12 19:23:32.9990,0.05,-0.0,-0.02
2020-08-12 19:23:33.0990,-0.01,0.03,0.02
2020-08-12 19:23:33.1980,-0.01,0.0,0.01
2020-08-12 19:23:33.2970,-0.18,0.01,0.01
2020-08-12 19:23:33.3970,-0.15,-0.23,-0.02
2020-08-12 19:23:33.4960,-0.68,-0.67,0.09
2020-08-12 19:23:33.5950,-0.63,-0.16,0.23
2020-08-12 19:23:33.6940,-0.74,0.19,-0.04
2020-08-12 19:23:33.7940,-0.26,-0.14,-0.08
2020-08-12 19:23:33.8930,0.27,-0.49,0.11
2020-08-12 19:23:33.9920,1.21,-0.13,0.44
2020-08-12 19:23:34.0910,0.94,-0.04,0.2
2020-08-12 19:23:34.1900,0.66,-0.83,0.09
2020-08-12 19:23:34.2900,0.06,-0.03,0.07
2020-08-12 19:23:34.3890,0.04,0.02,0.05
2020-08-12 19:23:34.4880,-0.1,0.0,0.04
2020-08-12 19:23:34.5880,-0.07,0.04,0.09
2020-08-12 19:23:34.6870,0.0,-0.01,-0.02
2020-08-12 19:23:34.7860,-0.07,-0.0,0.06
2020-08-12 19:23:34.8850,-0.39,-0.35,0.01
2020-08-12 19:23:34.9850,-0.74,-0.83,0.1
2020-08-12 19:23:35.0840,-0.54,0.01,-0.06
2020-08-12 19:23:35.1830,-0.64,0.19,0.0
2020-08-12 19:23:35.2820,-0.35,-0.13,-0.1
2020-08-12 19:23:35.3820,0.44,-0.7,0.2
2020-08-12 19:23:35.4810,0.98,0.05,0.21
2020-08-12 19:23:35.5800,0.74,-0.02,0.04
2020-08-12 19:23:35.6790,0.35,-0.36,0.33
2020-08-12 19:23:35.7790,0.04,-0.03,0.02
2020-08-12 19:23:35.8780,0.0,0.02,0.05
2020-08-12 19:23:35.9780,-0.02,-0.02,0.01
2020-08-12 19:23:36.0770,0.01,0.02,-0.03
2020-08-12 19:23:36.1760,-0.02,-0.01,0.04
2020-08-12 19:23:36.2750,-0.05,-0.04,-0.03
2020-08-12 19:23:36.3740,-0.2,-0.32,-0.03
2020-08-12 19:23:36.4740,-0.5,-0.46,0.16
2020-08-12 19:23:36.5730,-0.69,-0.0,0.2
2020-08-12 19:23:36.6720,-0.56,0.22,-0.03
2020-08-12 19:23:36.7710,0.1,-0.35,-0.16
2020-08-12 19:23:36.8710,0.56,-0.61,0.22
2020-08-12 19:23:36.9700,1.2,0.21,0.29
2020-08-12 19:23:37.0690,-0.67,-0.64,-1.09
2020-08-12 19:23:37.1680,0.21,-0.01,0.03
2020-08-12 19:23:37.2680,-0.07,-0.02,0.06
2020-08-12 19:23:37.3670,0.1,-0.01,-0.01
2020-08-12 19:23:37.4660,-0.0,0.02,0.03
2020-08-12 19:23:37.5650,0.01,-0.07,-0.02
2020-08-12 19:23:37.6650,-0.03,0.03,0.01
2020-08-12 19:23:37.7640,-0.17,-0.05,0.03
2020-08-12 19:23:37.8630,-0.17,-0.53,0.03
2020-08-12 19:23:37.9630,-0.51,-0.59,-0.0
2020-08-12 19:23:38.0620,-0.68,0.05,0.15
2020-08-12 19:23:38.1610,-0.5,0.11,-0.09
2020-08-12 19:23:38.2600,0.05,-0.27,-0.07
2020-08-12 19:23:38.3590,0.49,-0.58,0.28
2020-08-12 19:23:38.4590,1.43,0.25,0.22
2020-08-12 19:23:38.5580,-0.7,-0.31,-0.86
2020-08-12 19:23:38.6570,0.34,-0.23,0.29
2020-08-12 19:23:38.7560,-0.09,-0.01,0.07
2020-08-12 19:23:38.8560,0.12,-0.03,-0.01
2020-08-12 19:23:38.9550,0.02,0.0,0.03
2020-08-12 19:23:39.0540,0.0,0.03,-0.01
2020-08-12 19:23:39.1530,-0.12,-0.0,0.02
2020-08-12 19:23:39.2530,-0.14,-0.05,-0.04
2020-08-12 19:23:39.3520,-0.31,-0.28,0.02
2020-08-12 19:23:39.4510,-0.55,-0.51,0.07
2020-08-12 19:23:39.5500,-0.47,0.09,0.53
2020-08-12 19:23:39.6500,-0.61,0.13,-0.09
2020-08-12 19:23:39.7490,0.08,-0.3,0.01
2020-08-12 19:23:39.8480,1.1,-0.51,0.46
2020-08-12 19:23:39.9480,1.05,0.18,0.26
2020-08-12 19:23:40.0470,-0.06,-0.11,0.35
2020-08-12 19:23:40.1460,0.22,0.07,0.11
2020-08-12 19:23:40.2450,-0.02,0.04,0.04
2020-08-12 19:23:40.3450,0.04,0.03,0.0
2020-08-12 19:23:40.4440,-0.02,-0.05,0.05
2020-08-12 19:23:40.5430,-0.0,0.04,0.0
2020-08-12 19:23:40.6420,-0.02,-0.0,0.02
2020-08-12 19:23:40.7410,-0.32,-0.36,-0.07
2020-08-12 19:23:40.8410,-0.61,-0.53,0.08
2020-08-12 19:23:40.9400,-0.61,-0.29,0.27
2020-08-12 19:23:41.0390,-0.91,0.31,0.02
2020-08-12 19:23:41.1390,-0.21,-0.15,-0.09
2020-08-12 19:23:41.2380,0.19,-0.5,0.13
2020-08-12 19:23:41.3370,1.03,-0.26,0.31
2020-08-12 19:23:41.4370,0.8,0.09,0.2
2020-08-12 19:23:41.5360,0.28,0.01,0.38
2020-08-12 19:23:41.6350,0.29,0.02,0.03
2020-08-12 19:23:41.7340,-0.03,0.02,0.07
2020-08-12 19:23:41.8340,-0.01,0.02,0.02
2020-08-12 19:23:41.9330,0.05,-0.06,-0.01
2020-08-12 19:23:42.0320,0.03,0.01,0.03
2020-08-12 19:23:42.1310,-0.14,0.03,-0.02
2020-08-12 19:23:42.2310,-0.07,-0.19,0.02
2020-08-12 19:23:42.3300,-0.6,-0.6,0.03
2020-08-12 19:23:42.4290,-0.62,-0.35,0.22
2020-08-12 19:23:42.5280,-0.71,0.33,0.07
2020-08-12 19:23:42.6270,-0.34,-0.07,-0.03
2020-08-12 19:23:42.7270,0.4,-0.68,0.09
2020-08-12 19:23:42.8260,1.03,-0.06,0.22
2020-08-12 19:23:42.9250,0.95,0.06,0.21
2020-08-12 19:23:43.0250,0.41,-0.02,0.21
2020-08-12 19:23:43.1240,0.34,0.03,0.14
2020-08-12 19:23:43.2230,-0.08,0.02,0.07
2020-08-12 19:23:43.3220,-0.07,0.02,-0.07
2020-08-12 19:23:43.4210,0.01,0.02,0.03
2020-08-12 19:23:43.5210,-0.01,-0.03,0.02
2020-08-12 19:23:43.6200,-0.09,-0.04,-0.01
2020-08-12 19:23:43.7190,-0.06,-0.22,-0.02
2020-08-12 19:23:43.8190,-0.55,-0.55,-0.02
2020-08-12 19:23:43.9180,-0.43,-0.6,0.31
2020-08-12 19:23:44.0170,-0.79,0.01,-0.23
2020-08-12 19:23:44.1170,-0.68,0.12,0.09
2020-08-12 19:23:44.2160,0.29,-0.67,0.26
2020-08-12 19:23:44.3150,1.28,-0.11,0.49
2020-08-12 19:23:44.4140,0.87,-0.01,0.17
2020-08-12 19:23:44.5140,0.1,0.16,0.58
2020-08-12 19:23:44.6130,0.39,0.1,0.04
2020-08-12 19:23:44.7120,-0.07,0.04,0.06
2020-08-12 19:23:44.8110,0.08,-0.02,0.02
2020-08-12 19:23:44.9100,-0.06,0.02,0.07
2020-08-12 19:23:45.0100,0.03,0.0,0.01
2020-08-12 19:23:45.1090,-0.08,0.0,0.03
2020-08-12 19:23:45.2080,-0.15,-0.09,-0.04
2020-08-12 19:23:45.3070,-0.53,-0.31,0.05
2020-08-12 19:23:45.4070,-0.31,-0.47,0.3
2020-08-12 19:23:45.5060,-0.35,-0.06,0.13
2020-08-12 19:23:45.6050,-0.6,0.09,-0.1
2020-08-12 19:23:45.7040,0.0,-0.28,0.11
2020-08-12 19:23:45.8040,0.87,-0.67,0.29
2020-08-12 19:23:45.9030,0.87,0.14,0.27
2020-08-12 19:23:46.0020,-0.99,-0.22,-0.29
2020-08-12 19:23:46.1010,0.32,0.05,-0.11
2020-08-12 19:23:46.2010,-0.08,0.03,0.06
2020-08-12 19:23:46.3000,0.06,0.03,-0.01
2020-08-12 19:23:46.3990,0.03,0.02,0.06
2020-08-12 19:23:46.4990,-0.02,0.01,0.02
2020-08-12 19:23:46.5980,-0.11,-0.0,-0.01
2020-08-12 19:23:46.6970,-0.13,-0.09,-0.04
2020-08-12 19:23:46.7970,-0.27,-0.34,-0.03
2020-08-12 19:23:46.8960,-0.61,-0.66,0.15
2020-08-12 19:23:46.9950,-0.44,0.06,0.37
2020-08-12 19:23:47.0940,-0.27,0.15,0.02
2020-08-12 19:23:47.1930,-0.19,-0.04,0.02
2020-08-12 19:23:47.2930,0.53,-0.64,0.31
2020-08-12 19:23:47.3920,0.97,0.16,0.26
2020-08-12 19:23:47.4910,-0.38,-0.8,-1.22
2020-08-12 19:23:47.5900,0.18,-0.2,0.24
2020-08-12 19:23:47.6900,0.03,-0.04,0.0
2020-08-12 19:23:47.7890,0.09,-0.01,0.04
2020-08-12 19:23:47.8880,0.03,0.02,0.02
2020-08-12 19:23:47.9870,-0.02,-0.01,-0.01
2020-08-12 19:23:48.0870,-0.11,-0.04,-0.02
2020-08-12 19:23:48.1860,-0.03,-0.07,-0.03
2020-08-12 19:23:48.2850,-0.5,-0.32,-0.01
2020-08-12 19:23:48.3840,-0.4,-0.57,0.47
2020-08-12 19:23:48.4840,-0.59,-0.07,-0.14
2020-08-12 19:23:48.5830,-0.57,0.13,-0.03
2020-08-12 19:23:48.6830,0.17,-0.22,0.02
2020-08-12 19:23:48.7810,0.68,-0.69,0.25
2020-08-12 19:23:48.8810,1.25,0.14,0.16
2020-08-12 19:23:48.9800,-0.08,-0.22,0.47
2020-08-12 19:23:49.0790,0.42,0.0,-0.04
2020-08-12 19:23:49.1790,-0.06,0.04,0.15
2020-08-12 19:23:49.2780,0.02,0.02,0.01
2020-08-12 19:23:49.3770,0.02,-0.0,-0.0
2020-08-12 19:23:49.4760,-0.01,0.04,-0.01
2020-08-12 19:23:49.5760,-0.08,-0.03,-0.0
2020-08-12 19:23:49.6750,-0.17,-0.15,-0.04
2020-08-12 19:23:49.7740,-0.56,-0.3,0.08
2020-08-12 19:23:49.8730,-0.22,-0.5,0.35
2020-08-12 19:23:49.9730,-0.32,-0.12,0.15
2020-08-12 19:23:50.0720,-0.34,0.05,-0.08
2020-08-12 19:23:50.1710,-0.12,-0.13,-0.05
2020-08-12 19:23:50.2700,0.56,-0.73,0.17
2020-08-12 19:23:50.3700,1.06,0.18,0.2
2020-08-12 19:23:50.4690,0.17,-0.19,-0.23
2020-08-12 19:23:50.5680,0.39,-0.68,0.2
2020-08-12 19:23:50.6680,0.09,-0.03,-0.01
2020-08-12 19:23:50.7670,0.04,0.01,0.03
2020-08-12 19:23:50.8660,0.0,0.04,-0.02
2020-08-12 19:23:50.9650,0.0,-0.03,-0.03
2020-08-12 19:23:51.0640,-0.01,-0.03,0.03
2020-08-12 19:23:51.1640,-0.08,-0.01,0.01
2020-08-12 19:23:51.2630,-0.18,-0.25,-0.01
2020-08-12 19:23:51.3630,-0.64,-0.46,0.01
2020-08-12 19:23:51.4610,-0.38,-0.51,0.12
2020-08-12 19:23:51.5610,-0.81,-0.16,-0.15
2020-08-12 19:23:51.6600,-0.55,0.04,-0.03
2020-08-12 19:23:51.7590,0.1,-0.31,0.01
2020-08-12 19:23:51.8580,0.9,-0.62,0.34
2020-08-12 19:23:51.9580,0.98,0.22,0.3
2020-08-12 19:23:52.0570,-0.88,-0.34,-0.02
2020-08-12 19:23:52.1560,0.55,0.07,-0.11
2020-08-12 19:23:52.2560,-0.07,0.02,0.09
2020-08-12 19:23:52.3550,0.03,-0.0,-0.01
2020-08-12 19:23:52.4540,0.03,0.03,0.07
2020-08-12 19:23:52.5530,0.03,0.0,0.03
2020-08-12 19:23:52.6530,-0.12,0.04,0.13
2020-08-12 19:23:52.7520,-0.15,-0.03,0.02
2020-08-12 19:23:52.8510,-0.27,-0.44,-0.05
2020-08-12 19:23:52.9500,-0.46,-0.64,0.05
2020-08-12 19:23:53.0500,-0.61,0.03,0.31
2020-08-12 19:23:53.1490,-0.59,0.21,-0.01
2020-08-12 19:23:53.2480,0.05,-0.25,0.14
2020-08-12 19:23:53.3470,0.64,-0.64,0.15
2020-08-12 19:23:53.4470,1.11,0.23,0.2
2020-08-12 19:23:53.5460,-0.82,-0.5,-0.57
2020-08-12 19:23:53.6450,0.35,0.05,-0.01
2020-08-12 19:23:53.7450,-0.06,0.0,0.05
2020-08-12 19:23:53.8440,0.1,-0.06,-0.06
2020-08-12 19:23:53.9430,-0.0,0.03,0.07
2020-08-12 19:23:54.0420,-0.01,-0.01,0.01
2020-08-12 19:23:54.1420,-0.05,-0.01,-0.02
2020-08-12 19:23:54.2410,-0.19,-0.03,0.07
2020-08-12 19:23:54.3400,-0.46,-0.61,-0.02
2020-08-12 19:23:54.4390,-0.19,-0.44,0.21
2020-08-12 19:23:54.5380,-0.78,0.12,-0.2
2020-08-12 19:23:54.6380,-0.64,0.05,0.01
2020-08-12 19:23:54.7370,0.08,-0.34,0.15
2020-08-12 19:23:54.8370,0.89,-0.63,0.27
2020-08-12 19:23:54.9350,0.96,0.24,0.15
2020-08-12 19:23:55.0350,-0.65,-0.51,-0.76
2020-08-12 19:23:55.1340,0.17,-0.3,0.31
2020-08-12 19:23:55.2330,0.03,-0.01,0.02
2020-08-12 19:23:55.3330,0.1,-0.0,-0.04
2020-08-12 19:23:55.4320,0.03,0.01,0.06
2020-08-12 19:23:55.5310,0.03,0.01,0.04
2020-08-12 19:23:55.6300,-0.08,0.01,0.01
2020-08-12 19:23:55.7300,-0.1,-0.03,-0.03
2020-08-12 19:23:55.8290,-0.18,-0.25,-0.02
2020-08-12 19:23:55.9280,-0.51,-0.37,0.11
2020-08-12 19:23:56.0270,-0.62,-0.18,0.23
2020-08-12 19:23:56.1270,-0.66,0.2,0.0
2020-08-12 19:23:56.2260,-0.32,-0.25,0.06
2020-08-12 19:23:56.3250,0.33,-0.36,0.13
2020-08-12 19:23:56.4250,1.07,-0.25,0.52
2020-08-12 19:23:56.5240,1.01,0.16,0.25
2020-08-12 19:23:56.6230,0.64,0.23,0.36
2020-08-12 19:23:56.7220,0.33,-0.01,0.1
2020-08-12 19:23:56.8210,-0.01,0.03,0.1
2020-08-12 19:23:56.9210,-0.02,0.02,-0.01
2020-08-12 19:23:57.0200,0.01,0.01,0.01
2020-08-12 19:23:57.1190,0.02,0.01,-0.04
2020-08-12 19:23:57.2180,-0.11,0.0,-0.08
2020-08-12 19:23:57.3180,-0.34,-0.43,0.03
2020-08-12 19:23:57.4170,-0.53,-0.34,0.06
2020-08-12 19:23:57.5160,-0.38,-0.56,0.17
2020-08-12 19:23:57.6150,-0.83,-0.06,-0.16
2020-08-12 19:23:57.7150,-0.43,-0.07,0.04
2020-08-12 19:23:57.8140,0.13,-0.36,0.01
2020-08-12 19:23:57.9130,0.78,-0.38,0.4
2020-08-12 19:23:58.0120,0.88,0.27,0.2
2020-08-12 19:23:58.1120,-0.7,-0.24,0.2
2020-08-12 19:23:58.2110,0.27,-0.04,0.18
2020-08-12 19:23:58.3100,-0.04,-0.0,0.03
2020-08-12 19:23:58.4090,0.07,-0.04,0.03
2020-08-12 19:23:58.5090,-0.01,-0.02,0.02
2020-08-12 19:23:58.6080,-0.01,0.03,0.0
2020-08-12 19:23:58.7070,-0.04,0.05,-0.03
2020-08-12 19:23:58.8070,-0.15,-0.07,0.04
2020-08-12 19:23:58.9060,-0.27,-0.55,0.02
2020-08-12 19:23:59.0050,-0.42,-0.55,0.25
2020-08-12 19:23:59.1050,-0.54,-0.16,-0.23
2020-08-12 19:23:59.2040,-0.37,-0.06,0.01
2020-08-12 19:23:59.3030,0.12,-0.31,0.1
2020-08-12 19:23:59.4020,0.79,-0.69,0.16
2020-08-12 19:23:59.5010,1.03,0.22,0.22
2020-08-12 19:23:59.6010,-1.25,-0.31,-0.95
2020-08-12 19:23:59.7000,0.26,-0.12,0.31
2020-08-12 19:23:59.7990,-0.1,-0.0,-0.02
2020-08-12 19:23:59.8980,0.02,-0.0,0.05
2020-08-12 19:23:59.9980,-0.03,0.01,0.12
2020-08-12 19:24:00.0970,-0.03,-0.03,-0.02
2020-08-12 19:24:00.1960,-0.01,-0.0,0.0
2020-08-12 19:24:00.2950,-0.19,-0.1,0.02
2020-08-12 19:24:00.3950,-0.34,-0.42,0.05
2020-08-12 19:24:00.4940,-0.45,-0.55,0.13
2020-08-12 19:24:00.5930,-0.53,-0.1,0.02
2020-08-12 19:24:00.6920,-0.59,0.04,-0.03
2020-08-12 19:24:00.7920,0.01,-0.28,0.09
2020-08-12 19:24:00.8910,0.61,-0.68,0.2
2020-08-12 19:24:00.9900,1.19,0.19,0.09
2020-08-12 19:24:01.0890,-0.54,-0.52,-1.05
2020-08-12 19:24:01.1890,0.32,-0.31,0.33
2020-08-12 19:24:01.2880,-0.02,-0.02,-0.0
2020-08-12 19:24:01.3870,0.08,-0.0,0.01
2020-08-12 19:24:01.4870,0.01,-0.01,0.05
2020-08-12 19:24:01.5860,-0.0,-0.0,-0.05
2020-08-12 19:24:01.6850,0.02,0.0,0.01
2020-08-12 19:24:01.7840,-0.17,-0.26,-0.07
2020-08-12 19:24:01.8840,-0.64,-0.44,-0.04
2020-08-12 19:24:01.9830,-0.4,-0.5,0.34
2020-08-12 19:24:02.0820,-0.62,-0.12,-0.16
2020-08-12 19:24:02.1810,-0.5,0.1,0.1
2020-08-12 19:24:02.2800,0.07,-0.42,0.28
2020-08-12 19:24:02.3800,1.09,-0.51,0.38
2020-08-12 19:24:02.4790,0.92,0.12,0.2
2020-08-12 19:24:02.5780,0.43,0.07,0.36
2020-08-12 19:24:02.6780,0.27,0.07,0.22
2020-08-12 19:24:02.7770,-0.06,0.03,0.1
2020-08-12 19:24:02.8760,0.01,0.0,-0.0
2020-08-12 19:24:02.9750,-0.01,0.01,-0.02
2020-08-12 19:24:03.0750,0.03,0.03,0.05
2020-08-12 19:24:03.1740,-0.17,0.01,0.02
2020-08-12 19:24:03.2730,-0.18,-0.31,-0.1
2020-08-12 19:24:03.3730,-0.63,-0.54,0.15
2020-08-12 19:24:03.4720,-0.6,-0.08,0.36
2020-08-12 19:24:03.5710,-0.67,0.16,-0.15
2020-08-12 19:24:03.6700,-0.19,-0.14,-0.03
2020-08-12 19:24:03.7700,0.06,-0.17,0.1
2020-08-12 19:24:03.8690,0.74,-0.6,0.14
2020-08-12 19:24:03.9680,1.18,0.35,0.14
2020-08-12 19:24:04.0670,-1.65,-0.39,-1.39
2020-08-12 19:24:04.1670,0.14,0.0,-0.0
2020-08-12 19:24:04.2660,0.0,-0.01,0.05
2020-08-12 19:24:04.3650,0.03,-0.01,0.04
2020-08-12 19:24:04.4640,0.02,0.02,0.04
2020-08-12 19:24:04.5640,-0.0,-0.01,-0.03
2020-08-12 19:24:04.6630,-0.03,-0.0,0.02
2020-08-12 19:24:04.7620,-0.09,-0.04,-0.04
2020-08-12 19:24:04.8610,-0.25,-0.3,0.01
2020-08-12 19:24:04.9610,-0.48,-0.38,-0.0
2020-08-12 19:24:05.0600,-0.49,-0.4,0.09
2020-08-12 19:24:05.1590,-0.66,0.09,-0.17
2020-08-12 19:24:05.2590,-0.36,0.04,0.03
2020-08-12 19:24:05.3580,-0.01,-0.26,0.17
2020-08-12 19:24:05.4570,0.67,-0.56,0.15
2020-08-12 19:24:05.5560,1.26,0.17,0.18
2020-08-12 19:24:05.6550,-1.25,-0.3,-0.26
2020-08-12 19:24:05.7550,0.21,0.05,0.12
2020-08-12 19:24:05.8540,-0.01,0.02,0.02
2020-08-12 19:24:05.9530,0.05,-0.0,0.01
2020-08-12 19:24:06.0530,-0.0,0.03,0.01
2020-08-12 19:24:06.1520,0.0,0.0,0.03
2020-08-12 19:24:06.2510,-0.01,0.03,0.03
2020-08-12 19:24:06.3500,-0.14,-0.02,-0.03
2020-08-12 19:24:06.4500,-0.13,-0.33,-0.04
2020-08-12 19:24:06.5490,-0.65,-0.5,0.06
2020-08-12 19:24:06.6480,-0.68,-0.2,0.27
2020-08-12 19:24:06.7470,-0.7,0.15,-0.07
2020-08-12 19:24:06.8470,-0.24,-0.02,-0.1
2020-08-12 19:24:06.9460,0.11,-0.43,0.23
2020-08-12 19:24:07.0450,1.01,-0.3,0.39
2020-08-12 19:24:07.1450,0.68,0.06,0.18
2020-08-12 19:24:07.2440,0.34,-0.3,0.12
2020-08-12 19:24:07.3430,0.19,0.01,0.06
2020-08-12 19:24:07.4420,-0.1,0.08,0.11
2020-08-12 19:24:07.5410,0.04,-0.01,0.0
2020-08-12 19:24:07.6410,-0.02,0.04,-0.0
2020-08-12 19:24:07.7400,0.02,-0.01,0.01
2020-08-12 19:24:07.8390,-0.11,0.0,-0.02
2020-08-12 19:24:07.9380,-0.09,-0.03,0.02
2020-08-12 19:24:08.0380,-0.4,-0.53,-0.02
2020-08-12 19:24:08.1370,-0.16,-0.41,0.3
2020-08-12 19:24:08.2360,-0.35,-0.01,0.14
2020-08-12 19:24:08.3350,-0.47,0.21,0.08
2020-08-12 19:24:08.4350,0.38,-0.46,0.09
2020-08-12 19:24:08.5340,0.48,-0.5,0.13
2020-08-12 19:24:08.6330,0.88,0.09,0.24
2020-08-12 19:24:08.7330,0.09,-0.47,-0.28
2020-08-12 19:24:08.8320,0.3,0.1,-0.07
2020-08-12 19:24:08.9310,-0.06,0.01,0.09
2020-08-12 19:24:09.0300,0.03,0.0,0.02
2020-08-12 19:24:09.1290,-0.03,0.04,0.07
2020-08-12 19:24:09.2290,0.01,0.02,0.04
2020-08-12 19:24:09.3280,-0.04,0.01,0.03
2020-08-12 19:24:09.4270,-0.2,-0.02,-0.03
2020-08-12 19:24:09.5270,-0.21,-0.43,-0.03
2020-08-12 19:24:09.6260,-0.31,-0.35,-0.01
2020-08-12 19:24:09.7250,-0.65,0.01,0.28
2020-08-12 19:24:09.8240,-0.6,0.08,0.06
2020-08-12 19:24:09.9230,-0.08,-0.15,-0.01
2020-08-12 19:24:10.0230,0.34,-0.64,0.19
2020-08-12 19:24:10.1220,1.13,0.09,0.3
2020-08-12 19:24:10.2210,0.66,0.04,0.22
2020-08-12 19:24:10.3200,0.5,0.24,0.85
2020-08-12 19:24:10.4200,0.38,0.02,0.16
2020-08-12 19:24:10.5190,-0.03,0.04,0.11
2020-08-12 19:24:10.6180,-0.02,-0.03,-0.03
2020-08-12 19:24:10.7170,-0.04,0.02,-0.02
2020-08-12 19:24:10.8170,-0.01,0.01,0.02
2020-08-12 19:24:10.9160,-0.01,-0.0,0.03
2020-08-12 19:24:11.0160,-0.11,-0.07,0.05
2020-08-12 19:24:11.1150,-0.4,-0.46,0.01
2020-08-12 19:24:11.2140,-0.15,-0.34,0.33
2020-08-12 19:24:11.3130,-1.06,0.27,-0.2
2020-08-12 19:24:11.4120,-0.39,0.04,0.07
2020-08-12 19:24:11.5120,-0.01,-0.2,0.14
2020-08-12 19:24:11.6110,0.58,-0.6,0.3
2020-08-12 19:24:11.7100,1.25,0.33,0.05
2020-08-12 19:24:11.8090,-0.82,-0.48,-1.04
2020-08-12 19:24:11.9090,0.12,-0.1,0.13
2020-08-12 19:24:12.0080,0.04,-0.05,0.04
2020-08-12 19:24:12.1070,0.02,0.0,0.08
2020-08-12 19:24:12.2060,0.03,0.01,0.02
2020-08-12 19:24:12.3060,-0.01,0.01,-0.0
2020-08-12 19:24:12.4050,-0.02,0.02,0.03
2020-08-12 19:24:12.5040,-0.1,0.04,-0.02
2020-08-12 19:24:12.6040,-0.15,-0.04,0.03
2020-08-12 19:24:12.7030,-0.25,-0.56,-0.02
2020-08-12 19:24:12.8020,-0.18,-0.43,0.3
2020-08-12 19:24:12.9010,-0.51,-0.06,0.13
2020-08-12 19:24:13.0010,-0.4,0.17,-0.05
2020-08-12 19:24:13.1000,-0.27,-0.22,-0.1
2020-08-12 19:24:13.1990,0.51,-0.47,0.19
2020-08-12 19:24:13.2990,1.07,0.06,0.33
2020-08-12 19:24:13.3980,-0.14,-0.62,-0.72
2020-08-12 19:24:13.4970,0.28,-0.18,-0.04
2020-08-12 19:24:13.5960,0.08,-0.05,-0.07
2020-08-12 19:24:13.6960,0.0,-0.0,0.06
2020-08-12 19:24:13.7950,0.02,0.01,-0.0
2020-08-12 19:24:13.8940,0.03,0.01,0.01
2020-08-12 19:24:13.9930,-0.06,0.0,0.02
2020-08-12 19:24:14.0920,-0.02,-0.0,0.02
2020-08-12 19:24:14.1920,-0.09,0.01,-0.02
2020-08-12 19:24:14.2910,-0.16,-0.29,0.0
2020-08-12 19:24:14.3900,-0.53,-0.54,-0.09
2020-08-12 19:24:14.4890,-0.46,-0.23,0.08
2020-08-12 19:24:14.5890,-0.69,0.23,0.01
2020-08-12 19:24:14.6880,-0.15,-0.2,-0.07
2020-08-12 19:24:14.7870,0.1,-0.35,0.16
2020-08-12 19:24:14.8870,0.98,-0.38,0.32
2020-08-12 19:24:14.9860,0.84,0.13,0.21
2020-08-12 19:24:15.0850,-0.41,-0.09,0.54
2020-08-12 19:24:15.1840,0.29,0.02,-0.05
2020-08-12 19:24:15.2840,-0.06,0.01,0.01
2020-08-12 19:24:15.3830,-0.04,0.02,0.11
2020-08-12 19:24:15.4820,0.0,0.02,0.05
2020-08-12 19:24:15.5810,-0.03,0.04,-0.0
2020-08-12 19:24:15.6800,0.05,0.02,0.03
2020-08-12 19:24:15.7800,0.01,-0.01,0.03
2020-08-12 19:24:15.8790,-0.15,-0.07,-0.05
2020-08-12 19:24:15.9780,-0.3,-0.18,-0.03
2020-08-12 19:24:16.0770,-0.27,-0.44,0.09
2020-08-12 19:24:16.1770,-0.49,0.0,0.03
2020-08-12 19:24:16.2760,-0.89,0.22,-0.05
2020-08-12 19:24:16.3750,0.01,-0.3,0.13
2020-08-12 19:24:16.4750,0.58,-0.44,0.26
2020-08-12 19:24:16.5740,0.86,0.09,0.24
2020-08-12 19:24:16.6730,0.61,0.1,0.18
2020-08-12 19:24:16.7720,-0.02,0.11,0.59
2020-08-12 19:24:16.8720,0.34,0.1,0.17
2020-08-12 19:24:16.9710,-0.01,-0.0,-0.09
2020-08-12 19:24:17.0700,0.01,0.01,0.04
2020-08-12 19:24:17.1690,0.02,0.01,0.03
2020-08-12 19:24:17.2680,-0.03,0.03,-0.0
2020-08-12 19:24:17.3680,0.01,0.02,0.03
2020-08-12 19:24:17.4670,0.02,0.0,0.02
2020-08-12 19:24:17.5660,-0.06,0.0,0.01
2020-08-12 19:24:17.6660,-0.21,0.01,-0.08
2020-08-12 19:24:17.7650,-0.02,-0.53,0.01
2020-08-12 19:24:17.8640,-0.02,0.05,0.07
2020-08-12 19:24:17.9640,-0.27,0.35,-0.1
2020-08-12 19:24:18.0630,0.37,-0.03,0.15
2020-08-12 19:24:18.1620,0.62,-0.04,0.12
2020-08-12 19:24:18.2610,-0.48,0.03,0.14
2020-08-12 19:24:18.3610,-0.02,-0.02,0.03
2020-08-12 19:24:18.4600,0.02,0.01,0.02
2020-08-12 19:24:18.5590,-0.01,-0.01,-0.03
2020-08-12 19:24:18.6580,-0.0,0.0,0.01
2020-08-12 19:24:18.7570,0.01,-0.01,-0.01
2020-08-12 19:24:18.8570,-0.03,0.01,-0.02
2020-08-12 19:24:18.9560,-0.02,0.01,0.02
2020-08-12 19:24:19.0550,0.02,0.0,-0.05
2020-08-12 19:24:19.1550,-0.05,0.0,0.03
2020-08-12 19:24:19.2540,-0.03,-0.01,0.05
2020-08-12 19:24:19.3530,0.04,-0.02,-0.02
2020-08-12 19:24:19.4520,0.02,-0.01,-0.05
2020-08-12 19:24:19.5520,0.03,0.01,-0.0
2020-08-12 19:24:19.6510,-0.02,-0.01,0.0
2020-08-12 19:24:19.7500,-0.03,0.03,-0.04
2020-08-12 19:24:19.8500,-0.04,-0.0,0.04
2020-08-12 19:24:19.9490,0.03,0.01,-0.03
2020-08-12 19:24:20.0480,-0.01,0.02,0.02
2020-08-12 19:24:20.1470,0.07,-0.0,-0.02
2020-08-12 19:24:20.2460,-0.0,0.0,0.02
2020-08-12 19:24:20.3460,0.0,0.0,-0.02
2020-08-12 19:24:20.4450,0.03,0.02,0.01
2020-08-12 19:24:20.5440,0.02,0.0,0.01
2020-08-12 19:24:20.6430,0.0,0.01,-0.02
2020-08-12 19:24:20.7430,0.02,0.0,0.01
2020-08-12 19:24:20.8420,0.0,0.01,0.01
2020-08-12 19:24:20.9410,-0.0,0.02,0.01
2020-08-12 19:24:21.0410,0.08,-0.01,-0.03
2020-08-12 19:24:21.1400,-0.04,0.02,0.02
2020-08-12 19:24:21.2390,0.04,-0.01,-0.05
