time,ax,ay,az
2020-08-12 20:20:24.7570,0.22,-0.04,-0.08
2020-08-12 20:20:24.8560,-0.02,0.01,-0.02
2020-08-12 20:20:24.9560,0.07,-0.0,-0.09
2020-08-12 20:20:25.0560,0.0,0.01,-0.04
2020-08-12 20:20:25.1550,-0.03,0.02,0.01
2020-08-12 20:20:25.2530,0.02,0.01,-0.02
2020-08-12 20:20:25.3520,-0.0,-0.02,0.05
2020-08-12 20:20:25.4520,0.01,-0.0,0.0
2020-08-12 20:20:25.5510,-0.02,0.01,-0.0
2020-08-12 20:20:25.6510,-0.05,0.0,0.02
2020-08-12 20:20:25.7490,-0.01,0.01,0.03
2020-08-12 20:20:25.8490,-0.04,-0.0,0.02
2020-08-12 20:20:25.9480,-0.0,0.01,-0.01
2020-08-12 20:20:26.0470,-0.04,-0.02,0.02
2020-08-12 20:20:26.1460,0.01,0.01,-0.01
2020-08-12 20:20:26.2460,0.01,0.01,0.04
2020-08-12 20:20:26.3450,-0.03,0.01,0.0
2020-08-12 20:20:26.4440,-0.03,-0.0,0.05
2020-08-12 20:20:26.5430,0.05,0.05,-0.0
2020-08-12 20:20:26.6430,-0.01,0.02,0.05
2020-08-12 20:20:26.7420,-0.02,-0.02,0.01
2020-08-12 20:20:26.8410,0.01,-0.0,-0.0
2020-08-12 20:20:26.9400,-0.01,0.02,0.02
2020-08-12 20:20:27.0400,-0.02,-0.03,0.04
2020-08-12 20:20:27.1390,0.0,-0.0,-0.04
2020-08-12 20:20:27.2380,-0.08,-0.07,0.02
2020-08-12 20:20:27.3370,-0.12,-0.24,0.0
2020-08-12 20:20:27.4370,-0.27,-0.38,-0.15
2020-08-12 20:20:27.5360,0.32,-0.22,-0.25
2020-08-12 20:20:27.6350,-0.9,0.16,0.28
2020-08-12 20:20:27.7340,-0.04,-0.11,0.34
2020-08-12 20:20:27.8340,0.16,-0.21,0.25
2020-08-12 20:20:27.9330,0.47,-0.09,0.32
2020-08-12 20:20:28.0320,0.36,-0.06,0.2
2020-08-12 20:20:28.1320,0.43,-0.05,0.03
2020-08-12 20:20:28.2310,0.51,-0.04,-0.15
2020-08-12 20:20:28.3300,0.53,-0.02,-0.24
2020-08-12 20:20:28.4290,0.96,-0.51,0.06
2020-08-12 20:20:28.5290,-0.14,0.05,-0.12
2020-08-12 20:20:28.6280,-0.03,-0.02,0.04
2020-08-12 20:20:28.7270,-0.01,-0.03,0.05
2020-08-12 20:20:28.8260,-0.02,0.0,0.03
2020-08-12 20:20:28.9250,0.0,-0.0,0.04
2020-08-12 20:20:29.0250,-0.04,-0.07,-0.04
2020-08-12 20:20:29.1240,-0.1,-0.23,-0.06
2020-08-12 20:20:29.2230,-0.54,-0.29,0.05
2020-08-12 20:20:29.3230,-0.4,0.05,-0.3
2020-08-12 20:20:29.4220,-0.8,-0.38,0.02
2020-08-12 20:20:29.5210,0.08,-0.04,0.44
2020-08-12 20:20:29.6200,0.32,-0.06,0.35
2020-08-12 20:20:29.7200,0.41,-0.08,0.37
2020-08-12 20:20:29.8190,0.3,-0.09,0.02
2020-08-12 20:20:29.9180,0.43,-0.05,-0.13
2020-08-12 20:20:30.0170,0.45,-0.06,-0.25
2020-08-12 20:20:30.1170,-1.28,-0.09,-0.62
2020-08-12 20:20:30.2160,0.07,0.09,0.15
2020-08-12 20:20:30.3150,-0.07,-0.01,-0.05
2020-08-12 20:20:30.4140,0.01,-0.01,-0.02
2020-08-12 20:20:30.5140,0.02,0.01,0.04
2020-08-12 20:20:30.6130,-0.02,-0.01,0.02
2020-08-12 20:20:30.7120,-0.06,0.01,0.07
2020-08-12 20:20:30.8110,-0.08,-0.03,-0.01
2020-08-12 20:20:30.9110,-0.01,-0.18,-0.03
2020-08-12 20:20:31.0100,-0.34,-0.36,-0.13
2020-08-12 20:20:31.1090,-0.23,-0.04,-0.27
2020-08-12 20:20:31.2080,-0.96,-0.1,0.17
2020-08-12 20:20:31.3080,0.09,-0.2,0.43
2020-08-12 20:20:31.4070,0.19,-0.11,0.4
2020-08-12 20:20:31.5060,0.36,-0.11,0.26
2020-08-12 20:20:31.6050,0.41,-0.07,0.07
2020-08-12 20:20:31.7050,0.56,-0.04,-0.18
2020-08-12 20:20:31.8040,0.61,-0.05,-0.28
2020-08-12 20:20:31.9030,0.5,-0.74,-0.23
2020-08-12 20:20:32.0020,-0.02,-0.18,0.04
2020-08-12 20:20:32.1020,-0.07,-0.01,0.13
2020-08-12 20:20:32.2010,-0.1,0.04,0.06
2020-08-12 20:20:32.3000,-0.01,0.01,0.04
2020-08-12 20:20:32.3990,0.0,0.01,0.01
2020-08-12 20:20:32.4980,-0.02,-0.01,0.04
2020-08-12 20:20:32.5980,-0.04,-0.08,0.08
2020-08-12 20:20:32.6970,-0.22,-0.62,-0.1
2020-08-12 20:20:32.7960,0.11,-0.12,-0.07
2020-08-12 20:20:32.8960,-1.21,0.48,0.12
2020-08-12 20:20:32.9940,0.25,-0.35,0.32
2020-08-12 20:20:33.0940,0.4,-0.03,0.63
2020-08-12 20:20:33.1930,0.24,-0.07,0.42
2020-08-12 20:20:33.2930,0.26,-0.11,0.34
2020-08-12 20:20:33.3920,0.11,-0.07,0.11
2020-08-12 20:20:33.4910,0.26,-0.17,-0.11
2020-08-12 20:20:33.5900,0.37,-0.13,-0.25
2020-08-12 20:20:33.6900,-0.31,-0.05,-0.05
2020-08-12 20:20:33.7890,0.12,0.04,0.08
2020-08-12 20:20:33.8880,-0.03,0.02,0.13
2020-08-12 20:20:33.9870,-0.04,0.01,0.02
2020-08-12 20:20:34.0860,-0.0,0.02,0.05
2020-08-12 20:20:34.1860,-0.03,0.01,0.05
2020-08-12 20:20:34.2850,-0.03,-0.01,0.02
2020-08-12 20:20:34.3840,-0.05,-0.04,0.04
2020-08-12 20:20:34.4840,-0.14,-0.32,-0.03
2020-08-12 20:20:34.5830,-0.16,-0.14,0.19
2020-08-12 20:20:34.6820,-1.22,0.31,-0.11
2020-08-12 20:20:34.7810,-0.47,-0.18,-0.02
2020-08-12 20:20:34.8800,0.28,-0.12,0.56
2020-08-12 20:20:34.9800,0.41,-0.07,0.53
2020-08-12 20:20:35.0790,0.48,-0.14,0.26
2020-08-12 20:20:35.1780,0.25,-0.06,-0.04
2020-08-12 20:20:35.2780,0.45,-0.05,-0.13
2020-08-12 20:20:35.3770,0.45,-0.04,-0.22
2020-08-12 20:20:35.4760,0.08,-0.34,0.22
2020-08-12 20:20:35.5750,0.1,-0.02,0.15
2020-08-12 20:20:35.6750,-0.0,-0.01,0.03
2020-08-12 20:20:35.7740,0.06,-0.03,-0.07
2020-08-12 20:20:35.8730,0.06,-0.0,0.01
2020-08-12 20:20:35.9720,0.05,0.02,0.01
2020-08-12 20:20:36.0720,-0.03,0.03,0.02
2020-08-12 20:20:36.1710,-0.15,-0.01,0.03
2020-08-12 20:20:36.2700,-0.01,-0.11,0.04
2020-08-12 20:20:36.3700,-0.32,-0.35,-0.06
2020-08-12 20:20:36.4690,0.26,-0.1,-0.06
2020-08-12 20:20:36.5680,-0.97,0.12,-0.04
2020-08-12 20:20:36.6670,-0.19,-0.2,0.33
2020-08-12 20:20:36.7650,0.21,-0.1,0.5
2020-08-12 20:20:36.8660,0.17,-0.05,0.43
2020-08-12 20:20:36.9650,0.32,-0.05,0.33
2020-08-12 20:20:37.0650,0.35,-0.11,0.01
2020-08-12 20:20:37.1630,0.47,-0.06,-0.12
2020-08-12 20:20:37.2630,0.32,-0.07,-0.26
2020-08-12 20:20:37.3620,-0.68,-0.03,-0.13
2020-08-12 20:20:37.4610,0.2,0.11,0.28
2020-08-12 20:20:37.5600,-0.0,-0.0,0.11
2020-08-12 20:20:37.6600,-0.04,-0.0,-0.04
2020-08-12 20:20:37.7580,0.01,0.0,0.03
2020-08-12 20:20:37.8590,-0.02,0.02,0.0
2020-08-12 20:20:37.9570,-0.01,-0.01,0.01
2020-08-12 20:20:38.0570,-0.13,-0.03,0.08
2020-08-12 20:20:38.1550,-0.06,-0.11,0.05
2020-08-12 20:20:38.2550,-0.28,-0.48,-0.0
2020-08-12 20:20:38.3550,0.17,-0.14,0.14
2020-08-12 20:20:38.4540,-1.36,0.24,0.19
2020-08-12 20:20:38.5520,0.08,-0.28,0.15
2020-08-12 20:20:38.6520,0.31,-0.15,0.33
2020-08-12 20:20:38.7510,0.34,-0.1,0.28
2020-08-12 20:20:38.8510,0.37,-0.03,0.27
2020-08-12 20:20:38.9500,0.31,-0.02,0.04
2020-08-12 20:20:39.0490,0.47,-0.06,-0.04
2020-08-12 20:20:39.1480,0.4,-0.08,-0.28
2020-08-12 20:20:39.2480,0.3,-0.21,0.09
2020-08-12 20:20:39.3470,-0.33,0.05,0.08
2020-08-12 20:20:39.4460,-0.1,0.03,0.14
2020-08-12 20:20:39.5450,-0.05,-0.01,0.03
2020-08-12 20:20:39.6450,-0.04,0.04,0.07
2020-08-12 20:20:39.7440,-0.04,0.0,0.02
2020-08-12 20:20:39.8420,-0.04,0.02,0.03
2020-08-12 20:20:39.9420,-0.14,-0.0,0.05
2020-08-12 20:20:40.0420,-0.15,-0.1,-0.01
2020-08-12 20:20:40.1410,-0.54,-0.45,0.04
2020-08-12 20:20:40.2400,-0.1,0.01,-0.4
2020-08-12 20:20:40.3390,-0.8,0.1,0.01
2020-08-12 20:20:40.4390,-0.13,-0.23,0.21
2020-08-12 20:20:40.5380,0.29,-0.01,0.46
2020-08-12 20:20:40.6370,0.34,-0.02,0.4
2020-08-12 20:20:40.7360,0.26,-0.05,0.22
2020-08-12 20:20:40.8360,0.24,0.01,0.13
2020-08-12 20:20:40.9350,0.12,-0.04,-0.1
2020-08-12 20:20:41.0340,0.33,-0.03,-0.2
2020-08-12 20:20:41.1330,-0.1,-0.2,-0.69
2020-08-12 20:20:41.2330,0.33,-0.25,-0.12
2020-08-12 20:20:41.3310,-0.16,-0.03,0.03
2020-08-12 20:20:41.4310,-0.05,0.01,0.03
2020-08-12 20:20:41.5310,-0.0,0.0,0.02
2020-08-12 20:20:41.6300,-0.0,-0.0,0.02
2020-08-12 20:20:41.7290,-0.02,0.01,-0.01
2020-08-12 20:20:41.8280,-0.11,0.02,0.02
2020-08-12 20:20:41.9280,-0.09,-0.06,0.05
2020-08-12 20:20:42.0270,-0.21,-0.39,-0.1
2020-08-12 20:20:42.1250,-0.17,0.06,-0.09
2020-08-12 20:20:42.2240,-0.56,0.09,-0.26
2020-08-12 20:20:42.3250,-0.49,-0.14,0.08
2020-08-12 20:20:42.4240,-0.17,-0.07,0.43
2020-08-12 20:20:42.5230,0.12,-0.14,0.36
2020-08-12 20:20:42.6220,0.39,-0.11,0.24
2020-08-12 20:20:42.7210,0.37,-0.04,0.15
2020-08-12 20:20:42.8210,0.33,-0.05,-0.02
2020-08-12 20:20:42.9200,0.39,-0.06,-0.2
2020-08-12 20:20:43.0180,0.11,-0.25,-0.48
2020-08-12 20:20:43.1190,0.54,-0.59,-0.02
2020-08-12 20:20:43.2170,-0.28,0.08,-0.01
2020-08-12 20:20:43.3170,0.0,-0.03,-0.03
2020-08-12 20:20:43.4160,-0.05,0.01,0.05
2020-08-12 20:20:43.5160,-0.06,0.01,0.01
2020-08-12 20:20:43.6150,-0.05,-0.01,0.02
2020-08-12 20:20:43.7140,-0.11,0.02,0.02
2020-08-12 20:20:43.8130,-0.08,-0.05,0.04
2020-08-12 20:20:43.9120,-0.18,-0.35,0.04
2020-08-12 20:20:44.0120,-0.16,0.02,0.0
2020-08-12 20:20:44.1100,-0.65,0.17,-0.41
2020-08-12 20:20:44.2100,-0.17,-0.13,-0.13
2020-08-12 20:20:44.3100,-0.19,-0.15,0.3
2020-08-12 20:20:44.4080,0.07,-0.06,0.48
2020-08-12 20:20:44.5080,0.2,-0.05,0.41
2020-08-12 20:20:44.6060,0.23,-0.03,0.32
2020-08-12 20:20:44.7070,0.34,-0.08,0.06
2020-08-12 20:20:44.8050,0.29,-0.06,-0.11
2020-08-12 20:20:44.9050,0.4,-0.06,-0.32
2020-08-12 20:20:45.0040,-0.75,0.03,-0.23
2020-08-12 20:20:45.1040,0.35,0.11,0.09
2020-08-12 20:20:45.2030,0.21,-0.1,-0.01
2020-08-12 20:20:45.3020,-0.0,0.02,-0.05
2020-08-12 20:20:45.4010,0.02,-0.01,0.01
2020-08-12 20:20:45.5000,-0.04,0.01,-0.0
2020-08-12 20:20:45.6000,-0.08,-0.0,0.01
2020-08-12 20:20:45.6990,-0.13,-0.04,0.02
2020-08-12 20:20:45.7980,-0.12,-0.09,0.06
2020-08-12 20:20:45.8980,-0.37,-0.35,0.01
2020-08-12 20:20:45.9970,0.23,0.0,-0.08
2020-08-12 20:20:46.0950,-0.76,0.05,-0.19
2020-08-12 20:20:46.1950,-0.24,-0.09,0.04
2020-08-12 20:20:46.2950,-0.02,-0.03,0.35
2020-08-12 20:20:46.3930,0.13,-0.05,0.42
2020-08-12 20:20:46.4930,0.16,-0.05,0.35
2020-08-12 20:20:46.5920,0.26,-0.06,0.21
2020-08-12 20:20:46.6910,0.3,-0.08,-0.01
2020-08-12 20:20:46.7900,0.46,-0.05,-0.23
2020-08-12 20:20:46.8900,0.41,-0.03,-0.33
2020-08-12 20:20:46.9880,0.4,-0.32,0.37
2020-08-12 20:20:47.0890,-0.18,0.01,-0.01
2020-08-12 20:20:47.1880,-0.01,0.01,0.05
2020-08-12 20:20:47.2870,-0.01,-0.0,0.02
2020-08-12 20:20:47.3860,0.0,-0.01,-0.02
2020-08-12 20:20:47.4860,-0.03,0.01,0.03
2020-08-12 20:20:47.5850,-0.01,-0.01,-0.01
2020-08-12 20:20:47.6830,-0.08,-0.03,-0.0
2020-08-12 20:20:47.7830,-0.1,-0.17,0.03
2020-08-12 20:20:47.8830,-0.21,-0.19,-0.22
2020-08-12 20:20:47.9820,-0.02,0.09,-0.3
2020-08-12 20:20:48.0810,-0.71,-0.0,0.11
2020-08-12 20:20:48.1800,-0.31,-0.0,0.39
2020-08-12 20:20:48.2800,0.02,-0.02,0.55
2020-08-12 20:20:48.3780,0.08,-0.06,0.45
2020-08-12 20:20:48.4780,0.19,-0.11,0.1
2020-08-12 20:20:48.5770,0.25,-0.1,-0.05
2020-08-12 20:20:48.6770,0.36,-0.06,-0.15
2020-08-12 20:20:48.7760,0.43,-0.01,-0.19
2020-08-12 20:20:48.8750,-0.97,0.1,-0.34
2020-08-12 20:20:48.9740,0.4,-0.05,-0.19
2020-08-12 20:20:49.0730,0.19,-0.05,-0.12
2020-08-12 20:20:49.1730,0.03,-0.02,-0.01
2020-08-12 20:20:49.2720,-0.02,0.02,0.02
2020-08-12 20:20:49.3710,-0.01,-0.01,-0.01
2020-08-12 20:20:49.4710,-0.03,-0.0,0.01
2020-08-12 20:20:49.5700,-0.03,-0.0,-0.03
2020-08-12 20:20:49.6690,-0.02,-0.03,0.01
2020-08-12 20:20:49.7680,-0.08,-0.2,0.02
2020-08-12 20:20:49.8680,-0.13,-0.14,-0.39
2020-08-12 20:20:49.9670,-0.05,-0.04,-0.17
2020-08-12 20:20:50.0670,-0.69,0.05,0.12
2020-08-12 20:20:50.1650,-0.27,0.03,0.28
2020-08-12 20:20:50.2640,-0.01,-0.06,0.39
2020-08-12 20:20:50.3640,0.15,-0.13,0.28
2020-08-12 20:20:50.4630,0.29,-0.12,0.12
2020-08-12 20:20:50.5620,0.36,-0.12,-0.04
2020-08-12 20:20:50.6620,0.43,-0.04,-0.15
2020-08-12 20:20:50.7610,0.44,-0.03,-0.26
2020-08-12 20:20:50.8600,0.13,-0.21,0.14
2020-08-12 20:20:50.9590,-0.04,0.05,0.1
2020-08-12 20:20:51.0590,0.02,-0.02,0.03
2020-08-12 20:20:51.1580,-0.01,0.0,0.0
2020-08-12 20:20:51.2570,-0.02,0.0,0.01
2020-08-12 20:20:51.3570,-0.04,-0.0,0.02
2020-08-12 20:20:51.4560,-0.01,-0.0,-0.02
2020-08-12 20:20:51.5550,-0.13,0.04,0.02
2020-08-12 20:20:51.6530,-0.13,-0.02,0.08
2020-08-12 20:20:51.7530,-0.21,-0.5,-0.09
2020-08-12 20:20:51.8530,0.22,-0.08,-0.24
2020-08-12 20:20:51.9520,-0.66,0.04,0.07
2020-08-12 20:20:52.0510,-0.15,-0.05,0.22
2020-08-12 20:20:52.1500,0.01,-0.02,0.51
2020-08-12 20:20:52.2500,0.08,-0.05,0.56
2020-08-12 20:20:52.3490,0.12,-0.09,0.35
2020-08-12 20:20:52.4480,0.3,-0.09,0.12
2020-08-12 20:20:52.5460,0.39,-0.12,-0.14
2020-08-12 20:20:52.6470,0.49,-0.06,-0.33
2020-08-12 20:20:52.7460,-0.88,0.04,-0.42
2020-08-12 20:20:52.8450,0.29,0.07,-0.03
2020-08-12 20:20:52.9450,0.16,-0.09,-0.09
2020-08-12 20:20:53.0440,0.0,-0.02,-0.01
2020-08-12 20:20:53.1430,-0.02,0.01,0.04
2020-08-12 20:20:53.2410,-0.03,0.0,-0.02
2020-08-12 20:20:53.3410,-0.04,0.01,0.01
2020-08-12 20:20:53.4410,-0.07,-0.01,-0.03
2020-08-12 20:20:53.5400,-0.05,-0.1,0.04
2020-08-12 20:20:53.6380,-0.17,-0.27,-0.07
2020-08-12 20:20:53.7380,-0.02,-0.03,-0.14
2020-08-12 20:20:53.8380,-0.5,0.15,-0.24
2020-08-12 20:20:53.9370,-0.3,-0.04,0.06
2020-08-12 20:20:54.0360,-0.17,-0.01,0.45
2020-08-12 20:20:54.1360,-0.05,-0.02,0.54
2020-08-12 20:20:54.2340,0.08,-0.09,0.26
2020-08-12 20:20:54.3340,0.2,-0.07,0.15
2020-08-12 20:20:54.4330,0.33,-0.1,0.05
2020-08-12 20:20:54.5330,0.45,-0.05,-0.18
2020-08-12 20:20:54.6320,0.33,-0.16,-0.51
2020-08-12 20:20:54.7310,0.09,-0.25,0.06
2020-08-12 20:20:54.8300,-0.14,0.0,-0.06
2020-08-12 20:20:54.9300,-0.0,-0.02,0.05
2020-08-12 20:20:55.0290,-0.05,0.02,0.04
2020-08-12 20:20:55.1280,-0.03,-0.01,-0.01
2020-08-12 20:20:55.2270,-0.04,0.01,0.0
2020-08-12 20:20:55.3260,-0.07,0.02,0.02
2020-08-12 20:20:55.4260,-0.03,-0.05,-0.02
2020-08-12 20:20:55.5250,-0.07,-0.29,0.04
2020-08-12 20:20:55.6230,-0.25,-0.01,-0.19
2020-08-12 20:20:55.7240,-0.46,0.14,-0.16
2020-08-12 20:20:55.8230,-0.47,0.01,0.16
2020-08-12 20:20:55.9210,-0.21,-0.0,0.35
2020-08-12 20:20:56.0210,0.01,-0.07,0.4
2020-08-12 20:20:56.1200,0.17,-0.12,0.31
2020-08-12 20:20:56.2200,0.35,-0.13,0.13
2020-08-12 20:20:56.3180,0.35,-0.06,-0.06
2020-08-12 20:20:56.4180,0.39,-0.07,-0.23
2020-08-12 20:20:56.5170,-0.1,-0.19,-0.7
2020-08-12 20:20:56.6170,0.09,-0.35,0.04
2020-08-12 20:20:56.7160,-0.13,-0.03,-0.1
2020-08-12 20:20:56.8150,0.0,-0.02,-0.0
2020-08-12 20:20:56.9140,-0.01,0.02,0.01
2020-08-12 20:20:57.0140,0.01,0.02,-0.01
2020-08-12 20:20:57.1130,0.02,0.0,-0.05
2020-08-12 20:20:57.2120,-0.08,0.0,-0.01
2020-08-12 20:20:57.3110,-0.06,-0.05,0.02
2020-08-12 20:20:57.4100,-0.05,-0.24,0.02
2020-08-12 20:20:57.5090,-0.17,-0.1,-0.15
2020-08-12 20:20:57.6080,-0.15,0.07,-0.45
2020-08-12 20:20:57.7080,-0.31,0.02,0.03
2020-08-12 20:20:57.8080,-0.29,0.02,0.41
2020-08-12 20:20:57.9070,-0.08,-0.09,0.47
2020-08-12 20:20:58.0060,0.07,-0.08,0.37
2020-08-12 20:20:58.1050,0.19,-0.11,0.22
2020-08-12 20:20:58.2050,0.26,-0.09,-0.01
2020-08-12 20:20:58.3040,0.52,-0.08,-0.24
2020-08-12 20:20:58.4030,0.44,-0.15,-0.51
2020-08-12 20:20:58.5030,0.54,-0.46,0.27
2020-08-12 20:20:58.6020,-0.04,0.01,-0.06
2020-08-12 20:20:58.7010,0.08,-0.01,0.03
2020-08-12 20:20:58.8000,-0.02,0.01,-0.02
2020-08-12 20:20:58.9000,-0.01,-0.01,-0.02
2020-08-12 20:20:58.9990,-0.01,0.0,-0.01
2020-08-12 20:20:59.0980,-0.02,0.03,0.01
2020-08-12 20:20:59.1970,-0.04,-0.02,-0.02
2020-08-12 20:20:59.2970,-0.02,-0.1,0.03
2020-08-12 20:20:59.3950,-0.22,-0.4,-0.15
2020-08-12 20:20:59.4950,0.03,-0.15,-0.3
2020-08-12 20:20:59.5940,-0.97,0.06,0.11
2020-08-12 20:20:59.6940,-0.3,-0.05,0.44
2020-08-12 20:20:59.7910,0.05,-0.07,0.42
2020-08-12 20:20:59.8950,0.16,-0.09,0.3
2020-08-12 20:20:59.9900,0.34,-0.11,0.19
2020-08-12 20:21:00.0920,0.41,-0.09,0.02
2020-08-12 20:21:00.1880,0.44,-0.06,-0.25
2020-08-12 20:21:00.2930,0.37,-0.09,-0.32
2020-08-12 20:21:00.3870,0.2,-0.27,0.3
2020-08-12 20:21:00.4860,-0.15,-0.02,-0.02
2020-08-12 20:21:00.5940,-0.05,-0.01,0.09
2020-08-12 20:21:00.6850,-0.11,0.02,0.01
2020-08-12 20:21:00.7860,-0.04,0.0,0.0
2020-08-12 20:21:00.8830,-0.0,-0.0,0.0
2020-08-12 20:21:00.9840,0.01,-0.0,-0.04
2020-08-12 20:21:01.0830,-0.03,0.01,-0.03
2020-08-12 20:21:01.1820,-0.03,-0.07,0.07
2020-08-12 20:21:01.2820,-0.25,-0.59,-0.08
2020-08-12 20:21:01.3810,0.14,-0.1,-0.08
2020-08-12 20:21:01.4790,-0.76,0.14,-0.04
2020-08-12 20:21:01.5790,-0.16,-0.11,0.1
2020-08-12 20:21:01.6790,0.03,-0.06,0.37
2020-08-12 20:21:01.7770,0.22,-0.04,0.42
2020-08-12 20:21:01.8770,0.23,-0.02,0.34
2020-08-12 20:21:01.9760,0.25,-0.06,0.14
2020-08-12 20:21:02.0760,0.32,-0.09,-0.09
2020-08-12 20:21:02.1750,0.22,-0.03,-0.27
2020-08-12 20:21:02.2740,-0.1,-0.31,-0.74
2020-08-12 20:21:02.3730,0.13,0.04,-0.1
2020-08-12 20:21:02.4730,-0.0,-0.02,-0.07
2020-08-12 20:21:02.5720,0.03,-0.03,-0.03
2020-08-12 20:21:02.6710,-0.02,0.02,0.03
2020-08-12 20:21:02.7700,0.01,-0.01,-0.04
2020-08-12 20:21:02.8700,-0.0,0.01,-0.0
2020-08-12 20:21:02.9690,-0.11,0.0,0.01
2020-08-12 20:21:03.0680,-0.11,-0.06,0.06
2020-08-12 20:21:03.1680,-0.16,-0.28,-0.06
2020-08-12 20:21:03.2670,-0.27,-0.02,-0.14
2020-08-12 20:21:03.3660,-0.57,0.14,-0.04
2020-08-12 20:21:03.4650,-0.27,0.02,0.09
2020-08-12 20:21:03.5650,-0.13,-0.01,0.36
2020-08-12 20:21:03.6640,-0.03,-0.04,0.44
2020-08-12 20:21:03.7630,0.22,-0.09,0.34
2020-08-12 20:21:03.8620,0.37,-0.12,0.09
2020-08-12 20:21:03.9610,0.44,-0.09,-0.15
2020-08-12 20:21:04.0610,0.39,-0.05,-0.27
2020-08-12 20:21:04.1600,-0.51,0.03,-0.22
2020-08-12 20:21:04.2590,0.15,0.12,-0.03
2020-08-12 20:21:04.3590,0.14,-0.06,-0.08
2020-08-12 20:21:04.4580,0.01,-0.02,-0.05
2020-08-12 20:21:04.5570,0.01,0.01,-0.01
2020-08-12 20:21:04.6560,-0.02,0.01,-0.0
2020-08-12 20:21:04.7560,0.02,0.0,-0.01
2020-08-12 20:21:04.8550,-0.03,0.02,0.01
2020-08-12 20:21:04.9540,-0.04,-0.01,-0.05
2020-08-12 20:21:05.0530,-0.12,-0.25,0.04
2020-08-12 20:21:05.1530,-0.25,-0.12,-0.17
2020-08-12 20:21:05.2520,0.04,-0.01,-0.43
2020-08-12 20:21:05.3510,-0.73,0.01,0.1
2020-08-12 20:21:05.4500,-0.26,-0.06,0.36
2020-08-12 20:21:05.5500,0.05,-0.05,0.36
2020-08-12 20:21:05.6490,0.25,-0.06,0.31
2020-08-12 20:21:05.7480,0.18,-0.05,0.25
2020-08-12 20:21:05.8470,0.2,-0.07,0.03
2020-08-12 20:21:05.9460,0.37,-0.07,-0.13
2020-08-12 20:21:06.0460,0.49,-0.01,-0.28
2020-08-12 20:21:06.1450,0.08,-0.22,-0.05
2020-08-12 20:21:06.2440,0.12,0.0,-0.04
2020-08-12 20:21:06.3440,-0.01,-0.02,-0.02
2020-08-12 20:21:06.4430,-0.09,-0.02,-0.02
2020-08-12 20:21:06.5420,-0.01,0.01,0.0
2020-08-12 20:21:06.6420,-0.09,0.04,0.01
2020-08-12 20:21:06.7410,-0.1,0.02,0.04
2020-08-12 20:21:06.8400,-0.09,0.02,0.02
2020-08-12 20:21:06.9390,-0.06,-0.01,0.01
2020-08-12 20:21:07.0380,-0.07,-0.1,0.04
2020-08-12 20:21:07.1380,-0.24,-0.34,-0.05
2020-08-12 20:21:07.2370,-0.03,-0.13,-0.34
2020-08-12 20:21:07.3360,-0.91,0.01,0.08
2020-08-12 20:21:07.4350,-0.26,-0.05,0.17
2020-08-12 20:21:07.5350,0.1,-0.03,0.29
2020-08-12 20:21:07.6330,0.1,-0.01,0.38
2020-08-12 20:21:07.7320,0.12,-0.03,0.35
2020-08-12 20:21:07.8320,0.21,-0.09,0.11
2020-08-12 20:21:07.9320,0.32,-0.1,-0.07
2020-08-12 20:21:08.0310,0.31,-0.06,-0.3
2020-08-12 20:21:08.1300,-0.28,-0.05,-0.44
2020-08-12 20:21:08.2290,0.13,0.14,-0.09
2020-08-12 20:21:08.3290,0.05,-0.03,-0.02
2020-08-12 20:21:08.4270,-0.06,-0.01,-0.01
2020-08-12 20:21:08.5270,-0.02,0.01,0.02
2020-08-12 20:21:08.6260,-0.02,-0.01,-0.02
2020-08-12 20:21:08.7250,-0.0,-0.03,0.0
2020-08-12 20:21:08.8250,-0.02,-0.0,-0.01
2020-08-12 20:21:08.9230,-0.1,-0.06,0.07
2020-08-12 20:21:09.0230,-0.23,-0.51,-0.12
2020-08-12 20:21:09.1230,0.02,0.05,0.03
2020-08-12 20:21:09.2220,-0.74,0.13,0.14
2020-08-12 20:21:09.3210,-0.13,-0.02,0.24
2020-08-12 20:21:09.4210,0.07,-0.01,0.31
2020-08-12 20:21:09.5200,0.09,-0.06,0.28
2020-08-12 20:21:09.6190,0.17,-0.07,0.15
2020-08-12 20:21:09.7180,0.24,-0.08,-0.0
2020-08-12 20:21:09.8180,0.39,-0.07,-0.21
2020-08-12 20:21:09.9170,0.37,-0.04,-0.29
2020-08-12 20:21:10.0160,-0.37,-0.23,-0.3
2020-08-12 20:21:10.1150,0.15,0.09,-0.05
2020-08-12 20:21:10.2140,0.06,-0.05,-0.08
2020-08-12 20:21:10.3130,0.02,-0.0,-0.01
2020-08-12 20:21:10.4130,-0.02,0.0,0.04
2020-08-12 20:21:10.5120,-0.04,-0.01,-0.01
2020-08-12 20:21:10.6110,-0.04,0.02,0.0
2020-08-12 20:21:10.7100,-0.06,0.02,0.01
2020-08-12 20:21:10.8100,-0.05,-0.03,0.0
2020-08-12 20:21:10.9090,-0.06,-0.2,0.06
2020-08-12 20:21:11.0090,-0.28,0.05,-0.24
2020-08-12 20:21:11.1080,-0.14,-0.02,-0.27
2020-08-12 20:21:11.2070,-0.58,0.02,0.17
2020-08-12 20:21:11.3060,-0.19,0.02,0.38
2020-08-12 20:21:11.4050,-0.0,-0.08,0.38
2020-08-12 20:21:11.5050,0.09,-0.1,0.22
2020-08-12 20:21:11.6040,0.32,-0.07,0.04
2020-08-12 20:21:11.7030,0.49,-0.06,-0.12
2020-08-12 20:21:11.8020,0.45,-0.01,-0.26
2020-08-12 20:21:11.9020,0.36,-0.39,0.12
2020-08-12 20:21:12.0010,0.0,-0.09,-0.01
2020-08-12 20:21:12.1000,-0.09,-0.0,0.1
2020-08-12 20:21:12.1990,-0.05,0.01,-0.02
2020-08-12 20:21:12.2990,-0.0,0.0,0.01
2020-08-12 20:21:12.3970,-0.0,0.0,-0.02
2020-08-12 20:21:12.4970,-0.02,-0.0,-0.04
2020-08-12 20:21:12.5970,-0.07,0.0,0.01
2020-08-12 20:21:12.6960,-0.06,-0.08,0.0
2020-08-12 20:21:12.7950,0.02,-0.13,-0.26
2020-08-12 20:21:12.8950,-0.25,-0.04,-0.49
2020-08-12 20:21:12.9940,-0.5,-0.04,0.04
2020-08-12 20:21:13.0930,-0.22,-0.04,0.37
2020-08-12 20:21:13.1920,-0.04,-0.07,0.45
2020-08-12 20:21:13.2910,0.11,-0.07,0.4
2020-08-12 20:21:13.3910,0.28,-0.1,0.23
2020-08-12 20:21:13.4900,0.41,-0.08,-0.07
2020-08-12 20:21:13.5890,0.42,-0.05,-0.31
2020-08-12 20:21:13.6880,-0.67,-0.03,-0.39
2020-08-12 20:21:13.7870,0.27,0.06,0.09
2020-08-12 20:21:13.8870,0.13,-0.05,-0.04
2020-08-12 20:21:13.9860,-0.05,0.0,-0.01
2020-08-12 20:21:14.0850,0.03,-0.02,-0.01
2020-08-12 20:21:14.1840,-0.02,0.02,0.01
2020-08-12 20:21:14.2830,-0.06,-0.0,0.01
2020-08-12 20:21:14.3830,-0.09,0.01,-0.01
2020-08-12 20:21:14.4820,-0.13,-0.03,0.07
2020-08-12 20:21:14.5810,-0.15,-0.25,0.03
2020-08-12 20:21:14.6810,-0.39,-0.03,-0.08
2020-08-12 20:21:14.7800,-0.65,0.18,-0.21
2020-08-12 20:21:14.8800,-0.4,-0.09,0.04
2020-08-12 20:21:14.9790,-0.07,-0.05,0.23
2020-08-12 20:21:15.0780,0.07,-0.07,0.35
2020-08-12 20:21:15.1760,0.26,-0.06,0.27
2020-08-12 20:21:15.2760,0.32,-0.06,0.19
2020-08-12 20:21:15.3750,0.36,-0.07,-0.06
2020-08-12 20:21:15.4750,0.35,-0.05,-0.29
2020-08-12 20:21:15.5740,-0.34,-0.03,-0.33
2020-08-12 20:21:15.6730,0.32,0.15,0.05
2020-08-12 20:21:15.7730,0.11,-0.06,-0.01
2020-08-12 20:21:15.8720,-0.06,-0.0,-0.03
2020-08-12 20:21:15.9710,0.01,0.01,0.01
2020-08-12 20:21:16.0700,-0.01,-0.01,-0.01
2020-08-12 20:21:16.1700,-0.02,0.0,-0.01
2020-08-12 20:21:16.2690,-0.03,-0.0,0.0
2020-08-12 20:21:16.3680,-0.08,-0.01,0.06
2020-08-12 20:21:16.4660,-0.1,-0.22,0.04
2020-08-12 20:21:16.5670,-0.3,0.13,-0.27
2020-08-12 20:21:16.6660,-0.0,-0.03,-0.28
2020-08-12 20:21:16.7650,-0.67,0.03,0.19
2020-08-12 20:21:16.8650,-0.26,-0.01,0.37
2020-08-12 20:21:16.9640,0.04,-0.06,0.33
2020-08-12 20:21:17.0630,0.21,-0.12,0.14
2020-08-12 20:21:17.1620,0.23,-0.1,0.07
2020-08-12 20:21:17.2610,0.3,-0.05,-0.03
2020-08-12 20:21:17.3610,0.47,-0.03,-0.19
2020-08-12 20:21:17.4600,-0.28,-0.35,-0.72
2020-08-12 20:21:17.5590,0.29,0.15,-0.01
2020-08-12 20:21:17.6590,-0.03,-0.0,-0.04
2020-08-12 20:21:17.7580,-0.03,-0.03,-0.02
2020-08-12 20:21:17.8570,-0.06,0.01,0.03
2020-08-12 20:21:17.9560,-0.02,0.01,0.02
2020-08-12 20:21:18.0550,-0.08,0.01,0.01
2020-08-12 20:21:18.1550,-0.08,-0.0,0.03
2020-08-12 20:21:18.2540,-0.06,-0.01,0.03
2020-08-12 20:21:18.3530,-0.06,-0.12,-0.0
2020-08-12 20:21:18.4530,-0.29,-0.32,-0.03
2020-08-12 20:21:18.5510,-0.25,0.06,-0.28
2020-08-12 20:21:18.6510,-0.78,-0.04,0.06
2020-08-12 20:21:18.7500,-0.22,-0.08,0.18
2020-08-12 20:21:18.8490,0.08,-0.06,0.25
2020-08-12 20:21:18.9490,0.26,-0.02,0.39
2020-08-12 20:21:19.0480,0.22,-0.03,0.34
2020-08-12 20:21:19.1470,0.31,-0.09,0.08
2020-08-12 20:21:19.2460,0.55,-0.14,-0.31
2020-08-12 20:21:19.3460,0.14,-0.16,-0.54
2020-08-12 20:21:19.4440,0.14,-0.4,0.47
2020-08-12 20:21:19.5440,-0.24,0.05,-0.0
2020-08-12 20:21:19.6440,-0.02,-0.0,0.06
2020-08-12 20:21:19.7430,0.01,0.01,0.02
2020-08-12 20:21:19.8420,-0.02,0.01,0.0
2020-08-12 20:21:19.9410,-0.06,0.02,0.05
2020-08-12 20:21:20.0410,-0.05,0.02,0.01
2020-08-12 20:21:20.1400,-0.1,-0.02,0.01
2020-08-12 20:21:20.2380,-0.08,-0.13,0.03
2020-08-12 20:21:20.3380,-0.27,-0.3,-0.07
2020-08-12 20:21:20.4380,0.04,-0.02,0.01
2020-08-12 20:21:20.5370,-0.91,0.05,0.07
2020-08-12 20:21:20.6360,-0.15,-0.13,0.2
2020-08-12 20:21:20.7350,0.24,-0.1,0.27
2020-08-12 20:21:20.8340,0.16,-0.04,0.31
2020-08-12 20:21:20.9340,0.29,-0.05,0.23
2020-08-12 20:21:21.0330,0.39,-0.06,0.06
2020-08-12 20:21:21.1320,0.38,-0.07,-0.14
2020-08-12 20:21:21.2320,0.06,-0.18,-0.53
2020-08-12 20:21:21.3310,0.15,-0.62,0.23
2020-08-12 20:21:21.4300,-0.16,0.06,-0.12
2020-08-12 20:21:21.5290,0.06,-0.02,0.02
2020-08-12 20:21:21.6290,0.01,0.01,0.04
2020-08-12 20:21:21.7280,-0.01,-0.02,0.0
2020-08-12 20:21:21.8270,-0.01,0.0,-0.01
2020-08-12 20:21:21.9260,-0.05,0.01,-0.02
2020-08-12 20:21:22.0260,-0.12,-0.02,0.11
2020-08-12 20:21:22.1250,-0.19,-0.36,-0.06
2020-08-12 20:21:22.2240,-0.2,0.03,0.05
2020-08-12 20:21:22.3230,-0.65,0.24,-0.11
2020-08-12 20:21:22.4220,-0.39,-0.06,0.08
2020-08-12 20:21:22.5220,-0.14,-0.06,0.23
2020-08-12 20:21:22.6200,0.12,-0.09,0.27
2020-08-12 20:21:22.7200,0.23,-0.09,0.19
2020-08-12 20:21:22.8190,0.39,-0.11,0.13
2020-08-12 20:21:22.9190,0.4,-0.07,-0.02
2020-08-12 20:21:23.0180,0.43,-0.05,-0.27
2020-08-12 20:21:23.1170,-0.96,-0.01,-0.51
2020-08-12 20:21:23.2170,0.06,0.13,0.08
2020-08-12 20:21:23.3160,0.03,-0.05,-0.08
2020-08-12 20:21:23.4150,0.04,-0.02,0.04
2020-08-12 20:21:23.5150,0.04,0.01,0.0
2020-08-12 20:21:23.6140,-0.02,-0.01,0.03
2020-08-12 20:21:23.7130,-0.04,-0.01,0.01
2020-08-12 20:21:23.8120,-0.08,-0.0,0.02
2020-08-12 20:21:23.9110,-0.07,-0.07,0.07
2020-08-12 20:21:24.0110,-0.17,-0.57,-0.09
2020-08-12 20:21:24.1090,0.05,0.03,-0.02
2020-08-12 20:21:24.2090,-0.74,0.19,0.1
2020-08-12 20:21:24.3080,-0.27,-0.07,0.21
2020-08-12 20:21:24.4080,0.05,-0.06,0.41
2020-08-12 20:21:24.5080,0.18,-0.12,0.35
2020-08-12 20:21:24.6060,0.31,-0.09,0.19
2020-08-12 20:21:24.7040,0.39,-0.07,-0.04
2020-08-12 20:21:24.8050,0.44,-0.06,-0.25
2020-08-12 20:21:24.9040,-0.49,-0.27,-0.93
2020-08-12 20:21:25.0020,0.09,0.08,-0.12
2020-08-12 20:21:25.1020,-0.03,-0.0,-0.11
2020-08-12 20:21:25.2020,0.04,-0.02,-0.01
2020-08-12 20:21:25.3010,0.01,0.01,0.03
2020-08-12 20:21:25.4000,-0.01,-0.0,-0.02
2020-08-12 20:21:25.5000,-0.04,0.01,0.03
2020-08-12 20:21:25.5990,-0.02,0.01,0.02
2020-08-12 20:21:25.6980,-0.08,-0.04,0.04
2020-08-12 20:21:25.7960,-0.1,-0.24,0.03
2020-08-12 20:21:25.8960,-0.2,0.01,-0.29
2020-08-12 20:21:25.9960,-0.19,0.04,-0.36
2020-08-12 20:21:26.0950,-0.57,-0.03,0.13
2020-08-12 20:21:26.1940,-0.24,-0.03,0.44
2020-08-12 20:21:26.2930,-0.04,-0.09,0.47
2020-08-12 20:21:26.3930,0.19,-0.17,0.26
2020-08-12 20:21:26.4920,0.38,-0.14,0.05
2020-08-12 20:21:26.5910,0.49,-0.06,-0.24
2020-08-12 20:21:26.6900,0.49,-0.04,-0.27
2020-08-12 20:21:26.7900,0.19,-0.34,-0.0
2020-08-12 20:21:26.8890,0.06,-0.0,0.05
2020-08-12 20:21:26.9880,0.03,-0.06,0.05
2020-08-12 20:21:27.0880,-0.06,-0.01,-0.0
2020-08-12 20:21:27.1870,-0.05,0.01,0.04
2020-08-12 20:21:27.2860,0.02,-0.0,-0.02
2020-08-12 20:21:27.3850,-0.0,0.02,-0.04
2020-08-12 20:21:27.4850,-0.07,-0.01,0.04
2020-08-12 20:21:27.5840,-0.06,-0.05,0.1
2020-08-12 20:21:27.6830,-0.22,-0.32,-0.03
2020-08-12 20:21:27.7820,0.11,0.01,-0.19
2020-08-12 20:21:27.8820,-0.62,0.05,-0.03
2020-08-12 20:21:27.9810,-0.3,0.01,0.37
2020-08-12 20:21:28.0800,-0.07,-0.01,0.6
2020-08-12 20:21:28.1780,0.01,-0.03,0.48
2020-08-12 20:21:28.2780,0.11,-0.17,0.27
2020-08-12 20:21:28.3780,0.4,-0.19,-0.01
2020-08-12 20:21:28.4770,0.46,-0.1,-0.21
2020-08-12 20:21:28.5760,0.43,-0.05,-0.29
2020-08-12 20:21:28.6760,0.01,-0.23,-0.11
2020-08-12 20:21:28.7750,0.18,0.03,0.01
2020-08-12 20:21:28.8740,0.04,-0.05,0.08
2020-08-12 20:21:28.9730,-0.06,-0.0,-0.01
2020-08-12 20:21:29.0720,0.0,-0.02,0.01
2020-08-12 20:21:29.1710,-0.0,0.02,0.0
2020-08-12 20:21:29.2710,0.03,0.01,0.0
2020-08-12 20:21:29.3700,-0.04,0.0,0.04
2020-08-12 20:21:29.4700,-0.08,-0.05,-0.03
2020-08-12 20:21:29.5690,-0.05,-0.07,0.03
2020-08-12 20:21:29.6680,-0.2,-0.34,-0.18
2020-08-12 20:21:29.7660,-0.05,0.03,-0.46
2020-08-12 20:21:29.8670,-0.46,-0.02,-0.08
2020-08-12 20:21:29.9660,-0.27,-0.02,0.21
2020-08-12 20:21:30.0650,-0.08,-0.06,0.26
2020-08-12 20:21:30.1640,0.15,0.02,0.3
2020-08-12 20:21:30.2640,0.07,-0.02,0.23
2020-08-12 20:21:30.3630,0.09,-0.05,0.25
2020-08-12 20:21:30.4610,0.15,-0.1,0.06
2020-08-12 20:21:30.5620,0.33,-0.07,-0.12
2020-08-12 20:21:30.6610,0.59,-0.03,-0.21
2020-08-12 20:21:30.7600,-0.77,-0.07,-0.01
2020-08-12 20:21:30.8580,0.16,0.02,0.17
2020-08-12 20:21:30.9580,-0.02,-0.02,0.07
2020-08-12 20:21:31.0570,-0.02,-0.03,-0.01
2020-08-12 20:21:31.1570,0.0,-0.0,0.02
2020-08-12 20:21:31.2560,-0.03,0.02,0.04
2020-08-12 20:21:31.3540,-0.03,0.03,-0.0
2020-08-12 20:21:31.4550,0.23,-0.08,-0.13
2020-08-12 20:21:31.5540,0.07,-0.09,-0.07
2020-08-12 20:21:31.6530,0.0,-0.09,0.01
2020-08-12 20:21:31.7520,-0.08,-0.51,-0.1
2020-08-12 20:21:31.8520,0.01,0.04,-0.05
2020-08-12 20:21:31.9510,-0.74,0.16,0.15
2020-08-12 20:21:32.0500,-0.29,-0.05,0.19
2020-08-12 20:21:32.1480,-0.12,-0.04,0.39
2020-08-12 20:21:32.2490,0.11,-0.13,0.35
2020-08-12 20:21:32.3480,0.34,-0.17,0.17
2020-08-12 20:21:32.4470,0.45,-0.1,-0.05
2020-08-12 20:21:32.5460,0.63,-0.07,-0.18
2020-08-12 20:21:32.6460,0.31,-0.2,-0.39
2020-08-12 20:21:32.7440,0.54,-0.4,0.4
2020-08-12 20:21:32.8430,-0.17,0.05,-0.06
2020-08-12 20:21:32.9440,0.02,-0.01,0.07
2020-08-12 20:21:33.0420,-0.04,0.01,0.03
2020-08-12 20:21:33.1420,-0.03,0.04,0.02
2020-08-12 20:21:33.2400,0.01,0.0,0.02
2020-08-12 20:21:33.3400,-0.01,0.0,0.0
2020-08-12 20:21:33.4390,-0.04,-0.01,-0.04
2020-08-12 20:21:33.5390,-0.02,-0.06,0.02
2020-08-12 20:21:33.6380,-0.15,-0.23,-0.02
2020-08-12 20:21:33.7380,-0.32,0.14,-0.17
2020-08-12 20:21:33.8370,-0.11,-0.02,-0.19
2020-08-12 20:21:33.9360,-0.6,0.04,0.26
2020-08-12 20:21:34.0350,-0.22,-0.02,0.41
2020-08-12 20:21:34.1340,-0.08,-0.12,0.39
2020-08-12 20:21:34.2340,0.17,-0.14,0.2
2020-08-12 20:21:34.3320,0.33,-0.13,0.02
2020-08-12 20:21:34.4320,0.44,-0.12,-0.17
2020-08-12 20:21:34.5320,0.47,-0.05,-0.24
2020-08-12 20:21:34.6310,-0.72,-0.22,-0.52
2020-08-12 20:21:34.7290,0.17,0.07,0.05
2020-08-12 20:21:34.8290,-0.0,-0.03,-0.06
2020-08-12 20:21:34.9280,-0.02,-0.01,-0.03
2020-08-12 20:21:35.0270,-0.02,0.01,0.01
2020-08-12 20:21:35.1270,-0.03,0.01,0.02
2020-08-12 20:21:35.2260,-0.03,0.0,0.01
2020-08-12 20:21:35.3260,-0.06,-0.01,0.02
2020-08-12 20:21:35.4250,-0.04,0.01,0.01
2020-08-12 20:21:35.5240,-0.03,-0.06,-0.01
2020-08-12 20:21:35.6230,-0.06,-0.16,0.08
2020-08-12 20:21:35.7230,-0.12,-0.27,-0.13
2020-08-12 20:21:35.8220,0.06,0.01,-0.01
2020-08-12 20:21:35.9210,-0.7,0.14,0.06
2020-08-12 20:21:36.0200,-0.44,0.03,0.19
2020-08-12 20:21:36.1190,-0.04,-0.05,0.38
2020-08-12 20:21:36.2190,0.03,-0.1,0.3
2020-08-12 20:21:36.3180,0.34,-0.16,0.14
2020-08-12 20:21:36.4160,0.42,-0.08,-0.1
2020-08-12 20:21:36.5170,0.49,-0.04,-0.32
2020-08-12 20:21:36.6160,-0.16,-0.23,-0.53
2020-08-12 20:21:36.7140,0.41,0.18,-0.13
2020-08-12 20:21:36.8130,0.02,0.02,-0.08
2020-08-12 20:21:36.9140,0.02,-0.03,-0.07
2020-08-12 20:21:37.0120,0.0,0.01,0.0
2020-08-12 20:21:37.1120,-0.03,-0.01,0.03
2020-08-12 20:21:37.2100,0.01,0.0,0.01
2020-08-12 20:21:37.3110,-0.05,-0.01,0.02
2020-08-12 20:21:37.4100,-0.12,0.08,0.13
2020-08-12 20:21:37.5080,0.05,-0.12,-0.03
2020-08-12 20:21:37.6080,-0.07,-0.21,0.06
2020-08-12 20:21:37.7080,-0.19,-0.12,-0.21
2020-08-12 20:21:37.8070,-0.15,0.07,-0.29
2020-08-12 20:21:37.9060,-0.61,0.0,0.26
2020-08-12 20:21:38.0060,-0.31,0.02,0.42
2020-08-12 20:21:38.1050,0.04,-0.1,0.48
2020-08-12 20:21:38.2030,0.17,-0.16,0.28
2020-08-12 20:21:38.3030,0.39,-0.13,0.01
2020-08-12 20:21:38.4020,0.42,-0.07,-0.25
2020-08-12 20:21:38.5010,0.45,-0.04,-0.31
2020-08-12 20:21:38.6010,0.38,-0.43,0.18
2020-08-12 20:21:38.7000,0.01,-0.05,0.02
2020-08-12 20:21:38.8000,-0.04,0.02,0.04
2020-08-12 20:21:38.8990,-0.07,0.02,0.01
2020-08-12 20:21:38.9980,0.0,-0.0,0.01
2020-08-12 20:21:39.0970,-0.02,0.01,0.0
2020-08-12 20:21:39.1950,-0.0,0.0,-0.02
2020-08-12 20:21:39.2960,-0.06,-0.0,0.02
2020-08-12 20:21:39.3940,-0.08,-0.05,0.09
2020-08-12 20:21:39.4930,-0.15,-0.47,-0.1
2020-08-12 20:21:39.5940,-0.04,0.07,0.0
2020-08-12 20:21:39.6920,-0.66,0.14,0.15
2020-08-12 20:21:39.7920,-0.25,0.03,0.27
2020-08-12 20:21:39.8910,-0.13,0.04,0.45
2020-08-12 20:21:39.9910,0.08,-0.08,0.38
2020-08-12 20:21:40.0890,0.14,-0.14,0.26
2020-08-12 20:21:40.1890,0.29,-0.13,0.04
2020-08-12 20:21:40.2880,0.39,-0.12,-0.18
2020-08-12 20:21:40.3870,0.5,-0.05,-0.32
2020-08-12 20:21:40.4870,-0.33,-0.13,0.01
2020-08-12 20:21:40.5860,0.25,0.0,-0.06
2020-08-12 20:21:40.6850,-0.02,-0.01,0.01
2020-08-12 20:21:40.7840,-0.06,0.04,-0.0
2020-08-12 20:21:40.8830,-0.0,0.02,0.05
2020-08-12 20:21:40.9830,0.01,-0.02,-0.01
2020-08-12 20:21:41.0810,-0.01,0.03,0.0
2020-08-12 20:21:41.1810,0.03,-0.04,-0.09
2020-08-12 20:21:41.2800,0.01,-0.07,0.01
2020-08-12 20:21:41.3800,-0.12,-0.26,-0.09
2020-08-12 20:21:41.4780,-0.32,0.06,-0.16
2020-08-12 20:21:41.5790,-0.33,0.04,-0.17
2020-08-12 20:21:41.6780,-0.51,-0.02,0.18
2020-08-12 20:21:41.7770,-0.16,-0.09,0.34
2020-08-12 20:21:41.8760,0.25,-0.06,0.42
2020-08-12 20:21:41.9760,0.19,-0.09,0.25
2020-08-12 20:21:42.0740,0.34,-0.11,0.09
2020-08-12 20:21:42.1740,0.43,-0.08,-0.22
2020-08-12 20:21:42.2720,0.55,-0.05,-0.27
2020-08-12 20:21:42.3730,0.3,-0.22,-0.02
2020-08-12 20:21:42.4720,-0.06,-0.02,0.12
2020-08-12 20:21:42.5710,-0.11,0.01,0.13
2020-08-12 20:21:42.6700,-0.07,0.02,0.0
2020-08-12 20:21:42.7700,-0.01,-0.0,0.01
2020-08-12 20:21:42.8680,-0.01,-0.01,0.0
2020-08-12 20:21:42.9680,0.01,-0.04,-0.03
2020-08-12 20:21:43.0660,-0.03,-0.01,0.0
2020-08-12 20:21:43.1670,-0.04,-0.07,0.03
2020-08-12 20:21:43.2660,-0.23,-0.27,-0.01
2020-08-12 20:21:43.3650,-0.15,0.18,-0.09
2020-08-12 20:21:43.4640,-0.51,0.12,-0.12
2020-08-12 20:21:43.5640,-0.44,0.03,0.12
2020-08-12 20:21:43.6620,-0.14,-0.0,0.4
2020-08-12 20:21:43.7620,0.07,-0.07,0.43
2020-08-12 20:21:43.8610,0.16,-0.11,0.26
2020-08-12 20:21:43.9610,0.36,-0.13,0.06
2020-08-12 20:21:44.0600,0.46,-0.09,-0.16
2020-08-12 20:21:44.1590,0.37,-0.04,-0.27
2020-08-12 20:21:44.2580,-0.18,-0.11,-0.22
2020-08-12 20:21:44.3580,0.39,-0.02,-0.02
2020-08-12 20:21:44.4570,0.12,-0.01,-0.03
2020-08-12 20:21:44.5560,-0.04,0.01,0.01
2020-08-12 20:21:44.6540,-0.0,0.01,-0.0
2020-08-12 20:21:44.7550,-0.03,0.01,0.02
2020-08-12 20:21:44.8540,0.02,-0.0,-0.02
2020-08-12 20:21:44.9530,-0.0,0.02,-0.03
2020-08-12 20:21:45.0520,-0.05,-0.02,-0.03
2020-08-12 20:21:45.1520,-0.04,-0.05,0.04
2020-08-12 20:21:45.2510,-0.16,-0.27,-0.01
2020-08-12 20:21:45.3500,-0.25,0.06,-0.21
2020-08-12 20:21:45.4490,-0.1,0.13,-0.19
2020-08-12 20:21:45.5490,-0.53,0.02,0.06
2020-08-12 20:21:45.6470,-0.24,-0.05,0.32
2020-08-12 20:21:45.7470,0.05,-0.06,0.45
2020-08-12 20:21:45.8460,0.07,-0.05,0.37
2020-08-12 20:21:45.9460,0.26,-0.13,0.17
2020-08-12 20:21:46.0450,0.43,-0.15,-0.08
2020-08-12 20:21:46.1440,0.52,-0.08,-0.3
2020-08-12 20:21:46.2440,-0.04,-0.25,-0.73
2020-08-12 20:21:46.3430,0.15,-0.02,-0.16
2020-08-12 20:21:46.4420,0.06,-0.03,-0.11
2020-08-12 20:21:46.5410,0.01,-0.01,0.03
2020-08-12 20:21:46.6410,0.01,0.02,0.03
2020-08-12 20:21:46.7400,-0.02,0.01,-0.0
2020-08-12 20:21:46.8390,-0.02,0.02,-0.0
2020-08-12 20:21:46.9380,-0.01,0.01,-0.01
2020-08-12 20:21:47.0370,-0.03,-0.01,0.0
2020-08-12 20:21:47.1370,-0.02,-0.06,0.02
2020-08-12 20:21:47.2360,-0.13,-0.2,-0.04
2020-08-12 20:21:47.3350,-0.16,-0.16,-0.18
2020-08-12 20:21:47.4350,0.18,-0.04,-0.11
2020-08-12 20:21:47.5340,-0.81,0.09,0.25
2020-08-12 20:21:47.6320,-0.26,0.05,0.35
2020-08-12 20:21:47.7310,-0.04,-0.06,0.38
2020-08-12 20:21:47.8320,0.02,-0.07,0.24
2020-08-12 20:21:47.9310,0.2,-0.13,0.11
2020-08-12 20:21:48.0300,0.28,-0.08,-0.09
2020-08-12 20:21:48.1290,0.55,-0.07,-0.18
2020-08-12 20:21:48.2290,0.36,-0.18,-0.58
2020-08-12 20:21:48.3280,0.35,-0.02,-0.22
2020-08-12 20:21:48.4270,0.04,-0.0,-0.03
2020-08-12 20:21:48.5260,0.02,-0.02,0.0
2020-08-12 20:21:48.6250,-0.03,0.01,0.02
2020-08-12 20:21:48.7250,-0.01,0.01,-0.0
2020-08-12 20:21:48.8230,-0.02,0.0,0.02
2020-08-12 20:21:48.9230,0.01,-0.0,-0.06
2020-08-12 20:21:49.0230,-0.07,-0.04,0.02
2020-08-12 20:21:49.1220,-0.06,-0.1,-0.01
2020-08-12 20:21:49.2210,-0.2,-0.39,-0.03
2020-08-12 20:21:49.3200,0.12,0.04,-0.05
2020-08-12 20:21:49.4200,-0.66,0.08,0.16
2020-08-12 20:21:49.5190,-0.33,-0.02,0.15
2020-08-12 20:21:49.6180,-0.03,-0.13,0.34
2020-08-12 20:21:49.7170,0.13,-0.1,0.37
2020-08-12 20:21:49.8170,0.26,-0.1,0.19
2020-08-12 20:21:49.9160,0.43,-0.1,0.01
2020-08-12 20:21:50.0140,0.44,-0.07,-0.2
2020-08-12 20:21:50.1140,0.09,-0.27,-0.79
2020-08-12 20:21:50.2140,0.14,-0.12,-0.09
2020-08-12 20:21:50.3130,0.08,-0.05,-0.14
2020-08-12 20:21:50.4120,-0.01,-0.01,-0.03
2020-08-12 20:21:50.5110,-0.01,0.03,0.03
2020-08-12 20:21:50.6100,-0.01,-0.01,-0.01
2020-08-12 20:21:50.7100,-0.03,-0.0,0.02
2020-08-12 20:21:50.8090,-0.05,0.05,0.03
2020-08-12 20:21:50.9080,-0.03,-0.02,-0.03
2020-08-12 20:21:51.0080,-0.05,-0.04,0.03
2020-08-12 20:21:51.1070,-0.17,-0.27,-0.04
2020-08-12 20:21:51.2060,-0.25,0.11,-0.05
2020-08-12 20:21:51.3050,-0.58,0.14,-0.14
2020-08-12 20:21:51.4050,-0.61,-0.07,-0.01
2020-08-12 20:21:51.5030,-0.21,-0.08,0.17
2020-08-12 20:21:51.6030,0.12,-0.11,0.31
2020-08-12 20:21:51.7020,0.29,-0.05,0.32
2020-08-12 20:21:51.8020,0.3,-0.04,0.2
2020-08-12 20:21:51.9010,0.35,-0.04,0.03
2020-08-12 20:21:52.0000,0.37,-0.05,-0.21
2020-08-12 20:21:52.0990,-0.22,-0.4,-0.97
2020-08-12 20:21:52.1990,0.26,0.14,0.22
2020-08-12 20:21:52.2970,0.1,-0.03,-0.08
2020-08-12 20:21:52.3960,0.04,0.0,-0.03
2020-08-12 20:21:52.4970,-0.04,0.0,0.0
2020-08-12 20:21:52.5960,-0.04,0.01,0.02
2020-08-12 20:21:52.6940,-0.09,0.0,0.01
2020-08-12 20:21:52.7940,-0.08,-0.01,0.05
2020-08-12 20:21:52.8940,-0.08,-0.15,-0.07
2020-08-12 20:21:52.9930,-0.26,-0.15,-0.24
2020-08-12 20:21:53.0920,0.01,0.07,-0.1
2020-08-12 20:21:53.1910,-0.7,-0.01,0.07
2020-08-12 20:21:53.2910,-0.35,-0.06,0.3
2020-08-12 20:21:53.3900,0.14,-0.09,0.4
2020-08-12 20:21:53.4890,0.16,-0.09,0.3
2020-08-12 20:21:53.5880,0.31,-0.12,0.12
2020-08-12 20:21:53.6870,0.31,-0.07,-0.09
2020-08-12 20:21:53.7870,0.52,-0.07,-0.12
2020-08-12 20:21:53.8860,-0.55,0.04,-0.74
2020-08-12 20:21:53.9850,0.13,0.24,0.15
2020-08-12 20:21:54.0840,-0.07,0.02,-0.02
2020-08-12 20:21:54.1830,-0.0,-0.06,-0.04
2020-08-12 20:21:54.2820,-0.01,0.03,0.06
2020-08-12 20:21:54.3820,-0.03,0.01,0.01
2020-08-12 20:21:54.4820,-0.05,-0.0,0.04
2020-08-12 20:21:54.5810,-0.08,0.01,0.05
2020-08-12 20:21:54.6800,-0.09,-0.02,0.06
2020-08-12 20:21:54.7780,-0.13,-0.29,-0.07
2020-08-12 20:21:54.8780,-0.27,-0.11,-0.21
2020-08-12 20:21:54.9780,0.02,0.07,-0.12
2020-08-12 20:21:55.0770,-0.8,-0.02,0.06
2020-08-12 20:21:55.1760,-0.24,-0.18,0.35
2020-08-12 20:21:55.2760,0.04,-0.1,0.43
2020-08-12 20:21:55.3750,0.18,-0.09,0.35
2020-08-12 20:21:55.4740,0.37,-0.13,0.12
2020-08-12 20:21:55.5730,0.52,-0.09,-0.09
2020-08-12 20:21:55.6720,0.54,-0.04,-0.35
2020-08-12 20:21:55.7720,0.31,-0.32,0.09
2020-08-12 20:21:55.8710,0.04,-0.13,0.0
2020-08-12 20:21:55.9700,-0.04,0.01,0.13
2020-08-12 20:21:56.0690,-0.08,0.0,0.03
2020-08-12 20:21:56.1690,-0.02,0.01,-0.01
2020-08-12 20:21:56.2670,-0.07,0.01,0.03
2020-08-12 20:21:56.3660,-0.07,0.01,0.03
2020-08-12 20:21:56.4660,-0.06,-0.01,-0.01
2020-08-12 20:21:56.5660,-0.03,-0.07,0.06
2020-08-12 20:21:56.6650,-0.21,-0.35,-0.0
2020-08-12 20:21:56.7640,-0.3,0.09,-0.14
2020-08-12 20:21:56.8640,-0.59,0.24,-0.07
2020-08-12 20:21:56.9620,-0.41,-0.07,0.09
2020-08-12 20:21:57.0620,-0.16,-0.08,0.39
2020-08-12 20:21:57.1610,0.08,-0.11,0.46
2020-08-12 20:21:57.2610,0.21,-0.15,0.32
2020-08-12 20:21:57.3600,0.33,-0.1,0.18
2020-08-12 20:21:57.4590,0.44,-0.08,-0.1
2020-08-12 20:21:57.5580,0.58,-0.04,-0.3
2020-08-12 20:21:57.6570,-0.68,-0.09,-0.17
2020-08-12 20:21:57.7570,0.05,0.04,0.13
2020-08-12 20:21:57.8560,-0.02,0.02,0.11
2020-08-12 20:21:57.9550,0.04,-0.07,-0.06
2020-08-12 20:21:58.0550,0.01,-0.02,0.01
2020-08-12 20:21:58.1540,0.03,-0.03,-0.01
2020-08-12 20:21:58.2530,-0.02,-0.0,-0.0
2020-08-12 20:21:58.3520,-0.07,0.01,0.02
2020-08-12 20:21:58.4520,-0.05,-0.04,0.01
2020-08-12 20:21:58.5510,-0.1,-0.25,0.02
2020-08-12 20:21:58.6500,-0.14,-0.48,-0.22
2020-08-12 20:21:58.7490,0.14,-0.02,-0.2
2020-08-12 20:21:58.8490,-0.85,0.01,0.22
2020-08-12 20:21:58.9470,-0.37,-0.03,0.39
2020-08-12 20:21:59.0470,-0.08,-0.05,0.41
2020-08-12 20:21:59.1460,0.07,-0.16,0.39
2020-08-12 20:21:59.2460,0.25,-0.15,0.25
2020-08-12 20:21:59.3450,0.41,-0.12,0.02
2020-08-12 20:21:59.4440,0.64,-0.05,-0.23
2020-08-12 20:21:59.5430,0.24,-0.21,-0.5
2020-08-12 20:21:59.6430,0.4,-0.48,0.47
2020-08-12 20:21:59.7420,-0.11,-0.03,-0.12
2020-08-12 20:21:59.8410,-0.03,0.0,0.03
2020-08-12 20:21:59.9400,-0.06,0.01,0.01
2020-08-12 20:22:00.0400,-0.0,0.01,0.01
2020-08-12 20:22:00.1390,0.0,0.0,-0.0
2020-08-12 20:22:00.2380,-0.02,0.01,-0.0
2020-08-12 20:22:00.3370,-0.08,-0.03,-0.01
2020-08-12 20:22:00.4370,0.02,-0.09,-0.08
2020-08-12 20:22:00.5360,-0.15,-0.3,-0.05
2020-08-12 20:22:00.6350,-0.32,0.19,-0.18
2020-08-12 20:22:00.7350,-0.29,0.11,-0.21
2020-08-12 20:22:00.8330,-0.61,0.0,0.19
2020-08-12 20:22:00.9330,-0.24,0.0,0.32
2020-08-12 20:22:01.0320,-0.03,-0.08,0.31
2020-08-12 20:22:01.1320,0.1,-0.11,0.18
2020-08-12 20:22:01.2310,0.24,-0.11,0.02
2020-08-12 20:22:01.3300,0.42,-0.07,-0.12
2020-08-12 20:22:01.4290,0.49,-0.06,-0.2
2020-08-12 20:22:01.5280,0.03,-0.29,-0.5
2020-08-12 20:22:01.6280,0.24,-0.06,-0.16
2020-08-12 20:22:01.7270,0.06,-0.03,-0.14
2020-08-12 20:22:01.8250,0.0,0.0,0.04
2020-08-12 20:22:01.9260,-0.06,0.05,0.05
2020-08-12 20:22:02.0250,-0.01,0.0,-0.01
2020-08-12 20:22:02.1240,-0.03,0.01,0.01
2020-08-12 20:22:02.2230,-0.02,-0.01,-0.01
2020-08-12 20:22:02.3220,-0.11,-0.02,0.04
2020-08-12 20:22:02.4210,-0.03,-0.13,-0.03
2020-08-12 20:22:02.5210,-0.13,-0.47,-0.03
2020-08-12 20:22:02.6200,-0.08,0.05,-0.09
2020-08-12 20:22:02.7190,-0.54,0.13,0.04
2020-08-12 20:22:02.8190,-0.3,0.0,0.17
2020-08-12 20:22:02.9180,-0.18,-0.0,0.31
2020-08-12 20:22:03.0170,0.1,-0.11,0.29
2020-08-12 20:22:03.1170,0.13,-0.12,0.26
2020-08-12 20:22:03.2160,0.3,-0.09,0.13
2020-08-12 20:22:03.3150,0.39,-0.06,-0.07
2020-08-12 20:22:03.4140,0.5,-0.04,-0.22
2020-08-12 20:22:03.5140,0.22,-0.31,-0.69
2020-08-12 20:22:03.6120,0.12,-0.04,-0.06
2020-08-12 20:22:03.7120,0.02,-0.03,-0.1
2020-08-12 20:22:03.8110,-0.02,-0.02,0.0
2020-08-12 20:22:03.9110,-0.01,0.03,0.02
2020-08-12 20:22:04.0100,-0.01,-0.0,-0.01
2020-08-12 20:22:04.1090,0.03,0.01,-0.04
2020-08-12 20:22:04.2080,-0.04,0.05,0.01
2020-08-12 20:22:04.3080,-0.05,-0.07,-0.0
2020-08-12 20:22:04.4060,-0.06,-0.15,0.02
2020-08-12 20:22:04.5060,-0.3,-0.49,-0.06
2020-08-12 20:22:04.6050,0.09,-0.03,-0.03
2020-08-12 20:22:04.7050,-0.66,0.02,-0.05
2020-08-12 20:22:04.8040,-0.29,-0.04,0.21
2020-08-12 20:22:04.9030,-0.05,-0.09,0.32
2020-08-12 20:22:05.0020,0.12,-0.11,0.24
2020-08-12 20:22:05.1020,0.14,-0.13,0.16
2020-08-12 20:22:05.2010,0.25,-0.09,0.05
2020-08-12 20:22:05.3000,0.49,-0.07,-0.01
2020-08-12 20:22:05.3990,0.43,-0.01,-0.08
2020-08-12 20:22:05.4990,-0.66,-0.2,-0.85
2020-08-12 20:22:05.5980,0.04,0.06,-0.12
2020-08-12 20:22:05.6970,0.17,-0.07,-0.16
2020-08-12 20:22:05.7960,0.04,-0.03,-0.01
2020-08-12 20:22:05.8960,0.05,0.0,0.03
2020-08-12 20:22:05.9950,-0.03,0.0,-0.01
2020-08-12 20:22:06.0940,-0.01,0.01,-0.0
2020-08-12 20:22:06.1930,-0.05,0.04,0.05
2020-08-12 20:22:06.2920,-0.05,-0.03,-0.03
2020-08-12 20:22:06.3920,-0.03,-0.1,0.03
2020-08-12 20:22:06.4900,-0.19,-0.36,-0.02
2020-08-12 20:22:06.5900,-0.2,0.19,-0.1
2020-08-12 20:22:06.6900,-0.6,0.21,-0.12
2020-08-12 20:22:06.7890,-0.42,0.0,0.18
2020-08-12 20:22:06.8880,-0.06,-0.04,0.35
2020-08-12 20:22:06.9870,0.05,-0.08,0.29
2020-08-12 20:22:07.0870,0.03,-0.12,0.16
2020-08-12 20:22:07.1860,0.22,-0.13,0.04
2020-08-12 20:22:07.2850,0.53,-0.1,-0.06
2020-08-12 20:22:07.3840,0.66,-0.0,-0.17
2020-08-12 20:22:07.4840,-0.03,-0.43,0.01
2020-08-12 20:22:07.5830,0.08,-0.03,0.09
2020-08-12 20:22:07.6820,0.07,-0.06,0.01
2020-08-12 20:22:07.7810,-0.11,-0.0,0.0
2020-08-12 20:22:07.8810,-0.03,-0.0,0.01
2020-08-12 20:22:07.9800,-0.04,0.01,0.02
2020-08-12 20:22:08.0790,0.03,-0.01,-0.02
2020-08-12 20:22:08.1780,0.07,-0.07,-0.07
2020-08-12 20:22:08.2780,-0.03,-0.03,-0.0
2020-08-12 20:22:08.3760,-0.07,-0.13,0.08
2020-08-12 20:22:08.4760,-0.2,-0.47,-0.08
2020-08-12 20:22:08.5750,0.06,-0.01,-0.05
2020-08-12 20:22:08.6740,-0.87,0.12,0.04
2020-08-12 20:22:08.7740,-0.28,-0.09,0.13
2020-08-12 20:22:08.8730,-0.05,-0.12,0.24
2020-08-12 20:22:08.9710,0.17,-0.16,0.36
2020-08-12 20:22:09.0720,0.38,-0.11,0.23
2020-08-12 20:22:09.1710,0.51,-0.06,-0.0
2020-08-12 20:22:09.2690,0.54,-0.06,-0.18
2020-08-12 20:22:09.3690,-1.09,0.03,-0.76
2020-08-12 20:22:09.4690,0.16,0.06,0.01
2020-08-12 20:22:09.5680,0.03,-0.05,-0.03
2020-08-12 20:22:09.6670,0.01,-0.03,-0.04
2020-08-12 20:22:09.7670,0.04,-0.02,-0.03
2020-08-12 20:22:09.8660,0.0,0.0,0.02
2020-08-12 20:22:09.9650,-0.01,0.03,-0.01
2020-08-12 20:22:10.0640,-0.07,0.01,0.0
2020-08-12 20:22:10.1640,-0.04,-0.07,-0.04
2020-08-12 20:22:10.2630,-0.14,-0.37,-0.08
2020-08-12 20:22:10.3620,-0.21,-0.05,-0.05
2020-08-12 20:22:10.4610,-0.73,0.22,-0.19
2020-08-12 20:22:10.5600,-0.39,-0.14,-0.01
2020-08-12 20:22:10.6600,-0.12,-0.07,0.3
2020-08-12 20:22:10.7580,0.01,-0.08,0.44
2020-08-12 20:22:10.8580,0.21,-0.07,0.31
2020-08-12 20:22:10.9570,0.44,-0.09,0.19
2020-08-12 20:22:11.0570,0.35,-0.11,-0.09
2020-08-12 20:22:11.1560,0.36,-0.01,-0.3
2020-08-12 20:22:11.2550,-0.06,-0.24,0.01
2020-08-12 20:22:11.3540,0.07,0.05,0.07
2020-08-12 20:22:11.4540,-0.04,-0.02,0.05
2020-08-12 20:22:11.5530,-0.09,-0.02,-0.0
2020-08-12 20:22:11.6520,-0.01,-0.01,0.02
2020-08-12 20:22:11.7500,-0.01,-0.02,0.0
2020-08-12 20:22:11.8510,-0.02,-0.0,0.01
2020-08-12 20:22:11.9500,-0.06,-0.02,0.05
2020-08-12 20:22:12.0490,-0.07,-0.13,0.05
2020-08-12 20:22:12.1480,-0.23,-0.29,-0.1
2020-08-12 20:22:12.2480,-0.26,0.02,-0.03
2020-08-12 20:22:12.3470,-0.76,0.27,-0.09
2020-08-12 20:22:12.4470,-0.28,-0.12,0.09
2020-08-12 20:22:12.5450,-0.11,-0.06,0.31
2020-08-12 20:22:12.6450,0.05,-0.1,0.41
2020-08-12 20:22:12.7440,0.22,-0.13,0.27
2020-08-12 20:22:12.8430,0.41,-0.09,0.15
2020-08-12 20:22:12.9430,0.49,-0.07,-0.1
2020-08-12 20:22:13.0420,0.46,-0.02,-0.3
2020-08-12 20:22:13.1410,-0.08,-0.26,-0.13
2020-08-12 20:22:13.2400,0.13,0.03,0.1
2020-08-12 20:22:13.3400,0.03,-0.03,0.04
2020-08-12 20:22:13.4390,-0.06,0.0,0.0
2020-08-12 20:22:13.5380,0.01,-0.01,0.01
2020-08-12 20:22:13.6360,-0.03,-0.01,-0.0
2020-08-12 20:22:13.7360,-0.05,-0.02,0.03
2020-08-12 20:22:13.8360,-0.08,0.03,0.04
2020-08-12 20:22:13.9350,-0.11,-0.05,0.03
2020-08-12 20:22:14.0340,-0.13,-0.25,-0.01
2020-08-12 20:22:14.1340,-0.24,-0.43,-0.23
2020-08-12 20:22:14.2330,0.28,-0.01,-0.26
2020-08-12 20:22:14.3320,-0.74,0.05,0.12
2020-08-12 20:22:14.4310,-0.34,-0.05,0.26
2020-08-12 20:22:14.5310,0.04,-0.13,0.42
2020-08-12 20:22:14.6300,0.21,-0.2,0.37
2020-08-12 20:22:14.7290,0.42,-0.13,0.25
2020-08-12 20:22:14.8280,0.56,-0.09,-0.06
2020-08-12 20:22:14.9270,0.59,-0.07,-0.3
2020-08-12 20:22:15.0270,-0.41,-0.38,-0.7
2020-08-12 20:22:15.1260,0.59,-0.36,0.22
2020-08-12 20:22:15.2250,-0.07,0.01,-0.05
2020-08-12 20:22:15.3250,0.05,0.0,0.03
2020-08-12 20:22:15.4240,-0.03,0.02,0.04
2020-08-12 20:22:15.5230,0.03,-0.01,-0.01
2020-08-12 20:22:15.6220,0.04,-0.01,-0.03
2020-08-12 20:22:15.7220,-0.01,-0.01,0.01
2020-08-12 20:22:15.8210,-0.08,-0.0,-0.01
2020-08-12 20:22:15.9200,-0.05,-0.12,0.03
2020-08-12 20:22:16.0190,-0.21,-0.65,-0.14
2020-08-12 20:22:16.1190,0.0,0.03,0.01
2020-08-12 20:22:16.2170,-0.82,0.19,0.19
2020-08-12 20:22:16.3170,-0.31,-0.02,0.26
2020-08-12 20:22:16.4160,-0.13,-0.1,0.34
2020-08-12 20:22:16.5160,0.23,-0.17,0.29
2020-08-12 20:22:16.6140,0.28,-0.11,0.17
2020-08-12 20:22:16.7140,0.39,-0.07,0.05
2020-08-12 20:22:16.8130,0.47,-0.06,-0.1
2020-08-12 20:22:16.9120,0.41,-0.02,-0.22
2020-08-12 20:22:17.0120,0.08,-0.25,0.02
2020-08-12 20:22:17.1110,0.01,0.09,0.06
2020-08-12 20:22:17.2110,-0.01,0.02,0.06
2020-08-12 20:22:17.3100,-0.03,0.01,0.02
2020-08-12 20:22:17.4090,-0.01,-0.02,0.01
2020-08-12 20:22:17.5080,-0.02,-0.0,0.05
2020-08-12 20:22:17.6070,-0.01,0.0,-0.01
2020-08-12 20:22:17.7070,-0.04,-0.03,-0.01
2020-08-12 20:22:17.8060,-0.05,-0.08,0.03
2020-08-12 20:22:17.9050,-0.17,-0.33,-0.1
2020-08-12 20:22:18.0050,-0.32,0.14,-0.09
2020-08-12 20:22:18.1030,-0.52,0.19,-0.1
2020-08-12 20:22:18.2030,-0.33,-0.01,-0.01
2020-08-12 20:22:18.3020,-0.21,-0.04,0.22
2020-08-12 20:22:18.4010,-0.02,-0.05,0.39
2020-08-12 20:22:18.5010,0.08,-0.02,0.37
2020-08-12 20:22:18.6000,0.22,-0.11,0.3
2020-08-12 20:22:18.6990,0.39,-0.07,-0.0
2020-08-12 20:22:18.7980,0.58,-0.12,-0.23
2020-08-12 20:22:18.8970,0.18,-0.28,-0.5
2020-08-12 20:22:18.9970,0.42,-0.46,0.35
2020-08-12 20:22:19.0960,-0.26,0.04,-0.04
2020-08-12 20:22:19.1960,-0.04,0.04,0.07
2020-08-12 20:22:19.2950,-0.02,0.01,0.03
2020-08-12 20:22:19.3940,-0.04,0.02,0.03
2020-08-12 20:22:19.4930,-0.05,0.07,0.05
2020-08-12 20:22:19.5930,-0.06,0.01,0.03
2020-08-12 20:22:19.6920,-0.03,-0.02,-0.01
2020-08-12 20:22:19.7910,-0.02,-0.07,0.04
2020-08-12 20:22:19.8900,-0.11,-0.29,-0.0
2020-08-12 20:22:19.9890,-0.3,0.08,-0.27
2020-08-12 20:22:20.0890,-0.23,0.08,-0.23
2020-08-12 20:22:20.1880,-0.73,-0.01,0.12
2020-08-12 20:22:20.2870,-0.43,-0.01,0.36
2020-08-12 20:22:20.3870,0.02,-0.12,0.44
2020-08-12 20:22:20.4850,0.18,-0.15,0.38
2020-08-12 20:22:20.5860,0.36,-0.13,0.24
2020-08-12 20:22:20.6840,0.53,-0.18,0.01
2020-08-12 20:22:20.7840,0.51,-0.09,-0.28
2020-08-12 20:22:20.8820,-0.35,-0.21,-0.61
2020-08-12 20:22:20.9820,0.42,-0.32,-0.03
2020-08-12 20:22:21.0800,0.0,-0.02,-0.11
2020-08-12 20:22:21.1800,0.0,-0.03,0.03
2020-08-12 20:22:21.2800,0.01,0.01,0.01
2020-08-12 20:22:21.3790,-0.01,0.0,-0.01
2020-08-12 20:22:21.4780,-0.03,-0.01,0.02
2020-08-12 20:22:21.5780,-0.04,-0.01,0.02
2020-08-12 20:22:21.6760,-0.04,-0.01,0.01
2020-08-12 20:22:21.7760,-0.11,-0.1,0.02
2020-08-12 20:22:21.8740,-0.21,-0.41,-0.03
2020-08-12 20:22:21.9750,-0.02,0.02,-0.12
2020-08-12 20:22:22.0740,-0.61,0.11,0.05
2020-08-12 20:22:22.1730,-0.52,0.02,0.26
2020-08-12 20:22:22.2720,-0.27,-0.08,0.33
2020-08-12 20:22:22.3720,0.13,-0.13,0.31
2020-08-12 20:22:22.4710,0.21,-0.13,0.25
2020-08-12 20:22:22.5700,0.29,-0.11,0.13
2020-08-12 20:22:22.6690,0.41,-0.06,-0.1
2020-08-12 20:22:22.7690,0.48,-0.06,-0.23
2020-08-12 20:22:22.8680,-0.64,-0.04,-0.35
2020-08-12 20:22:22.9670,0.15,0.08,0.07
2020-08-12 20:22:23.0660,0.14,-0.05,0.01
2020-08-12 20:22:23.1660,-0.03,-0.0,-0.01
2020-08-12 20:22:23.2650,0.01,0.01,0.03
2020-08-12 20:22:23.3640,-0.0,0.0,0.01
2020-08-12 20:22:23.4630,-0.01,0.01,-0.01
2020-08-12 20:22:23.5630,-0.06,0.01,0.01
2020-08-12 20:22:23.6620,-0.05,-0.06,-0.04
2020-08-12 20:22:23.7610,-0.06,-0.17,0.04
2020-08-12 20:22:23.8600,-0.17,-0.42,-0.18
2020-08-12 20:22:23.9600,0.22,-0.12,-0.17
2020-08-12 20:22:24.0590,-0.77,0.05,0.24
2020-08-12 20:22:24.1580,-0.26,-0.06,0.29
2020-08-12 20:22:24.2560,0.01,-0.07,0.42
2020-08-12 20:22:24.3570,0.16,-0.09,0.35
2020-08-12 20:22:24.4560,0.28,-0.13,0.21
2020-08-12 20:22:24.5550,0.44,-0.08,-0.07
2020-08-12 20:22:24.6550,0.5,-0.08,-0.2
2020-08-12 20:22:24.7540,0.39,-0.12,-0.19
2020-08-12 20:22:24.8530,0.38,-0.23,0.23
2020-08-12 20:22:24.9520,-0.23,-0.01,-0.03
2020-08-12 20:22:25.0520,-0.06,-0.0,0.03
2020-08-12 20:22:25.1500,-0.06,0.02,0.01
2020-08-12 20:22:25.2500,-0.01,0.01,-0.01
2020-08-12 20:22:25.3490,-0.04,0.02,0.01
2020-08-12 20:22:25.4480,0.0,0.01,-0.02
2020-08-12 20:22:25.5480,-0.06,0.02,0.0
2020-08-12 20:22:25.6470,-0.02,-0.05,0.01
2020-08-12 20:22:25.7460,-0.15,-0.36,-0.04
2020-08-12 20:22:25.8450,-0.14,0.13,-0.27
2020-08-12 20:22:25.9440,-0.17,0.1,-0.25
2020-08-12 20:22:26.0440,-0.53,-0.03,0.12
2020-08-12 20:22:26.1430,-0.28,-0.05,0.26
2020-08-12 20:22:26.2420,-0.06,-0.05,0.35
2020-08-12 20:22:26.3420,0.16,-0.05,0.31
2020-08-12 20:22:26.4400,0.22,-0.09,0.19
2020-08-12 20:22:26.5400,0.25,-0.06,0.01
2020-08-12 20:22:26.6400,0.51,-0.06,-0.15
2020-08-12 20:22:26.7390,0.37,-0.19,-0.39
2020-08-12 20:22:26.8380,0.4,-0.5,0.24
2020-08-12 20:22:26.9370,-0.31,0.07,-0.03
2020-08-12 20:22:27.0360,-0.02,-0.01,0.06
2020-08-12 20:22:27.1360,-0.03,0.01,0.04
2020-08-12 20:22:27.2350,-0.02,0.02,0.01
2020-08-12 20:22:27.3340,0.05,-0.04,-0.05
2020-08-12 20:22:27.4330,0.01,-0.02,-0.07
2020-08-12 20:22:27.5330,-0.06,-0.02,0.03
2020-08-12 20:22:27.6320,-0.11,-0.1,0.02
2020-08-12 20:22:27.7310,-0.26,-0.43,-0.09
2020-08-12 20:22:27.8300,0.09,-0.01,-0.06
2020-08-12 20:22:27.9300,-0.84,0.07,0.01
2020-08-12 20:22:28.0290,-0.3,-0.11,0.06
2020-08-12 20:22:28.1280,-0.04,-0.19,0.25
2020-08-12 20:22:28.2280,0.25,-0.15,0.32
2020-08-12 20:22:28.3270,0.43,-0.06,0.2
2020-08-12 20:22:28.4260,0.48,-0.01,-0.01
2020-08-12 20:22:28.5250,0.51,-0.03,-0.16
2020-08-12 20:22:28.6250,0.55,-0.31,-0.12
2020-08-12 20:22:28.7240,0.22,-0.08,-0.11
2020-08-12 20:22:28.8230,-0.03,0.01,0.17
2020-08-12 20:22:28.9220,-0.1,0.0,0.02
2020-08-12 20:22:29.0220,-0.05,-0.01,0.02
2020-08-12 20:22:29.1210,-0.02,-0.0,0.01
2020-08-12 20:22:29.2190,-0.03,0.0,-0.0
2020-08-12 20:22:29.3190,-0.07,0.01,0.04
2020-08-12 20:22:29.4190,-0.05,-0.04,-0.01
2020-08-12 20:22:29.5170,-0.1,-0.21,0.05
2020-08-12 20:22:29.6170,-0.2,-0.19,-0.23
2020-08-12 20:22:29.7160,0.02,0.07,-0.5
2020-08-12 20:22:29.8160,-0.67,-0.02,0.16
2020-08-12 20:22:29.9150,-0.3,0.02,0.32
2020-08-12 20:22:30.0140,-0.0,-0.08,0.37
2020-08-12 20:22:30.1130,0.07,-0.06,0.37
2020-08-12 20:22:30.2130,0.22,-0.1,0.25
2020-08-12 20:22:30.3120,0.24,-0.06,0.05
2020-08-12 20:22:30.4110,0.44,-0.08,-0.13
2020-08-12 20:22:30.5100,0.38,-0.03,-0.23
2020-08-12 20:22:30.6100,-0.51,-0.02,-0.19
2020-08-12 20:22:30.7090,0.47,-0.07,-0.11
2020-08-12 20:22:30.8080,0.27,-0.06,-0.09
2020-08-12 20:22:30.9070,0.05,-0.01,-0.03
2020-08-12 20:22:31.0070,-0.0,0.01,0.05
2020-08-12 20:22:31.1050,-0.05,-0.0,0.04
2020-08-12 20:22:31.2050,0.0,0.01,0.01
2020-08-12 20:22:31.3040,-0.05,0.03,0.01
2020-08-12 20:22:31.4040,-0.09,-0.01,-0.03
2020-08-12 20:22:31.5030,-0.09,-0.07,0.05
2020-08-12 20:22:31.6020,-0.2,-0.29,-0.05
2020-08-12 20:22:31.7010,-0.19,0.15,-0.08
2020-08-12 20:22:31.8010,-0.66,0.19,-0.14
2020-08-12 20:22:31.8990,-0.28,-0.03,0.13
2020-08-12 20:22:31.9990,-0.19,0.02,0.33
2020-08-12 20:22:32.0980,-0.0,-0.08,0.37
2020-08-12 20:22:32.1980,0.18,-0.12,0.32
2020-08-12 20:22:32.2970,0.37,-0.14,0.14
2020-08-12 20:22:32.3960,0.4,-0.13,-0.09
2020-08-12 20:22:32.4960,0.5,-0.06,-0.24
2020-08-12 20:22:32.5950,-0.35,-0.26,-0.65
2020-08-12 20:22:32.6940,0.21,-0.09,-0.2
2020-08-12 20:22:32.7940,-0.07,0.02,-0.01
2020-08-12 20:22:32.8920,0.02,-0.05,0.03
2020-08-12 20:22:32.9920,0.01,0.01,0.06
2020-08-12 20:22:33.0910,0.01,-0.02,-0.02
2020-08-12 20:22:33.1900,-0.01,-0.01,0.02
2020-08-12 20:22:33.2890,-0.03,-0.0,-0.02
2020-08-12 20:22:33.3890,-0.01,-0.07,-0.02
2020-08-12 20:22:33.4880,-0.1,-0.32,-0.07
2020-08-12 20:22:33.5870,-0.28,0.14,-0.23
2020-08-12 20:22:33.6860,-0.21,0.04,-0.34
2020-08-12 20:22:33.7860,-0.69,-0.02,0.22
2020-08-12 20:22:33.8850,-0.4,0.0,0.36
2020-08-12 20:22:33.9840,0.05,-0.14,0.37
2020-08-12 20:22:34.0840,0.22,-0.11,0.32
2020-08-12 20:22:34.1830,0.42,-0.1,0.17
2020-08-12 20:22:34.2820,0.45,-0.08,-0.04
2020-08-12 20:22:34.3810,0.55,-0.06,-0.29
2020-08-12 20:22:34.4810,-1.02,0.09,-0.21
2020-08-12 20:22:34.5800,0.34,0.16,0.18
2020-08-12 20:22:34.6790,0.2,-0.09,-0.08
2020-08-12 20:22:34.7780,-0.04,-0.02,-0.06
2020-08-12 20:22:34.8780,-0.01,0.02,0.04
2020-08-12 20:22:34.9770,-0.03,0.01,0.03
2020-08-12 20:22:35.0760,-0.04,-0.0,-0.01
2020-08-12 20:22:35.1750,-0.09,-0.01,0.03
2020-08-12 20:22:35.2740,-0.07,-0.03,0.03
2020-08-12 20:22:35.3740,-0.06,-0.22,-0.02
2020-08-12 20:22:35.4730,-0.14,-0.47,-0.21
2020-08-12 20:22:35.5720,0.3,-0.13,-0.04
2020-08-12 20:22:35.6710,-0.81,0.02,0.15
2020-08-12 20:22:35.7700,-0.29,-0.06,0.22
2020-08-12 20:22:35.8700,0.06,-0.16,0.39
2020-08-12 20:22:35.9690,0.17,-0.14,0.37
2020-08-12 20:22:36.0690,0.24,-0.13,0.24
2020-08-12 20:22:36.1680,0.54,-0.09,0.01
2020-08-12 20:22:36.2670,0.6,-0.11,-0.25
2020-08-12 20:22:36.3660,-1.24,0.1,-0.35
2020-08-12 20:22:36.4660,-0.04,0.17,0.24
2020-08-12 20:22:36.5650,0.03,-0.0,-0.01
2020-08-12 20:22:36.6640,0.02,-0.01,-0.07
2020-08-12 20:22:36.7630,-0.01,-0.0,0.04
2020-08-12 20:22:36.8630,-0.01,-0.01,0.01
2020-08-12 20:22:36.9620,-0.04,-0.0,0.01
2020-08-12 20:22:37.0610,-0.07,-0.01,0.03
2020-08-12 20:22:37.1600,-0.06,-0.06,0.04
2020-08-12 20:22:37.2600,-0.08,-0.23,-0.09
2020-08-12 20:22:37.3590,-0.29,-0.0,-0.18
2020-08-12 20:22:37.4580,-0.6,0.3,-0.18
2020-08-12 20:22:37.5570,-0.21,-0.08,0.02
2020-08-12 20:22:37.6560,-0.1,-0.05,0.4
2020-08-12 20:22:37.7560,0.1,-0.06,0.39
2020-08-12 20:22:37.8550,0.17,-0.1,0.31
2020-08-12 20:22:37.9540,0.31,-0.13,0.21
2020-08-12 20:22:38.0540,0.4,-0.1,0.04
2020-08-12 20:22:38.1530,0.58,-0.08,-0.25
2020-08-12 20:22:38.2510,-0.07,-0.3,-0.82
2020-08-12 20:22:38.3510,0.17,-0.22,0.31
2020-08-12 20:22:38.4510,-0.11,0.0,-0.11
2020-08-12 20:22:38.5500,-0.02,-0.02,0.03
2020-08-12 20:22:38.6490,-0.0,0.01,0.04
2020-08-12 20:22:38.7480,-0.04,0.0,-0.01
2020-08-12 20:22:38.8480,-0.02,0.02,0.0
2020-08-12 20:22:38.9470,-0.07,0.01,0.01
2020-08-12 20:22:39.0460,-0.05,-0.06,0.0
2020-08-12 20:22:39.1450,-0.16,-0.32,-0.09
2020-08-12 20:22:39.2450,-0.16,-0.02,-0.2
2020-08-12 20:22:39.3440,-0.81,0.2,-0.31
2020-08-12 20:22:39.4430,-0.11,-0.16,-0.01
2020-08-12 20:22:39.5420,-0.15,-0.04,0.45
2020-08-12 20:22:39.6420,0.07,-0.05,0.5
2020-08-12 20:22:39.7410,0.22,-0.09,0.41
2020-08-12 20:22:39.8400,0.34,-0.11,0.17
2020-08-12 20:22:39.9380,0.46,-0.09,-0.12
2020-08-12 20:22:40.0390,0.47,-0.08,-0.27
2020-08-12 20:22:40.1380,0.08,-0.11,-0.36
2020-08-12 20:22:40.2370,0.25,0.04,-0.04
2020-08-12 20:22:40.3360,0.06,-0.03,0.08
2020-08-12 20:22:40.4350,-0.08,-0.01,0.01
2020-08-12 20:22:40.5340,-0.04,-0.0,0.01
2020-08-12 20:22:40.6340,-0.05,-0.01,0.01
2020-08-12 20:22:40.7330,-0.03,-0.01,0.01
2020-08-12 20:22:40.8330,-0.06,-0.01,0.02
2020-08-12 20:22:40.9330,-0.04,-0.08,0.04
2020-08-12 20:22:41.0310,-0.27,-0.41,-0.06
2020-08-12 20:22:41.1300,-0.08,-0.02,-0.02
2020-08-12 20:22:41.2300,-0.97,0.29,-0.05
2020-08-12 20:22:41.3290,-0.23,-0.19,0.05
2020-08-12 20:22:41.4280,0.03,-0.1,0.32
2020-08-12 20:22:41.5270,0.17,-0.11,0.41
2020-08-12 20:22:41.6260,0.25,-0.09,0.29
2020-08-12 20:22:41.7260,0.36,-0.09,0.2
2020-08-12 20:22:41.8240,0.42,-0.08,-0.11
2020-08-12 20:22:41.9240,0.36,-0.08,-0.31
2020-08-12 20:22:42.0240,-1.06,-0.13,-0.99
2020-08-12 20:22:42.1230,0.26,0.05,-0.03
2020-08-12 20:22:42.2220,-0.01,-0.02,-0.09
2020-08-12 20:22:42.3220,-0.09,-0.03,0.01
2020-08-12 20:22:42.4210,-0.01,0.02,0.03
2020-08-12 20:22:42.5200,-0.02,0.02,-0.0
2020-08-12 20:22:42.6190,-0.03,-0.0,-0.02
2020-08-12 20:22:42.7180,-0.11,0.01,0.05
2020-08-12 20:22:42.8180,-0.08,-0.07,0.05
2020-08-12 20:22:42.9170,-0.18,-0.41,-0.05
2020-08-12 20:22:43.0160,-0.39,-0.01,-0.18
2020-08-12 20:22:43.1150,-0.87,0.38,-0.03
2020-08-12 20:22:43.2150,-0.39,-0.12,0.02
2020-08-12 20:22:43.3140,-0.21,-0.08,0.43
2020-08-12 20:22:43.4130,0.21,-0.13,0.51
2020-08-12 20:22:43.5130,0.29,-0.1,0.34
2020-08-12 20:22:43.6120,0.34,-0.08,0.13
2020-08-12 20:22:43.7110,0.38,-0.07,-0.12
2020-08-12 20:22:43.8100,0.43,-0.09,-0.28
2020-08-12 20:22:43.9100,-1.02,-0.02,-0.85
2020-08-12 20:22:44.0090,0.38,0.14,0.01
2020-08-12 20:22:44.1080,0.14,-0.07,-0.03
2020-08-12 20:22:44.2070,-0.03,-0.01,-0.04
2020-08-12 20:22:44.3060,0.05,0.0,0.0
2020-08-12 20:22:44.4060,-0.03,-0.01,0.01
2020-08-12 20:22:44.5050,-0.01,0.02,0.02
2020-08-12 20:22:44.6040,-0.12,-0.01,0.02
2020-08-12 20:22:44.7030,-0.07,-0.06,0.08
2020-08-12 20:22:44.8030,-0.29,-0.63,-0.14
2020-08-12 20:22:44.9020,0.14,-0.06,-0.08
2020-08-12 20:22:45.0020,-0.88,0.12,-0.02
2020-08-12 20:22:45.1010,0.07,-0.19,0.1
2020-08-12 20:22:45.2000,0.04,-0.08,0.48
2020-08-12 20:22:45.2980,0.33,-0.08,0.42
2020-08-12 20:22:45.3980,0.27,-0.06,0.26
2020-08-12 20:22:45.4970,0.49,-0.11,-0.05
2020-08-12 20:22:45.5970,0.43,-0.1,-0.33
2020-08-12 20:22:45.6950,-0.18,-0.13,-0.64
2020-08-12 20:22:45.7950,0.22,-0.08,0.02
2020-08-12 20:22:45.8940,-0.06,-0.0,-0.09
2020-08-12 20:22:45.9930,0.03,-0.02,-0.02
2020-08-12 20:22:46.0930,-0.03,0.02,0.04
2020-08-12 20:22:46.1920,-0.01,0.0,0.01
2020-08-12 20:22:46.2910,0.0,0.0,-0.01
2020-08-12 20:22:46.3910,-0.05,0.02,0.02
2020-08-12 20:22:46.4900,-0.05,-0.03,-0.02
2020-08-12 20:22:46.5890,-0.08,-0.14,0.05
2020-08-12 20:22:46.6880,-0.28,-0.37,-0.21
2020-08-12 20:22:46.7880,0.14,-0.05,-0.23
2020-08-12 20:22:46.8870,-0.76,0.05,0.15
2020-08-12 20:22:46.9860,-0.26,-0.05,0.22
2020-08-12 20:22:47.0860,0.11,-0.13,0.37
2020-08-12 20:22:47.1850,0.34,-0.07,0.32
2020-08-12 20:22:47.2840,0.32,-0.09,0.28
2020-08-12 20:22:47.3830,0.37,-0.1,0.06
2020-08-12 20:22:47.4830,0.54,-0.08,-0.13
2020-08-12 20:22:47.5810,0.45,-0.04,-0.29
2020-08-12 20:22:47.6810,0.31,-0.4,0.55
2020-08-12 20:22:47.7800,-0.28,0.04,-0.06
2020-08-12 20:22:47.8800,-0.04,0.02,0.05
2020-08-12 20:22:47.9780,-0.05,0.01,0.02
2020-08-12 20:22:48.0780,-0.04,-0.01,0.03
2020-08-12 20:22:48.1770,-0.03,0.0,0.01
2020-08-12 20:22:48.2770,-0.05,0.02,0.04
2020-08-12 20:22:48.3760,-0.09,-0.02,0.03
2020-08-12 20:22:48.4750,-0.04,-0.14,-0.02
2020-08-12 20:22:48.5740,-0.25,-0.39,-0.03
2020-08-12 20:22:48.6740,-0.07,-0.1,-0.18
2020-08-12 20:22:48.7720,-0.87,-0.02,0.09
2020-08-12 20:22:48.8720,-0.25,-0.03,0.31
2020-08-12 20:22:48.9710,0.02,-0.08,0.32
2020-08-12 20:22:49.0710,0.22,-0.08,0.3
2020-08-12 20:22:49.1700,0.27,-0.06,0.22
2020-08-12 20:22:49.2680,0.32,-0.06,0.09
2020-08-12 20:22:49.3670,0.31,-0.04,-0.17
2020-08-12 20:22:49.4680,0.5,-0.02,-0.42
2020-08-12 20:22:49.5670,0.25,-0.32,0.21
2020-08-12 20:22:49.6660,-0.05,-0.06,0.02
2020-08-12 20:22:49.7650,-0.1,0.01,0.11
2020-08-12 20:22:49.8650,-0.05,-0.01,-0.0
2020-08-12 20:22:49.9630,-0.01,-0.01,0.02
2020-08-12 20:22:50.0630,-0.0,0.01,0.0
2020-08-12 20:22:50.1620,-0.0,0.0,-0.01
2020-08-12 20:22:50.2610,0.02,-0.03,-0.03
2020-08-12 20:22:50.3610,-0.05,-0.07,0.06
2020-08-12 20:22:50.4600,-0.13,-0.26,-0.05
2020-08-12 20:22:50.5590,-0.33,0.09,-0.16
2020-08-12 20:22:50.6590,-0.28,0.13,-0.2
2020-08-12 20:22:50.7580,-0.56,-0.05,0.08
2020-08-12 20:22:50.8570,-0.19,-0.02,0.32
2020-08-12 20:22:50.9560,0.03,-0.08,0.39
2020-08-12 20:22:51.0560,0.14,-0.07,0.33
2020-08-12 20:22:51.1550,0.25,-0.07,0.19
2020-08-12 20:22:51.2540,0.37,-0.1,-0.04
2020-08-12 20:22:51.3530,0.49,-0.04,-0.21
2020-08-12 20:22:51.4530,0.23,-0.12,-0.53
2020-08-12 20:22:51.5520,0.37,-0.26,0.24
2020-08-12 20:22:51.6510,-0.03,0.01,-0.11
2020-08-12 20:22:51.7500,0.07,-0.0,-0.0
2020-08-12 20:22:51.8500,-0.02,0.01,0.04
2020-08-12 20:22:51.9490,0.0,-0.0,-0.02
2020-08-12 20:22:52.0470,0.02,-0.01,-0.05
2020-08-12 20:22:52.1470,-0.02,-0.01,0.02
2020-08-12 20:22:52.2470,-0.03,-0.02,0.01
2020-08-12 20:22:52.3450,-0.07,-0.13,0.01
2020-08-12 20:22:52.4450,-0.2,-0.39,-0.06
2020-08-12 20:22:52.5450,0.13,-0.0,0.02
2020-08-12 20:22:52.6440,-0.74,0.03,0.09
2020-08-12 20:22:52.7430,-0.29,-0.01,0.2
2020-08-12 20:22:52.8420,-0.04,-0.04,0.35
2020-08-12 20:22:52.9410,0.02,-0.09,0.39
2020-08-12 20:22:53.0410,0.24,-0.14,0.27
2020-08-12 20:22:53.1400,0.5,-0.14,0.06
2020-08-12 20:22:53.2390,0.48,-0.07,-0.19
2020-08-12 20:22:53.3380,0.39,-0.04,-0.31
2020-08-12 20:22:53.4380,0.73,-0.33,-0.19
2020-08-12 20:22:53.5370,0.04,-0.02,-0.04
2020-08-12 20:22:53.6360,0.02,0.01,0.1
2020-08-12 20:22:53.7350,-0.09,0.01,0.01
2020-08-12 20:22:53.8350,-0.0,-0.02,0.01
2020-08-12 20:22:53.9340,-0.01,-0.01,0.01
2020-08-12 20:22:54.0330,-0.05,-0.01,0.01
2020-08-12 20:22:54.1320,-0.07,-0.05,0.02
2020-08-12 20:22:54.2320,-0.12,-0.14,0.03
2020-08-12 20:22:54.3310,-0.28,-0.05,-0.12
2020-08-12 20:22:54.4290,-0.19,0.05,-0.34
2020-08-12 20:22:54.5290,-0.69,0.01,0.07
2020-08-12 20:22:54.6290,-0.28,-0.03,0.19
2020-08-12 20:22:54.7280,0.02,-0.09,0.35
2020-08-12 20:22:54.8270,0.16,-0.06,0.35
2020-08-12 20:22:54.9260,0.29,-0.08,0.26
2020-08-12 20:22:55.0260,0.41,-0.07,0.05
2020-08-12 20:22:55.1240,0.39,-0.05,-0.24
2020-08-12 20:22:55.2240,0.14,-0.15,-0.48
2020-08-12 20:22:55.3240,0.11,-0.47,0.22
2020-08-12 20:22:55.4230,-0.19,0.05,0.04
2020-08-12 20:22:55.5220,0.1,-0.02,-0.03
2020-08-12 20:22:55.6210,0.01,0.03,0.03
2020-08-12 20:22:55.7210,-0.02,-0.0,-0.01
2020-08-12 20:22:55.8200,0.01,0.01,0.0
2020-08-12 20:22:55.9180,-0.01,-0.01,-0.05
2020-08-12 20:22:56.0180,-0.03,-0.05,0.03
2020-08-12 20:22:56.1170,-0.12,-0.24,-0.06
2020-08-12 20:22:56.2170,-0.3,-0.01,-0.12
2020-08-12 20:22:56.3160,-0.25,0.09,-0.37
2020-08-12 20:22:56.4150,-0.66,-0.04,0.02
2020-08-12 20:22:56.5140,-0.2,-0.05,0.27
2020-08-12 20:22:56.6140,0.07,-0.08,0.33
2020-08-12 20:22:56.7130,0.1,-0.04,0.31
2020-08-12 20:22:56.8110,0.21,-0.06,0.22
2020-08-12 20:22:56.9120,0.28,-0.05,-0.01
2020-08-12 20:22:57.0110,0.4,-0.07,-0.11
2020-08-12 20:22:57.1100,0.31,-0.05,-0.24
2020-08-12 20:22:57.2100,0.35,-0.13,-0.07
2020-08-12 20:22:57.3090,-0.19,-0.04,-0.04
2020-08-12 20:22:57.4080,-0.09,0.05,0.11
2020-08-12 20:22:57.5070,-0.05,-0.01,0.02
2020-08-12 20:22:57.6070,-0.01,-0.01,-0.02
2020-08-12 20:22:57.7060,-0.02,0.01,0.01
2020-08-12 20:22:57.8050,-0.03,0.01,0.01
2020-08-12 20:22:57.9040,-0.08,-0.02,0.02
2020-08-12 20:22:58.0030,-0.07,-0.09,-0.01
2020-08-12 20:22:58.1030,-0.28,-0.31,-0.05
2020-08-12 20:22:58.2020,0.09,-0.0,-0.06
2020-08-12 20:22:58.3010,-0.73,0.12,-0.16
2020-08-12 20:22:58.4000,-0.16,-0.08,-0.02
2020-08-12 20:22:58.4990,-0.14,-0.07,0.28
2020-08-12 20:22:58.5990,0.05,-0.08,0.37
2020-08-12 20:22:58.6980,0.13,-0.08,0.32
2020-08-12 20:22:58.7970,0.34,-0.07,0.2
2020-08-12 20:22:58.8970,0.35,-0.08,-0.03
2020-08-12 20:22:58.9960,0.44,-0.06,-0.25
2020-08-12 20:22:59.0950,-0.58,-0.17,-0.92
2020-08-12 20:22:59.1940,0.07,0.06,0.01
2020-08-12 20:22:59.2940,0.01,-0.01,-0.05
2020-08-12 20:22:59.3930,0.01,-0.01,0.01
2020-08-12 20:22:59.4920,-0.08,0.04,0.04
2020-08-12 20:22:59.5910,-0.0,-0.0,-0.02
2020-08-12 20:22:59.6910,-0.05,-0.0,0.03
2020-08-12 20:22:59.7900,-0.07,-0.01,0.01
2020-08-12 20:22:59.8890,-0.11,-0.02,0.07
2020-08-12 20:22:59.9880,-0.13,-0.33,-0.06
2020-08-12 20:23:00.0880,-0.29,0.07,-0.07
2020-08-12 20:23:00.1860,-0.67,0.14,-0.32
2020-08-12 20:23:00.2860,-0.28,-0.08,0.07
2020-08-12 20:23:00.3850,-0.16,-0.04,0.27
2020-08-12 20:23:00.4850,0.13,-0.09,0.33
2020-08-12 20:23:00.5840,0.22,-0.09,0.26
2020-08-12 20:23:00.6830,0.31,-0.09,0.16
2020-08-12 20:23:00.7820,0.41,-0.08,-0.0
2020-08-12 20:23:00.8820,0.35,-0.04,-0.15
2020-08-12 20:23:00.9810,0.45,-0.04,-0.31
2020-08-12 20:23:01.0800,0.19,-0.27,0.38
2020-08-12 20:23:01.1800,-0.29,0.04,0.0
2020-08-12 20:23:01.2790,-0.01,-0.02,0.03
2020-08-12 20:23:01.3780,-0.01,0.02,-0.02
2020-08-12 20:23:01.4770,-0.01,-0.01,0.01
2020-08-12 20:23:01.5760,-0.01,-0.01,-0.01
2020-08-12 20:23:01.6760,-0.01,0.01,-0.02
2020-08-12 20:23:01.7750,-0.08,-0.01,0.02
2020-08-12 20:23:01.8740,-0.06,-0.14,0.04
2020-08-12 20:23:01.9730,-0.21,-0.51,-0.14
2020-08-12 20:23:02.0730,0.2,-0.05,-0.03
2020-08-12 20:23:02.1720,-0.84,0.09,0.15
2020-08-12 20:23:02.2710,-0.34,-0.08,0.19
2020-08-12 20:23:02.3710,0.0,-0.21,0.25
2020-08-12 20:23:02.4690,0.23,-0.14,0.23
2020-08-12 20:23:02.5690,0.34,-0.1,0.13
2020-08-12 20:23:02.6680,0.55,-0.04,0.01
2020-08-12 20:23:02.7670,0.49,-0.03,-0.13
2020-08-12 20:23:02.8670,-0.1,-0.12,-0.41
2020-08-12 20:23:02.9660,0.28,0.01,0.08
2020-08-12 20:23:03.0650,0.05,-0.03,-0.0
2020-08-12 20:23:03.1640,-0.03,-0.04,-0.01
2020-08-12 20:23:03.2640,-0.02,0.01,0.04
2020-08-12 20:23:03.3620,-0.03,-0.0,0.03
2020-08-12 20:23:03.4620,-0.04,-0.0,0.02
2020-08-12 20:23:03.5620,-0.06,-0.02,0.01
2020-08-12 20:23:03.6610,-0.06,-0.04,0.02
2020-08-12 20:23:03.7600,-0.11,-0.28,-0.07
2020-08-12 20:23:03.8590,-0.25,-0.04,-0.15
2020-08-12 20:23:03.9580,-0.59,0.08,-0.32
2020-08-12 20:23:04.0580,-0.47,-0.11,0.04
2020-08-12 20:23:04.1570,-0.17,-0.12,0.32
2020-08-12 20:23:04.2560,0.17,-0.12,0.41
2020-08-12 20:23:04.3550,0.34,-0.1,0.3
2020-08-12 20:23:04.4550,0.48,-0.08,0.22
2020-08-12 20:23:04.5540,0.56,-0.1,-0.11
2020-08-12 20:23:04.6530,0.43,-0.06,-0.25
2020-08-12 20:23:04.7520,-0.09,-0.12,-0.32
2020-08-12 20:23:04.8520,0.27,0.09,0.18
2020-08-12 20:23:04.9510,0.1,-0.05,-0.09
2020-08-12 20:23:05.0500,-0.02,-0.02,-0.02
2020-08-12 20:23:05.1490,-0.01,0.0,0.02
2020-08-12 20:23:05.2490,-0.04,0.01,0.01
2020-08-12 20:23:05.3480,-0.03,0.0,0.01
2020-08-12 20:23:05.4460,-0.06,-0.01,0.01
2020-08-12 20:23:05.5460,-0.08,-0.05,0.07
2020-08-12 20:23:05.6460,-0.14,-0.45,-0.01
2020-08-12 20:23:05.7450,-0.15,0.09,-0.14
2020-08-12 20:23:05.8440,-0.68,0.12,-0.17
2020-08-12 20:23:05.9440,-0.34,-0.04,0.11
2020-08-12 20:23:06.0430,-0.1,-0.07,0.32
2020-08-12 20:23:06.1420,0.04,-0.1,0.4
2020-08-12 20:23:06.2410,0.26,-0.11,0.27
2020-08-12 20:23:06.3400,0.44,-0.09,0.12
2020-08-12 20:23:06.4400,0.43,-0.06,-0.08
2020-08-12 20:23:06.5390,0.45,-0.01,-0.22
2020-08-12 20:23:06.6370,-0.03,-0.2,-0.01
2020-08-12 20:23:06.7380,-0.06,0.08,0.1
2020-08-12 20:23:06.8370,-0.07,0.02,0.08
2020-08-12 20:23:06.9360,-0.06,-0.01,0.02
2020-08-12 20:23:07.0350,-0.02,0.02,0.01
2020-08-12 20:23:07.1350,0.03,0.02,-0.02
2020-08-12 20:23:07.2340,-0.02,0.02,-0.01
2020-08-12 20:23:07.3330,-0.05,-0.03,-0.0
2020-08-12 20:23:07.4320,-0.08,-0.08,0.0
2020-08-12 20:23:07.5310,-0.15,-0.34,0.01
2020-08-12 20:23:07.6310,0.24,-0.0,-0.04
2020-08-12 20:23:07.7300,-0.71,0.08,-0.13
2020-08-12 20:23:07.8290,-0.28,-0.04,0.17
2020-08-12 20:23:07.9290,-0.07,-0.01,0.46
2020-08-12 20:23:08.0280,-0.02,-0.06,0.44
2020-08-12 20:23:08.1270,0.13,-0.08,0.39
2020-08-12 20:23:08.2260,0.25,-0.16,0.22
2020-08-12 20:23:08.3260,0.39,-0.1,-0.08
2020-08-12 20:23:08.4250,0.41,-0.05,-0.28
2020-08-12 20:23:08.5240,0.09,-0.15,-0.54
2020-08-12 20:23:08.6230,0.13,-0.24,0.12
2020-08-12 20:23:08.7230,-0.12,0.04,-0.06
2020-08-12 20:23:08.8220,-0.05,-0.01,0.09
2020-08-12 20:23:08.9210,-0.0,-0.01,0.02
2020-08-12 20:23:09.0190,-0.0,0.02,-0.0
2020-08-12 20:23:09.1200,-0.02,0.01,-0.01
2020-08-12 20:23:09.2180,-0.03,0.01,-0.0
2020-08-12 20:23:09.3170,-0.11,-0.03,0.05
2020-08-12 20:23:09.4180,-0.05,-0.18,0.01
2020-08-12 20:23:09.5170,-0.11,-0.54,-0.21
2020-08-12 20:23:09.6160,-0.01,-0.02,-0.41
2020-08-12 20:23:09.7150,-0.75,-0.02,0.02
2020-08-12 20:23:09.8140,-0.33,-0.03,0.24
2020-08-12 20:23:09.9140,0.07,-0.06,0.35
2020-08-12 20:23:10.0130,0.22,-0.04,0.4
2020-08-12 20:23:10.1120,0.18,-0.07,0.35
2020-08-12 20:23:10.2110,0.42,-0.09,0.09
2020-08-12 20:23:10.3110,0.26,-0.08,-0.14
2020-08-12 20:23:10.4100,0.39,-0.05,-0.31
2020-08-12 20:23:10.5090,0.31,-0.2,0.0
2020-08-12 20:23:10.6070,-0.09,0.04,0.03
2020-08-12 20:23:10.7080,-0.08,-0.02,0.07
2020-08-12 20:23:10.8070,-0.04,-0.0,0.01
2020-08-12 20:23:10.9060,0.01,0.0,0.01
2020-08-12 20:23:11.0050,-0.01,-0.01,0.01
2020-08-12 20:23:11.1050,-0.07,0.0,0.03
2020-08-12 20:23:11.2040,-0.08,-0.02,0.04
2020-08-12 20:23:11.3030,-0.04,-0.1,0.0
2020-08-12 20:23:11.4020,-0.2,-0.55,-0.12
2020-08-12 20:23:11.5020,-0.03,-0.04,0.12
2020-08-12 20:23:11.6010,-0.75,0.13,0.06
2020-08-12 20:23:11.7000,-0.33,-0.1,0.1
2020-08-12 20:23:11.7990,0.01,-0.14,0.37
2020-08-12 20:23:11.8990,0.13,-0.1,0.35
2020-08-12 20:23:11.9980,0.3,-0.13,0.2
2020-08-12 20:23:12.0970,0.31,-0.08,0.02
2020-08-12 20:23:12.1960,0.5,-0.05,-0.06
2020-08-12 20:23:12.2960,0.42,-0.02,-0.26
2020-08-12 20:23:12.3940,0.31,-0.33,0.25
2020-08-12 20:23:12.4940,-0.23,-0.03,0.02
2020-08-12 20:23:12.5930,-0.06,0.03,0.12
2020-08-12 20:23:12.6930,-0.03,0.01,0.02
2020-08-12 20:23:12.7920,-0.03,-0.0,0.01
2020-08-12 20:23:12.8910,-0.03,-0.01,0.01
2020-08-12 20:23:12.9900,-0.04,-0.0,0.02
2020-08-12 20:23:13.0890,-0.08,-0.01,0.1
2020-08-12 20:23:13.1890,-0.06,-0.29,-0.02
2020-08-12 20:23:13.2880,-0.33,-0.01,-0.2
2020-08-12 20:23:13.3870,-0.37,0.03,-0.29
2020-08-12 20:23:13.4870,-0.55,-0.09,0.14
2020-08-12 20:23:13.5860,-0.15,-0.06,0.41
2020-08-12 20:23:13.6850,0.17,-0.09,0.46
2020-08-12 20:23:13.7840,0.17,-0.1,0.25
2020-08-12 20:23:13.8840,0.35,-0.1,0.05
2020-08-12 20:23:13.9830,0.44,-0.08,-0.12
2020-08-12 20:23:14.0820,0.39,-0.03,-0.29
2020-08-12 20:23:14.1820,-1.17,-0.16,-0.94
2020-08-12 20:23:14.2810,0.01,0.22,0.23
2020-08-12 20:23:14.3800,0.02,-0.1,-0.05
2020-08-12 20:23:14.4790,0.02,-0.02,-0.04
2020-08-12 20:23:14.5780,0.01,-0.02,0.0
2020-08-12 20:23:14.6780,0.01,-0.01,0.01
2020-08-12 20:23:14.7770,0.01,0.01,-0.01
2020-08-12 20:23:14.8760,-0.05,0.0,0.01
2020-08-12 20:23:14.9760,-0.06,-0.08,0.02
2020-08-12 20:23:15.0750,-0.13,-0.51,-0.03
2020-08-12 20:23:15.1740,-0.02,0.11,-0.07
2020-08-12 20:23:15.2730,-0.89,0.11,-0.14
2020-08-12 20:23:15.3730,-0.38,-0.12,0.25
2020-08-12 20:23:15.4720,-0.04,-0.11,0.4
2020-08-12 20:23:15.5710,0.11,-0.12,0.38
2020-08-12 20:23:15.6700,0.18,-0.13,0.28
2020-08-12 20:23:15.7690,0.34,-0.09,0.18
2020-08-12 20:23:15.8690,0.56,-0.06,-0.03
2020-08-12 20:23:15.9680,0.6,-0.05,-0.29
2020-08-12 20:23:16.0670,-0.2,-0.24,0.05
2020-08-12 20:23:16.1660,0.16,-0.0,0.14
2020-08-12 20:23:16.2660,0.04,-0.05,0.09
2020-08-12 20:23:16.3640,-0.03,-0.05,-0.01
2020-08-12 20:23:16.4630,-0.0,0.02,0.03
2020-08-12 20:23:16.5630,-0.04,0.01,0.03
2020-08-12 20:23:16.6630,-0.06,-0.01,0.03
2020-08-12 20:23:16.7620,-0.06,-0.0,0.01
2020-08-12 20:23:16.8610,-0.07,-0.03,0.01
2020-08-12 20:23:16.9610,-0.09,-0.22,-0.03
2020-08-12 20:23:17.0600,-0.1,-0.15,-0.15
2020-08-12 20:23:17.1590,-0.74,0.27,-0.33
2020-08-12 20:23:17.2570,-0.09,-0.11,0.0
2020-08-12 20:23:17.3580,-0.08,-0.01,0.35
2020-08-12 20:23:17.4570,0.19,-0.05,0.45
2020-08-12 20:23:17.5560,0.1,-0.06,0.41
2020-08-12 20:23:17.6550,0.19,-0.09,0.23
2020-08-12 20:23:17.7550,0.25,-0.09,0.01
2020-08-12 20:23:17.8540,0.41,-0.05,-0.18
2020-08-12 20:23:17.9530,0.42,-0.04,-0.27
2020-08-12 20:23:18.0520,0.33,-0.28,0.23
2020-08-12 20:23:18.1520,-0.05,-0.09,0.05
2020-08-12 20:23:18.2510,0.03,-0.02,0.11
2020-08-12 20:23:18.3500,-0.04,-0.01,-0.0
2020-08-12 20:23:18.4490,0.0,-0.0,0.02
2020-08-12 20:23:18.5480,-0.02,0.01,0.04
2020-08-12 20:23:18.6480,0.0,-0.0,-0.02
2020-08-12 20:23:18.7470,-0.06,-0.04,0.03
2020-08-12 20:23:18.8460,-0.05,-0.18,-0.0
2020-08-12 20:23:18.9450,-0.22,-0.3,-0.22
2020-08-12 20:23:19.0450,0.23,-0.08,-0.26
2020-08-12 20:23:19.1440,-0.78,-0.03,0.08
2020-08-12 20:23:19.2430,-0.06,-0.04,0.22
2020-08-12 20:23:19.3430,0.11,-0.05,0.37
2020-08-12 20:23:19.4420,0.09,-0.06,0.41
2020-08-12 20:23:19.5420,0.25,-0.08,0.3
2020-08-12 20:23:19.6400,0.39,-0.06,0.18
2020-08-12 20:23:19.7400,0.42,-0.08,-0.06
2020-08-12 20:23:19.8390,0.18,-0.12,-0.47
2020-08-12 20:23:19.9380,0.16,-0.51,0.13
2020-08-12 20:23:20.0370,-0.11,0.0,-0.02
2020-08-12 20:23:20.1370,-0.01,0.01,0.05
2020-08-12 20:23:20.2360,-0.03,0.03,0.03
2020-08-12 20:23:20.3350,-0.0,-0.02,-0.01
2020-08-12 20:23:20.4340,-0.03,-0.01,0.02
2020-08-12 20:23:20.5330,-0.04,-0.01,-0.02
2020-08-12 20:23:20.6330,-0.06,-0.04,0.03
2020-08-12 20:23:20.7320,-0.15,-0.29,0.01
2020-08-12 20:23:20.8310,-0.29,-0.04,-0.14
2020-08-12 20:23:20.9310,-0.41,0.03,-0.49
2020-08-12 20:23:21.0300,-0.6,-0.09,-0.01
2020-08-12 20:23:21.1290,-0.26,-0.06,0.19
2020-08-12 20:23:21.2270,0.11,-0.12,0.32
2020-08-12 20:23:21.3280,0.2,-0.04,0.44
2020-08-12 20:23:21.4270,0.22,-0.05,0.26
2020-08-12 20:23:21.5260,0.35,-0.08,0.07
2020-08-12 20:23:21.6250,0.46,-0.05,-0.11
2020-08-12 20:23:21.7250,0.41,-0.11,-0.19
2020-08-12 20:23:21.8240,0.56,-0.39,0.24
2020-08-12 20:23:21.9230,-0.29,0.04,0.03
2020-08-12 20:23:22.0210,-0.09,0.05,0.09
2020-08-12 20:23:22.1220,-0.05,0.01,-0.03
2020-08-12 20:23:22.2200,-0.06,-0.0,0.02
2020-08-12 20:23:22.3200,-0.04,-0.01,0.01
2020-08-12 20:23:22.4190,-0.03,0.0,0.01
2020-08-12 20:23:22.5190,-0.15,0.01,0.05
2020-08-12 20:23:22.6180,-0.09,-0.07,0.03
2020-08-12 20:23:22.7170,-0.14,-0.4,-0.06
2020-08-12 20:23:22.8150,0.09,-0.02,-0.11
2020-08-12 20:23:22.9160,-0.91,0.09,0.25
2020-08-12 20:23:23.0150,-0.26,-0.04,0.2
2020-08-12 20:23:23.1140,-0.11,-0.01,0.38
2020-08-12 20:23:23.2130,0.03,-0.11,0.41
2020-08-12 20:23:23.3120,0.19,-0.17,0.34
2020-08-12 20:23:23.4110,0.36,-0.09,0.16
2020-08-12 20:23:23.5110,0.49,-0.06,-0.09
2020-08-12 20:23:23.6100,0.51,-0.01,-0.26
2020-08-12 20:23:23.7100,0.56,-0.49,0.2
2020-08-12 20:23:23.8090,-0.24,-0.02,0.04
2020-08-12 20:23:23.9080,-0.01,-0.01,0.07
2020-08-12 20:23:24.0080,-0.04,0.0,-0.01
2020-08-12 20:23:24.1070,-0.01,0.01,0.0
2020-08-12 20:23:24.2060,0.01,0.0,-0.0
2020-08-12 20:23:24.3050,0.02,-0.0,-0.01
2020-08-12 20:23:24.4040,-0.12,-0.02,0.02
2020-08-12 20:23:24.5040,-0.14,-0.06,0.04
2020-08-12 20:23:24.6030,-0.14,-0.52,-0.04
2020-08-12 20:23:24.7020,0.11,0.17,-0.23
2020-08-12 20:23:24.8020,-0.52,0.04,-0.12
2020-08-12 20:23:24.9010,-0.31,-0.02,0.2
2020-08-12 20:23:25.0000,-0.23,-0.03,0.34
2020-08-12 20:23:25.0990,-0.06,-0.14,0.32
2020-08-12 20:23:25.1980,0.26,-0.13,0.13
2020-08-12 20:23:25.2980,0.44,-0.09,-0.08
2020-08-12 20:23:25.3970,0.73,-0.0,-0.18
2020-08-12 20:23:25.4960,-0.65,-0.28,-0.85
2020-08-12 20:23:25.5960,0.01,0.13,-0.07
2020-08-12 20:23:25.6950,0.09,-0.07,-0.05
2020-08-12 20:23:25.7940,0.02,-0.01,-0.03
2020-08-12 20:23:25.8930,-0.04,0.02,0.01
2020-08-12 20:23:25.9920,-0.05,0.01,0.01
2020-08-12 20:23:26.0920,-0.05,0.0,0.02
2020-08-12 20:23:26.1910,-0.04,0.01,0.02
2020-08-12 20:23:26.2900,-0.13,0.01,-0.02
2020-08-12 20:23:26.3890,-0.06,-0.15,0.02
2020-08-12 20:23:26.4890,-0.26,-0.03,-0.25
2020-08-12 20:23:26.5880,-0.05,0.03,-0.35
2020-08-12 20:23:26.6870,-0.45,-0.08,0.03
2020-08-12 20:23:26.7860,-0.19,-0.01,0.33
2020-08-12 20:23:26.8860,0.0,-0.02,0.5
2020-08-12 20:23:26.9850,0.16,-0.02,0.44
2020-08-12 20:23:27.0830,0.21,-0.09,0.28
2020-08-12 20:23:27.1830,0.28,-0.11,0.07
2020-08-12 20:23:27.2820,0.37,-0.08,-0.14
2020-08-12 20:23:27.3820,0.29,-0.13,-0.34
2020-08-12 20:23:27.4800,0.43,-0.21,0.02
2020-08-12 20:23:27.5810,-0.05,0.05,-0.05
2020-08-12 20:23:27.6800,-0.13,0.0,0.15
2020-08-12 20:23:27.7790,-0.04,-0.01,-0.01
2020-08-12 20:23:27.8780,-0.01,-0.0,0.03
2020-08-12 20:23:27.9780,-0.03,-0.01,0.0
2020-08-12 20:23:28.0770,-0.05,0.03,0.03
2020-08-12 20:23:28.1760,0.01,0.03,-0.05
2020-08-12 20:23:28.2750,0.04,-0.09,-0.05
2020-08-12 20:23:28.3750,-0.13,-0.24,0.06
2020-08-12 20:23:28.4740,-0.13,-0.38,-0.15
2020-08-12 20:23:28.5730,0.13,0.1,-0.31
2020-08-12 20:23:28.6720,-0.75,-0.01,-0.0
2020-08-12 20:23:28.7710,-0.22,0.01,0.27
2020-08-12 20:23:28.8710,-0.07,-0.03,0.39
2020-08-12 20:23:28.9700,0.15,-0.08,0.33
2020-08-12 20:23:29.0690,0.19,-0.08,0.18
2020-08-12 20:23:29.1690,0.36,-0.11,0.03
2020-08-12 20:23:29.2670,0.42,-0.09,-0.05
2020-08-12 20:23:29.3670,0.32,-0.02,-0.15
2020-08-12 20:23:29.4650,0.16,-0.12,-0.29
2020-08-12 20:23:29.5650,0.29,-0.06,-0.12
2020-08-12 20:23:29.6650,0.05,-0.0,0.04
2020-08-12 20:23:29.7640,0.08,-0.07,-0.1
2020-08-12 20:23:29.8630,-0.02,0.03,0.01
2020-08-12 20:23:29.9620,-0.01,0.01,0.03
2020-08-12 20:23:30.0620,-0.02,0.0,-0.01
2020-08-12 20:23:30.1610,0.0,0.0,-0.01
2020-08-12 20:23:30.2600,-0.06,0.03,0.03
2020-08-12 20:23:30.3590,-0.05,-0.04,0.01
2020-08-12 20:23:30.4590,-0.09,-0.29,0.0
2020-08-12 20:23:30.5580,-0.11,0.11,-0.11
2020-08-12 20:23:30.6560,-0.46,0.17,-0.42
2020-08-12 20:23:30.7570,-0.16,-0.03,0.03
2020-08-12 20:23:30.8560,-0.1,0.01,0.36
2020-08-12 20:23:30.9550,0.19,0.0,0.5
2020-08-12 20:23:31.0540,0.23,0.03,0.35
2020-08-12 20:23:31.1540,0.36,-0.11,0.09
2020-08-12 20:23:31.2520,0.2,-0.06,-0.14
2020-08-12 20:23:31.3520,0.27,-0.01,-0.23
2020-08-12 20:23:31.4510,0.13,-0.07,-0.35
2020-08-12 20:23:31.5500,-0.01,-0.19,-0.05
2020-08-12 20:23:31.6500,-0.17,0.01,0.05
2020-08-12 20:23:31.7490,-0.12,-0.01,0.02
2020-08-12 20:23:31.8480,-0.04,-0.03,0.0
2020-08-12 20:23:31.9480,-0.0,0.06,0.02
2020-08-12 20:23:32.0470,-0.03,0.03,0.03
2020-08-12 20:23:32.1460,-0.0,0.02,0.01
2020-08-12 20:23:32.2450,-0.01,0.02,-0.06
2020-08-12 20:23:32.3450,-0.01,-0.02,0.04
2020-08-12 20:23:32.4440,0.02,0.01,-0.02
2020-08-12 20:23:32.5430,0.03,-0.02,0.01
2020-08-12 20:23:32.6420,-0.03,-0.0,0.04
2020-08-12 20:23:32.7420,-0.03,0.01,0.0
2020-08-12 20:23:32.8410,-0.01,0.01,-0.01
2020-08-12 20:23:32.9400,-0.04,-0.01,0.02
2020-08-12 20:23:33.0390,-0.03,0.02,-0.0
2020-08-12 20:23:33.1390,0.03,-0.0,-0.01
2020-08-12 20:23:33.2380,0.0,-0.01,0.0
2020-08-12 20:23:33.3370,-0.01,0.0,-0.0
2020-08-12 20:23:33.4360,-0.0,0.0,0.0
2020-08-12 20:23:33.5360,0.0,-0.0,-0.0
2020-08-12 20:23:33.6350,-0.01,0.01,-0.01
2020-08-12 20:23:33.7340,0.01,-0.0,0.01
2020-08-12 20:23:33.8330,-0.01,0.0,0.01
2020-08-12 20:23:33.9330,0.02,0.01,-0.0
2020-08-12 20:23:34.0320,0.0,0.01,0.0
2020-08-12 20:23:34.1320,-0.05,0.01,0.02
2020-08-12 20:23:34.2310,0.04,-0.02,-0.05
