time,ax,ay,az
2020-08-12 19:30:48.8590,0.0,0.0,-0.01
2020-08-12 19:30:48.9570,-0.0,-0.0,-0.01
2020-08-12 19:30:49.0570,-0.02,0.02,0.0
2020-08-12 19:30:49.1550,-0.01,0.01,0.02
2020-08-12 19:30:49.2570,-0.01,0.01,0.02
2020-08-12 19:30:49.3540,0.01,0.01,0.02
2020-08-12 19:30:49.4540,-0.02,0.01,-0.01
2020-08-12 19:30:49.5530,-0.01,0.0,0.0
2020-08-12 19:30:49.6530,0.05,-0.0,0.01
2020-08-12 19:30:49.7510,-0.01,0.0,-0.02
2020-08-12 19:30:49.8510,-0.02,-0.0,-0.0
2020-08-12 19:30:49.9490,0.01,-0.0,-0.01
2020-08-12 19:30:50.0500,0.01,0.01,-0.01
2020-08-12 19:30:50.1480,0.0,0.0,-0.01
2020-08-12 19:30:50.2480,0.0,0.0,0.01
2020-08-12 19:30:50.3460,-0.01,0.01,0.02
2020-08-12 19:30:50.4470,-0.01,0.01,-0.01
2020-08-12 19:30:50.5450,0.01,0.01,-0.01
2020-08-12 19:30:50.6450,-0.01,0.0,-0.01
2020-08-12 19:30:50.7450,-0.01,0.01,-0.01
2020-08-12 19:30:50.8440,-0.03,0.0,-0.01
2020-08-12 19:30:50.9420,0.01,0.02,-0.02
2020-08-12 19:30:51.0420,0.04,0.01,-0.0
2020-08-12 19:30:51.1410,-0.02,0.0,0.02
2020-08-12 19:30:51.2410,-0.0,-0.0,-0.01
2020-08-12 19:30:51.3390,0.04,0.03,0.04
2020-08-12 19:30:51.4390,0.04,-0.01,0.0
2020-08-12 19:30:51.5370,-0.09,-0.01,0.01
2020-08-12 19:30:51.6380,-0.15,-0.08,0.08
2020-08-12 19:30:51.7360,-0.19,-0.24,-0.03
2020-08-12 19:30:51.8370,-0.5,-0.38,0.13
2020-08-12 19:30:51.9340,-0.53,-0.07,0.04
2020-08-12 19:30:52.0350,-0.63,0.16,-0.05
2020-08-12 19:30:52.1340,0.07,-0.17,-0.07
2020-08-12 19:30:52.2320,0.46,-0.27,0.02
2020-08-12 19:30:52.3330,1.63,0.16,0.27
2020-08-12 19:30:52.4310,0.42,0.09,0.16
2020-08-12 19:30:52.5310,0.07,-0.01,0.05
2020-08-12 19:30:52.6290,-0.07,-0.01,0.0
2020-08-12 19:30:52.7300,0.04,-0.0,0.02
2020-08-12 19:30:52.8280,0.02,0.01,0.0
2020-08-12 19:30:52.9290,-0.01,-0.01,0.01
2020-08-12 19:30:53.0270,-0.04,0.01,-0.0
2020-08-12 19:30:53.1270,-0.1,-0.04,0.05
2020-08-12 19:30:53.2250,-0.22,-0.33,0.02
2020-08-12 19:30:53.3250,-0.36,-0.22,0.07
2020-08-12 19:30:53.4230,-0.36,-0.03,0.21
2020-08-12 19:30:53.5240,-0.85,0.16,0.12
2020-08-12 19:30:53.6220,0.05,-0.35,-0.07
2020-08-12 19:30:53.7220,0.19,-0.27,0.0
2020-08-12 19:30:53.8210,0.89,-0.13,-0.0
2020-08-12 19:30:53.9210,0.99,0.02,-0.01
2020-08-12 19:30:54.0190,0.73,-0.48,0.65
2020-08-12 19:30:54.1190,0.04,0.04,0.03
2020-08-12 19:30:54.2190,-0.02,0.03,0.14
2020-08-12 19:30:54.3170,0.01,-0.01,0.01
2020-08-12 19:30:54.4170,0.02,0.02,0.02
2020-08-12 19:30:54.5150,0.02,-0.01,-0.02
2020-08-12 19:30:54.6160,-0.12,-0.05,-0.0
2020-08-12 19:30:54.7150,-0.12,-0.1,0.09
2020-08-12 19:30:54.8130,-0.17,-0.33,0.06
2020-08-12 19:30:54.9130,-0.26,-0.18,0.03
2020-08-12 19:30:55.0130,-0.38,-0.28,0.19
2020-08-12 19:30:55.1110,-0.65,0.19,0.07
2020-08-12 19:30:55.2110,-0.23,-0.23,-0.02
2020-08-12 19:30:55.3110,0.04,-0.13,-0.0
2020-08-12 19:30:55.4090,0.5,-0.26,0.14
2020-08-12 19:30:55.5090,1.19,0.12,0.36
2020-08-12 19:30:55.6070,-0.96,-0.24,-0.62
2020-08-12 19:30:55.7070,0.3,0.12,0.01
2020-08-12 19:30:55.8060,0.05,-0.01,0.01
2020-08-12 19:30:55.9060,0.01,0.01,0.1
2020-08-12 19:30:56.0050,0.04,-0.01,-0.05
2020-08-12 19:30:56.1030,0.05,0.01,0.03
2020-08-12 19:30:56.2040,-0.02,0.01,-0.05
2020-08-12 19:30:56.3020,-0.09,-0.06,-0.01
2020-08-12 19:30:56.4020,-0.26,-0.05,0.16
2020-08-12 19:30:56.5020,-0.22,-0.28,-0.01
2020-08-12 19:30:56.6000,-0.35,-0.36,-0.01
2020-08-12 19:30:56.7000,-0.41,-0.06,0.23
2020-08-12 19:30:56.8000,-0.68,0.17,0.02
2020-08-12 19:30:56.8990,-0.26,-0.25,-0.03
2020-08-12 19:30:56.9980,0.23,-0.3,0.03
2020-08-12 19:30:57.0970,0.81,-0.23,0.17
2020-08-12 19:30:57.1970,0.75,-0.04,0.04
2020-08-12 19:30:57.2960,0.23,0.05,0.32
2020-08-12 19:30:57.3950,0.22,-0.02,0.02
2020-08-12 19:30:57.4930,0.03,0.01,-0.05
2020-08-12 19:30:57.5930,0.03,0.0,-0.03
2020-08-12 19:30:57.6920,0.04,0.03,0.02
2020-08-12 19:30:57.7920,0.02,-0.06,0.02
2020-08-12 19:30:57.8900,-0.01,0.01,-0.02
2020-08-12 19:30:57.9900,-0.19,-0.31,0.07
2020-08-12 19:30:58.0900,-0.43,-0.36,0.06
2020-08-12 19:30:58.1880,-0.18,-0.45,0.22
2020-08-12 19:30:58.2880,-0.89,-0.08,-0.08
2020-08-12 19:30:58.3880,-0.53,-0.04,0.17
2020-08-12 19:30:58.4870,-0.01,-0.16,0.03
2020-08-12 19:30:58.5850,0.88,-0.47,0.05
2020-08-12 19:30:58.6850,0.99,0.17,0.17
2020-08-12 19:30:58.7830,-0.17,-0.01,0.36
2020-08-12 19:30:58.8840,0.31,0.07,0.0
2020-08-12 19:30:58.9830,-0.12,0.04,0.08
2020-08-12 19:30:59.0820,0.03,0.0,0.02
2020-08-12 19:30:59.1820,0.04,0.06,-0.01
2020-08-12 19:30:59.2810,0.06,0.01,-0.01
2020-08-12 19:30:59.3800,-0.03,0.0,-0.06
2020-08-12 19:30:59.4800,-0.01,-0.08,0.01
2020-08-12 19:30:59.5780,-0.32,-0.25,0.08
2020-08-12 19:30:59.6780,-0.38,-0.17,0.09
2020-08-12 19:30:59.7770,-0.7,-0.07,0.37
2020-08-12 19:30:59.8750,-0.55,0.08,-0.12
2020-08-12 19:30:59.9750,-0.08,-0.08,-0.1
2020-08-12 19:31:00.0750,0.47,-0.35,0.08
2020-08-12 19:31:00.1740,1.38,0.11,0.2
2020-08-12 19:31:00.2730,-1.31,-0.17,-0.62
2020-08-12 19:31:00.3720,0.13,0.1,-0.16
2020-08-12 19:31:00.4720,-0.05,0.01,0.07
2020-08-12 19:31:00.5710,-0.0,0.03,-0.01
2020-08-12 19:31:00.6720,-0.03,0.03,0.09
2020-08-12 19:31:00.7690,0.02,0.01,0.06
2020-08-12 19:31:00.8690,-0.01,0.02,0.04
2020-08-12 19:31:00.9680,-0.13,-0.06,-0.02
2020-08-12 19:31:01.0670,-0.22,-0.31,-0.0
2020-08-12 19:31:01.1670,-0.45,-0.38,0.16
2020-08-12 19:31:01.2650,-0.73,-0.14,0.3
2020-08-12 19:31:01.3660,-0.54,0.3,0.01
2020-08-12 19:31:01.4650,-0.26,0.04,-0.0
2020-08-12 19:31:01.5640,0.22,-0.64,0.05
2020-08-12 19:31:01.6630,0.79,-0.11,0.19
2020-08-12 19:31:01.7620,0.64,0.1,-0.01
2020-08-12 19:31:01.8610,0.14,0.15,0.17
2020-08-12 19:31:01.9600,0.48,0.06,0.02
2020-08-12 19:31:02.0590,-0.02,-0.0,0.07
2020-08-12 19:31:02.1590,-0.03,0.01,0.01
2020-08-12 19:31:02.2590,-0.0,0.01,-0.0
2020-08-12 19:31:02.3580,-0.01,0.04,-0.0
2020-08-12 19:31:02.4570,-0.06,-0.03,0.04
2020-08-12 19:31:02.5560,-0.09,-0.13,-0.01
2020-08-12 19:31:02.6560,-0.38,-0.36,0.03
2020-08-12 19:31:02.7550,-0.38,-0.58,0.18
2020-08-12 19:31:02.8530,-0.41,0.09,0.17
2020-08-12 19:31:02.9530,-0.78,0.1,0.04
2020-08-12 19:31:03.0530,0.17,-0.16,0.05
2020-08-12 19:31:03.1520,0.49,-0.33,0.22
2020-08-12 19:31:03.2510,0.79,0.03,0.11
2020-08-12 19:31:03.3500,0.59,-0.2,-0.22
2020-08-12 19:31:03.4490,0.6,-0.28,-0.29
2020-08-12 19:31:03.5490,-0.03,-0.0,0.07
2020-08-12 19:31:03.6470,0.0,-0.02,-0.05
2020-08-12 19:31:03.7480,-0.0,0.01,0.03
2020-08-12 19:31:03.8460,-0.04,0.0,0.04
2020-08-12 19:31:03.9450,0.0,-0.0,0.04
2020-08-12 19:31:04.0440,-0.11,-0.0,0.04
2020-08-12 19:31:04.1440,-0.1,-0.29,-0.0
2020-08-12 19:31:04.2440,-0.36,-0.29,-0.04
2020-08-12 19:31:04.3420,-0.36,-0.64,0.41
2020-08-12 19:31:04.4420,-0.4,-0.02,0.06
2020-08-12 19:31:04.5400,-0.44,-0.0,0.19
2020-08-12 19:31:04.6410,0.09,-0.25,0.2
2020-08-12 19:31:04.7400,0.87,-0.37,0.38
2020-08-12 19:31:04.8390,0.91,0.17,-0.08
2020-08-12 19:31:04.9410,-1.82,-0.39,-0.89
2020-08-12 19:31:05.0370,0.33,0.09,0.22
2020-08-12 19:31:05.1360,-0.08,-0.0,0.05
2020-08-12 19:31:05.2360,-0.03,0.0,-0.03
2020-08-12 19:31:05.3360,0.02,0.01,0.01
2020-08-12 19:31:05.4350,0.02,0.01,0.02
2020-08-12 19:31:05.5340,-0.18,-0.01,-0.01
2020-08-12 19:31:05.6330,-0.28,-0.33,-0.04
2020-08-12 19:31:05.7320,-0.3,-0.64,0.45
2020-08-12 19:31:05.8310,-0.69,0.25,0.04
2020-08-12 19:31:05.9310,-0.37,-0.01,-0.05
2020-08-12 19:31:06.0300,-0.05,-0.18,-0.1
2020-08-12 19:31:06.1290,0.53,-0.47,-0.0
2020-08-12 19:31:06.2280,0.91,0.1,-0.06
2020-08-12 19:31:06.3270,-0.32,-0.54,-0.35
2020-08-12 19:31:06.4260,0.29,-0.26,0.12
2020-08-12 19:31:06.5260,0.07,-0.02,0.08
2020-08-12 19:31:06.6260,-0.05,0.01,0.02
2020-08-12 19:31:06.7240,0.01,0.0,-0.02
2020-08-12 19:31:06.8230,0.07,0.03,0.01
2020-08-12 19:31:06.9240,-0.05,-0.01,0.05
2020-08-12 19:31:07.0230,-0.09,-0.07,-0.1
2020-08-12 19:31:07.1220,-0.08,-0.02,0.04
2020-08-12 19:31:07.2210,-0.14,-0.45,-0.04
2020-08-12 19:31:07.3200,-0.46,-0.56,-0.01
2020-08-12 19:31:07.4190,-0.59,-0.07,0.11
2020-08-12 19:31:07.5190,-0.62,0.11,0.06
2020-08-12 19:31:07.6180,0.05,-0.23,-0.01
2020-08-12 19:31:07.7170,0.96,-0.47,0.12
2020-08-12 19:31:07.8160,0.93,0.13,0.16
2020-08-12 19:31:07.9160,-1.21,-0.14,-0.92
2020-08-12 19:31:08.0150,0.39,-0.05,-0.01
2020-08-12 19:31:08.1140,-0.04,0.02,0.1
2020-08-12 19:31:08.2130,0.06,0.01,-0.03
2020-08-12 19:31:08.3120,-0.0,0.02,0.07
2020-08-12 19:31:08.4110,-0.05,-0.01,0.03
2020-08-12 19:31:08.5110,-0.01,-0.01,0.01
2020-08-12 19:31:08.6100,-0.27,-0.04,0.17
2020-08-12 19:31:08.7090,-0.24,-0.24,-0.07
2020-08-12 19:31:08.8090,-0.43,-0.39,0.08
2020-08-12 19:31:08.9080,-0.51,0.01,0.18
2020-08-12 19:31:09.0070,-0.6,0.2,-0.02
2020-08-12 19:31:09.1060,-0.22,-0.1,-0.11
2020-08-12 19:31:09.2060,0.25,-0.37,0.01
2020-08-12 19:31:09.3050,0.81,-0.29,0.17
2020-08-12 19:31:09.4040,0.79,0.03,-0.0
2020-08-12 19:31:09.5040,0.48,-0.61,0.25
2020-08-12 19:31:09.6030,0.14,0.0,0.04
2020-08-12 19:31:09.7020,-0.04,0.01,0.05
2020-08-12 19:31:09.8010,0.01,0.0,-0.02
2020-08-12 19:31:09.9010,0.0,-0.0,0.01
2020-08-12 19:31:10.0000,-0.0,0.0,0.05
2020-08-12 19:31:10.0990,-0.08,-0.05,0.04
2020-08-12 19:31:10.1980,-0.08,-0.05,-0.05
2020-08-12 19:31:10.2970,-0.24,-0.44,-0.02
2020-08-12 19:31:10.3970,-0.47,-0.61,0.1
2020-08-12 19:31:10.4960,-0.47,0.15,0.24
2020-08-12 19:31:10.5960,-0.55,0.02,0.07
2020-08-12 19:31:10.6950,-0.15,-0.14,0.02
2020-08-12 19:31:10.7940,0.56,-0.49,0.06
2020-08-12 19:31:10.8930,1.27,0.17,0.17
2020-08-12 19:31:10.9920,-0.43,-0.09,0.45
2020-08-12 19:31:11.0920,0.08,0.06,0.04
2020-08-12 19:31:11.1910,0.02,0.05,0.13
2020-08-12 19:31:11.2900,0.07,0.0,-0.02
2020-08-12 19:31:11.3890,0.05,0.02,-0.01
2020-08-12 19:31:11.4880,-0.03,-0.0,0.0
2020-08-12 19:31:11.5880,-0.15,0.0,0.05
2020-08-12 19:31:11.6880,-0.2,-0.26,-0.03
2020-08-12 19:31:11.7870,-0.29,-0.46,-0.06
2020-08-12 19:31:11.8860,-0.72,-0.08,0.44
2020-08-12 19:31:11.9850,-0.49,0.07,0.02
2020-08-12 19:31:12.0840,-0.28,-0.0,0.0
2020-08-12 19:31:12.1830,0.34,-0.36,0.07
2020-08-12 19:31:12.2830,1.02,-0.15,0.23
2020-08-12 19:31:12.3820,1.01,-0.07,-0.07
2020-08-12 19:31:12.4810,0.24,-0.04,-0.29
2020-08-12 19:31:12.5800,-0.04,0.0,0.06
2020-08-12 19:31:12.6800,0.04,0.0,0.02
2020-08-12 19:31:12.7790,0.05,0.01,0.02
2020-08-12 19:31:12.8780,0.01,-0.0,-0.03
2020-08-12 19:31:12.9770,-0.04,-0.01,-0.08
2020-08-12 19:31:13.0770,-0.12,-0.07,0.01
2020-08-12 19:31:13.1760,-0.16,-0.31,0.0
2020-08-12 19:31:13.2750,-0.42,-0.59,0.16
2020-08-12 19:31:13.3750,-0.6,-0.03,0.16
2020-08-12 19:31:13.4730,-0.56,0.14,-0.08
2020-08-12 19:31:13.5730,-0.09,-0.14,-0.05
2020-08-12 19:31:13.6720,0.69,-0.85,0.03
2020-08-12 19:31:13.7720,0.93,0.13,0.15
2020-08-12 19:31:13.8710,0.34,-0.61,-0.49
2020-08-12 19:31:13.9700,0.23,-0.11,-0.26
2020-08-12 19:31:14.0690,-0.0,-0.01,0.04
2020-08-12 19:31:14.1690,0.0,0.0,0.02
2020-08-12 19:31:14.2680,-0.01,0.01,-0.01
2020-08-12 19:31:14.3670,0.03,-0.02,0.0
2020-08-12 19:31:14.4660,-0.05,0.0,-0.01
2020-08-12 19:31:14.5660,-0.14,-0.07,0.06
2020-08-12 19:31:14.6650,-0.26,-0.34,0.07
2020-08-12 19:31:14.7640,-0.48,-0.55,0.04
2020-08-12 19:31:14.8630,-0.52,-0.01,0.03
2020-08-12 19:31:14.9620,-0.6,0.16,0.1
2020-08-12 19:31:15.0620,-0.02,-0.22,0.05
2020-08-12 19:31:15.1610,0.76,-0.39,-0.0
2020-08-12 19:31:15.2600,0.93,0.05,0.2
2020-08-12 19:31:15.3600,-0.79,-0.41,-1.32
2020-08-12 19:31:15.4590,0.3,0.04,0.02
2020-08-12 19:31:15.5580,-0.08,-0.01,0.07
2020-08-12 19:31:15.6580,0.02,-0.01,-0.04
2020-08-12 19:31:15.7570,-0.01,0.02,0.03
2020-08-12 19:31:15.8560,0.04,0.02,0.04
2020-08-12 19:31:15.9550,-0.04,-0.01,-0.04
2020-08-12 19:31:16.0540,-0.19,-0.04,-0.02
2020-08-12 19:31:16.1540,-0.24,-0.34,-0.06
2020-08-12 19:31:16.2530,-0.47,-0.51,0.08
2020-08-12 19:31:16.3520,-0.69,-0.08,0.32
2020-08-12 19:31:16.4510,-0.7,0.32,0.02
2020-08-12 19:31:16.5510,-0.32,-0.13,-0.04
2020-08-12 19:31:16.6500,0.43,-0.68,0.07
2020-08-12 19:31:16.7490,1.17,0.05,0.24
2020-08-12 19:31:16.8480,-0.74,-0.76,-1.22
2020-08-12 19:31:16.9480,0.2,-0.04,0.02
2020-08-12 19:31:17.0470,-0.1,-0.0,0.09
2020-08-12 19:31:17.1460,0.03,0.02,0.05
2020-08-12 19:31:17.2450,-0.01,0.03,0.0
2020-08-12 19:31:17.3440,-0.01,0.01,-0.02
2020-08-12 19:31:17.4440,-0.08,0.0,0.02
2020-08-12 19:31:17.5430,-0.11,-0.15,0.05
2020-08-12 19:31:17.6420,-0.3,-0.62,0.2
2020-08-12 19:31:17.7420,-0.31,-0.21,0.36
2020-08-12 19:31:17.8410,-0.89,0.25,-0.04
2020-08-12 19:31:17.9400,-0.3,-0.11,-0.13
2020-08-12 19:31:18.0400,0.09,-0.51,0.07
2020-08-12 19:31:18.1390,1.1,-0.39,0.19
2020-08-12 19:31:18.2380,0.91,0.01,0.32
2020-08-12 19:31:18.3370,1.11,-0.76,0.3
2020-08-12 19:31:18.4370,0.15,0.01,0.23
2020-08-12 19:31:18.5360,0.03,0.01,0.02
2020-08-12 19:31:18.6350,0.04,0.0,0.04
2020-08-12 19:31:18.7340,0.02,0.0,0.02
2020-08-12 19:31:18.8330,-0.06,0.02,0.02
2020-08-12 19:31:18.9330,-0.11,0.03,-0.02
2020-08-12 19:31:19.0320,-0.2,-0.3,-0.04
2020-08-12 19:31:19.1310,-0.53,-0.45,0.04
2020-08-12 19:31:19.2310,-0.5,0.01,0.24
2020-08-12 19:31:19.3300,-0.62,0.26,0.0
2020-08-12 19:31:19.4290,0.2,-0.21,0.01
2020-08-12 19:31:19.5280,0.24,-0.31,0.1
2020-08-12 19:31:19.6280,1.07,-0.09,0.23
2020-08-12 19:31:19.7270,0.64,-0.39,-0.38
2020-08-12 19:31:19.8260,0.54,-0.19,-0.2
2020-08-12 19:31:19.9250,-0.06,-0.01,0.0
2020-08-12 19:31:20.0250,0.06,-0.01,-0.03
2020-08-12 19:31:20.1240,0.03,0.02,0.0
2020-08-12 19:31:20.2230,0.03,-0.0,0.02
2020-08-12 19:31:20.3230,-0.1,-0.02,0.06
2020-08-12 19:31:20.4220,-0.18,-0.17,-0.01
2020-08-12 19:31:20.5210,-0.52,-0.51,0.15
2020-08-12 19:31:20.6200,-0.3,-0.59,0.43
2020-08-12 19:31:20.7190,-0.66,0.04,0.02
2020-08-12 19:31:20.8190,-0.66,-0.05,0.06
2020-08-12 19:31:20.9180,0.2,-0.43,0.02
2020-08-12 19:31:21.0170,0.86,-0.35,0.1
2020-08-12 19:31:21.1160,0.99,0.06,0.13
2020-08-12 19:31:21.2160,0.25,-0.31,0.47
2020-08-12 19:31:21.3150,0.31,-0.0,0.1
2020-08-12 19:31:21.4140,-0.01,0.01,0.03
2020-08-12 19:31:21.5130,0.06,-0.0,0.02
2020-08-12 19:31:21.6130,0.05,0.04,0.03
2020-08-12 19:31:21.7120,0.02,0.01,0.01
2020-08-12 19:31:21.8120,-0.08,-0.0,-0.02
2020-08-12 19:31:21.9110,-0.21,-0.3,0.11
2020-08-12 19:31:22.0100,-0.44,-0.6,0.17
2020-08-12 19:31:22.1090,-0.45,-0.18,0.5
2020-08-12 19:31:22.2090,-0.81,0.31,-0.04
2020-08-12 19:31:22.3080,-0.4,-0.06,-0.03
2020-08-12 19:31:22.4070,0.15,-0.42,0.04
2020-08-12 19:31:22.5060,1.07,-0.22,0.31
2020-08-12 19:31:22.6050,1.01,0.11,0.19
2020-08-12 19:31:22.7050,0.57,-0.06,0.22
2020-08-12 19:31:22.8040,0.36,-0.02,0.19
2020-08-12 19:31:22.9030,-0.02,0.02,0.06
2020-08-12 19:31:23.0020,0.01,0.01,0.03
2020-08-12 19:31:23.1020,0.02,0.0,0.07
2020-08-12 19:31:23.2010,-0.04,-0.04,0.01
2020-08-12 19:31:23.3000,-0.14,0.0,0.0
2020-08-12 19:31:23.3990,-0.08,-0.1,0.08
2020-08-12 19:31:23.4990,-0.38,-0.62,0.13
2020-08-12 19:31:23.5980,-0.45,-0.28,0.37
2020-08-12 19:31:23.6970,-0.82,0.28,-0.03
2020-08-12 19:31:23.7970,-0.24,-0.0,-0.09
2020-08-12 19:31:23.8960,0.27,-0.49,-0.01
2020-08-12 19:31:23.9950,0.94,-0.31,0.15
2020-08-12 19:31:24.0940,0.93,0.14,0.15
2020-08-12 19:31:24.1940,0.66,-0.66,0.61
2020-08-12 19:31:24.2930,0.19,0.0,0.01
2020-08-12 19:31:24.3920,0.02,0.02,0.0
2020-08-12 19:31:24.4920,0.01,0.01,0.02
2020-08-12 19:31:24.5910,-0.03,0.01,0.03
2020-08-12 19:31:24.6900,-0.04,0.0,0.01
2020-08-12 19:31:24.7890,-0.15,-0.04,0.05
2020-08-12 19:31:24.8880,-0.16,-0.19,-0.06
2020-08-12 19:31:24.9870,-0.45,-0.35,0.11
2020-08-12 19:31:25.0870,-0.33,-0.62,0.28
2020-08-12 19:31:25.1860,-0.6,-0.12,0.04
2020-08-12 19:31:25.2850,-0.64,0.1,0.13
2020-08-12 19:31:25.3850,0.26,-0.3,0.13
2020-08-12 19:31:25.4840,0.8,-0.41,0.11
2020-08-12 19:31:25.5830,1.04,0.06,0.13
2020-08-12 19:31:25.6820,0.38,-0.25,0.6
2020-08-12 19:31:25.7820,0.23,-0.01,-0.02
2020-08-12 19:31:25.8810,-0.03,0.03,0.09
2020-08-12 19:31:25.9800,-0.03,0.02,-0.01
2020-08-12 19:31:26.0790,0.02,0.0,0.0
2020-08-12 19:31:26.1790,-0.08,-0.02,-0.0
2020-08-12 19:31:26.2780,-0.18,-0.06,0.06
2020-08-12 19:31:26.3770,-0.18,-0.25,0.1
2020-08-12 19:31:26.4770,-0.51,-0.5,0.03
2020-08-12 19:31:26.5760,-0.63,-0.28,0.27
2020-08-12 19:31:26.6750,-0.92,0.26,-0.06
2020-08-12 19:31:26.7740,-0.54,0.03,0.03
2020-08-12 19:31:26.8740,0.32,-0.49,0.1
2020-08-12 19:31:26.9730,1.07,-0.2,0.28
2020-08-12 19:31:27.0720,0.89,-0.01,0.13
2020-08-12 19:31:27.1710,0.61,-0.25,0.43
2020-08-12 19:31:27.2700,0.15,-0.02,-0.13
2020-08-12 19:31:27.3700,0.05,0.02,0.13
2020-08-12 19:31:27.4690,0.06,0.01,0.03
2020-08-12 19:31:27.5680,-0.04,-0.02,0.04
2020-08-12 19:31:27.6680,-0.05,-0.07,0.04
2020-08-12 19:31:27.7670,-0.08,-0.01,0.03
2020-08-12 19:31:27.8660,-0.1,-0.22,-0.01
2020-08-12 19:31:27.9650,-0.65,-0.6,-0.06
2020-08-12 19:31:28.0650,-0.72,-0.37,0.09
2020-08-12 19:31:28.1640,-0.78,0.15,-0.14
2020-08-12 19:31:28.2630,-0.34,0.01,0.04
2020-08-12 19:31:28.3620,0.14,-0.37,0.22
2020-08-12 19:31:28.4620,1.24,-0.37,0.22
2020-08-12 19:31:28.5610,1.18,0.08,0.08
2020-08-12 19:31:28.6600,0.57,-0.14,0.11
2020-08-12 19:31:28.7590,0.18,0.03,0.13
2020-08-12 19:31:28.8590,-0.04,0.03,0.06
2020-08-12 19:31:28.9580,0.0,-0.0,0.02
2020-08-12 19:31:29.0570,0.02,0.02,-0.03
2020-08-12 19:31:29.1560,0.03,0.01,0.02
2020-08-12 19:31:29.2560,-0.1,0.01,0.02
2020-08-12 19:31:29.3550,-0.11,-0.1,0.11
2020-08-12 19:31:29.4540,-0.37,-0.49,0.13
2020-08-12 19:31:29.5530,-0.29,-0.52,0.27
2020-08-12 19:31:29.6530,-0.75,0.11,-0.02
2020-08-12 19:31:29.7520,-0.43,0.14,0.16
2020-08-12 19:31:29.8510,0.07,-0.3,0.01
2020-08-12 19:31:29.9510,1.17,-0.56,0.39
2020-08-12 19:31:30.0500,1.23,0.22,0.34
2020-08-12 19:31:30.1490,0.3,0.03,0.31
2020-08-12 19:31:30.2480,0.15,0.0,0.07
2020-08-12 19:31:30.3480,-0.05,0.02,0.08
2020-08-12 19:31:30.4470,0.02,0.01,-0.01
2020-08-12 19:31:30.5460,0.01,0.0,0.03
2020-08-12 19:31:30.6460,-0.03,-0.01,-0.02
2020-08-12 19:31:30.7450,-0.15,-0.01,0.02
2020-08-12 19:31:30.8440,-0.21,-0.3,-0.05
2020-08-12 19:31:30.9430,-0.55,-0.61,0.21
2020-08-12 19:31:31.0420,-0.48,-0.19,0.21
2020-08-12 19:31:31.1420,-0.72,0.22,-0.0
2020-08-12 19:31:31.2410,-0.01,-0.27,-0.02
2020-08-12 19:31:31.3400,0.14,-0.27,0.17
2020-08-12 19:31:31.4390,0.92,-0.31,0.18
2020-08-12 19:31:31.5390,1.01,0.17,0.1
2020-08-12 19:31:31.6380,0.73,-0.77,0.41
2020-08-12 19:31:31.7370,0.25,-0.03,0.12
2020-08-12 19:31:31.8360,-0.07,0.03,0.06
2020-08-12 19:31:31.9360,0.02,0.0,0.05
2020-08-12 19:31:32.0350,0.03,-0.0,-0.06
2020-08-12 19:31:32.1340,0.05,0.03,-0.01
2020-08-12 19:31:32.2330,-0.08,-0.0,-0.0
2020-08-12 19:31:32.3330,-0.11,-0.06,0.07
2020-08-12 19:31:32.4320,-0.26,-0.32,0.01
2020-08-12 19:31:32.5310,-0.45,-0.44,0.06
2020-08-12 19:31:32.6300,-0.47,-0.02,0.09
2020-08-12 19:31:32.7300,-0.56,0.18,0.15
2020-08-12 19:31:32.8290,-0.11,-0.15,0.02
2020-08-12 19:31:32.9280,0.28,-0.45,0.03
2020-08-12 19:31:33.0280,0.91,-0.12,0.13
2020-08-12 19:31:33.1270,0.75,0.08,0.04
2020-08-12 19:31:33.2260,0.71,-0.59,0.58
2020-08-12 19:31:33.3250,0.13,0.0,-0.09
2020-08-12 19:31:33.4240,0.05,0.03,0.03
2020-08-12 19:31:33.5240,-0.01,0.01,0.06
2020-08-12 19:31:33.6230,-0.04,0.0,0.0
2020-08-12 19:31:33.7220,-0.01,-0.01,0.02
2020-08-12 19:31:33.8210,-0.02,0.01,-0.02
2020-08-12 19:31:33.9210,-0.13,-0.13,-0.03
2020-08-12 19:31:34.0200,-0.31,-0.28,0.07
2020-08-12 19:31:34.1190,-0.32,-0.43,-0.0
2020-08-12 19:31:34.2190,-0.45,0.01,0.15
2020-08-12 19:31:34.3180,-0.58,0.11,0.05
2020-08-12 19:31:34.4170,-0.06,-0.18,-0.01
2020-08-12 19:31:34.5160,0.48,-0.42,-0.06
2020-08-12 19:31:34.6160,0.86,-0.15,0.29
2020-08-12 19:31:34.7150,1.08,0.13,0.0
2020-08-12 19:31:34.8140,0.47,-0.54,0.68
2020-08-12 19:31:34.9130,0.23,-0.02,0.11
2020-08-12 19:31:35.0130,-0.08,0.02,0.08
2020-08-12 19:31:35.1120,0.07,0.01,0.02
2020-08-12 19:31:35.2110,0.01,-0.0,0.02
2020-08-12 19:31:35.3100,0.0,0.03,0.01
2020-08-12 19:31:35.4100,-0.15,-0.06,0.06
2020-08-12 19:31:35.5090,-0.16,-0.2,0.03
2020-08-12 19:31:35.6080,-0.25,-0.26,0.08
2020-08-12 19:31:35.7070,-0.35,-0.61,0.02
2020-08-12 19:31:35.8070,-0.48,-0.01,0.06
2020-08-12 19:31:35.9060,-0.64,0.08,0.02
2020-08-12 19:31:36.0050,-0.05,-0.15,-0.0
2020-08-12 19:31:36.1040,0.2,-0.35,0.25
2020-08-12 19:31:36.2040,0.97,-0.2,0.17
2020-08-12 19:31:36.3030,0.74,0.12,-0.01
2020-08-12 19:31:36.4020,-0.92,0.05,-0.02
2020-08-12 19:31:36.5010,0.16,0.03,0.03
2020-08-12 19:31:36.6010,-0.07,0.01,0.08
2020-08-12 19:31:36.7000,0.04,-0.0,-0.05
2020-08-12 19:31:36.7990,0.05,0.01,0.04
2020-08-12 19:31:36.8990,-0.02,-0.11,0.06
2020-08-12 19:31:36.9980,-0.05,0.04,-0.03
2020-08-12 19:31:37.0970,-0.15,-0.01,0.01
2020-08-12 19:31:37.1960,-0.17,-0.2,0.05
2020-08-12 19:31:37.2960,-0.49,-0.48,0.08
2020-08-12 19:31:37.3950,-0.34,-0.24,0.2
2020-08-12 19:31:37.4940,-0.88,0.21,-0.0
2020-08-12 19:31:37.5930,-0.33,-0.03,0.07
2020-08-12 19:31:37.6930,0.17,-0.28,0.07
2020-08-12 19:31:37.7920,0.8,-0.35,0.03
2020-08-12 19:31:37.8910,1.01,0.13,0.14
2020-08-12 19:31:37.9900,-1.02,-0.08,-0.28
2020-08-12 19:31:38.0900,0.43,0.02,0.04
2020-08-12 19:31:38.1890,-0.01,-0.02,0.04
2020-08-12 19:31:38.2880,0.01,0.0,0.05
2020-08-12 19:31:38.3880,0.05,0.03,-0.0
2020-08-12 19:31:38.4870,-0.05,-0.03,0.02
2020-08-12 19:31:38.5860,-0.03,0.02,0.04
2020-08-12 19:31:38.6850,-0.1,-0.04,0.02
2020-08-12 19:31:38.7850,-0.15,-0.22,-0.1
2020-08-12 19:31:38.8840,-0.44,-0.44,0.06
2020-08-12 19:31:38.9830,-0.44,0.02,0.23
2020-08-12 19:31:39.0820,-0.62,0.18,0.0
2020-08-12 19:31:39.1820,-0.15,-0.21,0.02
2020-08-12 19:31:39.2810,0.04,-0.2,-0.01
2020-08-12 19:31:39.3800,0.86,-0.5,0.04
2020-08-12 19:31:39.4790,1.01,0.11,0.17
2020-08-12 19:31:39.5780,0.46,-0.51,0.32
2020-08-12 19:31:39.6780,0.19,-0.01,-0.02
2020-08-12 19:31:39.7770,-0.09,0.02,0.07
2020-08-12 19:31:39.8760,0.03,0.0,0.02
2020-08-12 19:31:39.9750,-0.03,0.01,0.05
2020-08-12 19:31:40.0750,0.03,0.01,-0.04
2020-08-12 19:31:40.1740,-0.11,-0.05,0.02
2020-08-12 19:31:40.2730,-0.11,-0.06,0.03
2020-08-12 19:31:40.3720,-0.14,-0.39,-0.02
2020-08-12 19:31:40.4720,-0.35,-0.29,0.05
2020-08-12 19:31:40.5710,-0.13,-0.07,0.47
2020-08-12 19:31:40.6710,-0.85,0.15,0.0
2020-08-12 19:31:40.7700,-0.33,0.04,-0.1
2020-08-12 19:31:40.8690,0.13,-0.42,0.06
2020-08-12 19:31:40.9680,1.05,-0.31,0.25
2020-08-12 19:31:41.0680,1.01,-0.18,-0.09
2020-08-12 19:31:41.1670,0.35,-0.0,-0.31
2020-08-12 19:31:41.2660,-0.02,-0.02,-0.02
2020-08-12 19:31:41.3650,0.04,0.01,0.08
2020-08-12 19:31:41.4640,-0.03,0.02,0.02
2020-08-12 19:31:41.5640,0.05,0.0,-0.02
2020-08-12 19:31:41.6630,-0.01,0.01,-0.02
2020-08-12 19:31:41.7620,-0.15,-0.01,0.01
2020-08-12 19:31:41.8610,-0.05,-0.15,0.11
2020-08-12 19:31:41.9610,-0.39,-0.41,0.13
2020-08-12 19:31:42.0600,-0.32,-0.39,0.37
2020-08-12 19:31:42.1590,-0.41,0.05,0.26
2020-08-12 19:31:42.2580,-0.75,0.09,0.02
2020-08-12 19:31:42.3580,0.02,-0.3,-0.04
2020-08-12 19:31:42.4570,0.8,-0.62,0.07
2020-08-12 19:31:42.5560,1.06,0.16,0.12
2020-08-12 19:31:42.6560,-0.76,-0.25,-0.52
2020-08-12 19:31:42.7550,0.26,0.04,0.06
2020-08-12 19:31:42.8540,-0.03,-0.03,0.01
2020-08-12 19:31:42.9530,0.05,0.0,0.03
2020-08-12 19:31:43.0530,-0.07,0.02,0.02
2020-08-12 19:31:43.1520,-0.06,-0.04,0.01
2020-08-12 19:31:43.2510,0.06,0.02,0.03
2020-08-12 19:31:43.3500,-0.15,-0.02,0.01
2020-08-12 19:31:43.4490,-0.25,-0.26,-0.0
2020-08-12 19:31:43.5490,-0.46,-0.6,0.12
2020-08-12 19:31:43.6480,-0.53,-0.14,0.32
2020-08-12 19:31:43.7470,-0.68,0.24,-0.08
2020-08-12 19:31:43.8470,-0.35,-0.03,0.02
2020-08-12 19:31:43.9460,0.07,-0.45,0.07
2020-08-12 19:31:44.0450,1.1,-0.44,0.3
2020-08-12 19:31:44.1440,1.0,0.08,0.18
2020-08-12 19:31:44.2440,0.61,-0.31,0.09
2020-08-12 19:31:44.3430,0.31,0.03,0.14
2020-08-12 19:31:44.4420,-0.1,0.03,0.06
2020-08-12 19:31:44.5410,0.01,-0.02,-0.02
2020-08-12 19:31:44.6410,-0.09,-0.0,0.06
2020-08-12 19:31:44.7400,-0.02,-0.01,0.04
2020-08-12 19:31:44.8390,-0.11,0.02,0.02
2020-08-12 19:31:44.9390,-0.18,-0.06,0.03
2020-08-12 19:31:45.0380,-0.19,-0.3,-0.05
2020-08-12 19:31:45.1370,-0.46,-0.36,0.05
2020-08-12 19:31:45.2370,-0.42,-0.01,0.12
2020-08-12 19:31:45.3360,-0.66,0.08,0.04
2020-08-12 19:31:45.4350,-0.25,-0.13,-0.08
2020-08-12 19:31:45.5340,0.36,-0.68,0.12
2020-08-12 19:31:45.6330,1.12,0.09,0.13
2020-08-12 19:31:45.7320,0.69,-0.21,-0.0
2020-08-12 19:31:45.8320,1.0,-0.88,0.37
2020-08-12 19:31:45.9310,0.2,-0.01,0.14
2020-08-12 19:31:46.0300,-0.04,0.02,0.01
2020-08-12 19:31:46.1300,0.01,0.05,0.01
2020-08-12 19:31:46.2290,-0.05,0.02,0.04
2020-08-12 19:31:46.3280,0.04,0.01,-0.03
2020-08-12 19:31:46.4270,-0.1,0.0,0.01
2020-08-12 19:31:46.5260,-0.31,-0.47,0.12
2020-08-12 19:31:46.6260,-0.61,-0.44,0.19
2020-08-12 19:31:46.7250,-0.48,-0.51,0.2
2020-08-12 19:31:46.8240,-1.01,0.16,-0.01
2020-08-12 19:31:46.9240,-0.46,-0.04,-0.04
2020-08-12 19:31:47.0230,0.16,-0.48,0.1
2020-08-12 19:31:47.1220,1.0,-0.49,0.22
2020-08-12 19:31:47.2220,0.92,0.06,0.13
2020-08-12 19:31:47.3210,-1.52,-0.2,-1.15
2020-08-12 19:31:47.4200,0.12,-0.08,0.06
2020-08-12 19:31:47.5190,-0.03,-0.05,0.12
2020-08-12 19:31:47.6180,-0.03,0.03,0.07
2020-08-12 19:31:47.7180,-0.14,0.02,0.03
2020-08-12 19:31:47.8170,0.07,-0.02,0.03
2020-08-12 19:31:47.9160,0.06,-0.0,-0.0
2020-08-12 19:31:48.0150,-0.04,-0.02,-0.05
2020-08-12 19:31:48.1150,-0.04,-0.03,0.07
2020-08-12 19:31:48.2140,-0.29,-0.33,-0.03
2020-08-12 19:31:48.3130,-0.4,-0.47,-0.03
2020-08-12 19:31:48.4120,-0.55,-0.01,-0.03
2020-08-12 19:31:48.5120,-0.65,0.17,0.06
2020-08-12 19:31:48.6110,-0.13,-0.21,0.03
2020-08-12 19:31:48.7100,0.53,-0.48,0.03
2020-08-12 19:31:48.8090,1.05,0.05,0.19
2020-08-12 19:31:48.9090,0.62,-0.31,-0.02
2020-08-12 19:31:49.0080,0.34,-0.24,0.15
2020-08-12 19:31:49.1070,-0.02,-0.01,0.06
2020-08-12 19:31:49.2070,0.04,0.01,0.02
2020-08-12 19:31:49.3060,-0.03,0.02,-0.01
2020-08-12 19:31:49.4050,-0.0,0.03,0.04
2020-08-12 19:31:49.5040,-0.03,-0.03,0.04
2020-08-12 19:31:49.6040,-0.08,-0.03,-0.0
2020-08-12 19:31:49.7030,-0.09,-0.12,0.09
2020-08-12 19:31:49.8020,-0.44,-0.43,0.08
2020-08-12 19:31:49.9010,-0.29,-0.47,0.45
2020-08-12 19:31:50.0000,-0.57,0.01,-0.01
2020-08-12 19:31:50.1000,-0.65,0.0,0.1
2020-08-12 19:31:50.1990,-0.03,-0.33,0.05
2020-08-12 19:31:50.2980,1.05,-0.52,0.08
2020-08-12 19:31:50.3980,0.94,0.12,0.1
2020-08-12 19:31:50.4970,-0.46,-0.05,0.25
2020-08-12 19:31:50.5960,0.28,0.03,-0.0
2020-08-12 19:31:50.6950,-0.06,0.01,0.06
2020-08-12 19:31:50.7950,0.04,-0.0,-0.02
2020-08-12 19:31:50.8940,0.03,0.05,0.03
2020-08-12 19:31:50.9930,0.02,0.01,0.02
2020-08-12 19:31:51.0920,-0.08,0.01,0.02
2020-08-12 19:31:51.1920,-0.16,-0.17,0.01
2020-08-12 19:31:51.2910,-0.41,-0.67,0.12
2020-08-12 19:31:51.3900,-0.46,-0.21,0.4
2020-08-12 19:31:51.4890,-0.87,0.32,-0.07
2020-08-12 19:31:51.5890,-0.32,-0.09,-0.1
2020-08-12 19:31:51.6880,0.07,-0.77,0.33
2020-08-12 19:31:51.7870,1.12,-0.07,0.38
2020-08-12 19:31:51.8870,0.81,0.17,0.03
2020-08-12 19:31:51.9860,-1.78,-0.19,-1.14
2020-08-12 19:31:52.0850,0.18,0.02,0.04
2020-08-12 19:31:52.1840,-0.08,-0.02,0.05
2020-08-12 19:31:52.2830,0.04,-0.0,-0.03
2020-08-12 19:31:52.3830,0.02,0.01,-0.01
2020-08-12 19:31:52.4820,-0.0,0.02,0.03
2020-08-12 19:31:52.5810,0.0,0.01,0.02
2020-08-12 19:31:52.6800,-0.06,-0.02,-0.0
2020-08-12 19:31:52.7800,-0.24,-0.28,0.02
2020-08-12 19:31:52.8790,-0.44,-0.43,0.16
2020-08-12 19:31:52.9790,-0.46,-0.01,0.27
2020-08-12 19:31:53.0780,-0.57,0.22,0.09
2020-08-12 19:31:53.1770,-0.13,-0.2,0.01
2020-08-12 19:31:53.2760,0.24,-0.43,0.1
2020-08-12 19:31:53.3750,1.26,-0.36,0.2
2020-08-12 19:31:53.4750,1.03,0.07,0.07
2020-08-12 19:31:53.5740,0.73,-0.62,0.06
2020-08-12 19:31:53.6730,0.09,0.0,0.15
2020-08-12 19:31:53.7720,0.03,0.0,-0.03
2020-08-12 19:31:53.8720,-0.01,0.01,-0.02
2020-08-12 19:31:53.9710,-0.0,0.02,0.0
2020-08-12 19:31:54.0700,0.0,-0.0,-0.01
2020-08-12 19:31:54.1690,-0.15,-0.02,-0.04
2020-08-12 19:31:54.2680,-0.15,-0.22,-0.01
2020-08-12 19:31:54.3680,-0.49,-0.4,0.1
2020-08-12 19:31:54.4670,-0.42,-0.55,0.3
2020-08-12 19:31:54.5670,-0.88,0.14,-0.07
2020-08-12 19:31:54.6650,-0.66,0.11,0.06
2020-08-12 19:31:54.7650,0.05,-0.45,0.09
2020-08-12 19:31:54.8640,1.05,-0.5,0.22
2020-08-12 19:31:54.9630,1.04,0.15,0.08
2020-08-12 19:31:55.0630,-0.69,0.01,0.23
2020-08-12 19:31:55.1620,0.44,0.03,-0.04
2020-08-12 19:31:55.2610,-0.05,0.01,0.02
2020-08-12 19:31:55.3600,0.08,-0.01,0.03
2020-08-12 19:31:55.4600,-0.02,0.03,0.13
2020-08-12 19:31:55.5590,-0.0,0.03,0.02
2020-08-12 19:31:55.6580,-0.09,0.02,-0.0
2020-08-12 19:31:55.7570,-0.07,-0.09,0.01
2020-08-12 19:31:55.8570,-0.27,-0.26,0.09
2020-08-12 19:31:55.9560,-0.44,-0.55,0.01
2020-08-12 19:31:56.0560,-0.55,0.05,0.17
2020-08-12 19:31:56.1540,-0.66,0.14,0.11
2020-08-12 19:31:56.2540,-0.05,-0.18,-0.02
2020-08-12 19:31:56.3530,0.59,-0.66,0.17
2020-08-12 19:31:56.4520,1.21,0.16,0.13
2020-08-12 19:31:56.5520,-0.25,-0.78,-0.88
2020-08-12 19:31:56.6510,0.43,-0.03,-0.23
2020-08-12 19:31:56.7500,-0.04,-0.02,0.07
2020-08-12 19:31:56.8490,0.08,0.0,0.07
2020-08-12 19:31:56.9480,-0.0,0.01,0.03
2020-08-12 19:31:57.0480,0.02,-0.02,0.02
2020-08-12 19:31:57.1470,-0.1,0.03,0.03
2020-08-12 19:31:57.2460,-0.14,-0.1,0.04
2020-08-12 19:31:57.3450,-0.41,-0.46,0.04
2020-08-12 19:31:57.4450,-0.29,-0.7,0.27
2020-08-12 19:31:57.5440,-0.25,-0.03,0.23
2020-08-12 19:31:57.6420,-0.48,0.15,0.02
2020-08-12 19:31:57.7420,-0.2,-0.16,-0.1
2020-08-12 19:31:57.8450,1.07,-0.8,-0.01
2020-08-12 19:31:57.9400,1.0,0.14,0.19
2020-08-12 19:31:58.0400,-1.09,-0.23,-0.74
2020-08-12 19:31:58.1400,0.21,0.06,0.13
2020-08-12 19:31:58.2390,-0.02,-0.0,0.14
2020-08-12 19:31:58.3380,0.08,0.0,0.0
2020-08-12 19:31:58.4360,0.02,0.02,-0.0
2020-08-12 19:31:58.5360,-0.06,-0.0,0.02
2020-08-12 19:31:58.6370,-0.04,-0.01,0.04
2020-08-12 19:31:58.7430,-0.09,-0.04,0.02
2020-08-12 19:31:58.8350,-0.12,-0.41,0.02
2020-08-12 19:31:58.9340,-0.49,-0.51,0.13
2020-08-12 19:31:59.0330,-0.64,-0.03,0.17
2020-08-12 19:31:59.1320,-0.69,0.13,-0.13
2020-08-12 19:31:59.2320,0.05,-0.07,0.03
2020-08-12 19:31:59.3310,0.22,-0.3,0.18
2020-08-12 19:31:59.4300,1.2,-0.33,0.29
2020-08-12 19:31:59.5290,0.87,-0.08,-0.19
2020-08-12 19:31:59.6290,0.64,-0.51,-0.04
2020-08-12 19:31:59.7280,0.05,-0.04,-0.04
2020-08-12 19:31:59.8270,0.09,-0.01,0.04
2020-08-12 19:31:59.9260,-0.01,0.01,0.03
2020-08-12 19:32:00.0260,-0.02,-0.0,0.02
2020-08-12 19:32:00.1250,-0.05,-0.0,0.03
2020-08-12 19:32:00.2240,-0.09,0.02,-0.04
2020-08-12 19:32:00.3230,-0.12,-0.22,-0.03
2020-08-12 19:32:00.4220,-0.51,-0.51,0.11
2020-08-12 19:32:00.5220,-0.62,-0.12,0.19
2020-08-12 19:32:00.6210,-0.67,0.2,0.03
2020-08-12 19:32:00.7200,-0.14,-0.19,-0.06
2020-08-12 19:32:00.8190,0.32,-0.42,0.14
2020-08-12 19:32:00.9190,0.78,-0.26,0.09
2020-08-12 19:32:01.0180,0.9,0.11,0.11
2020-08-12 19:32:01.1170,0.2,0.07,0.39
2020-08-12 19:32:01.2170,0.28,0.1,-0.05
2020-08-12 19:32:01.3160,-0.07,0.02,0.11
2020-08-12 19:32:01.4150,0.04,-0.01,-0.04
2020-08-12 19:32:01.5140,-0.06,-0.02,0.04
2020-08-12 19:32:01.6140,0.03,0.02,0.03
2020-08-12 19:32:01.7130,-0.06,-0.01,-0.02
2020-08-12 19:32:01.8120,-0.12,-0.13,-0.08
2020-08-12 19:32:01.9120,-0.37,-0.47,0.09
2020-08-12 19:32:02.0110,-0.17,-0.44,0.49
2020-08-12 19:32:02.1100,-0.71,-0.16,-0.02
2020-08-12 19:32:02.2090,-0.47,0.11,0.07
2020-08-12 19:32:02.3080,0.11,-0.26,0.06
2020-08-12 19:32:02.4080,0.81,-0.55,0.23
2020-08-12 19:32:02.5070,0.98,0.11,0.03
2020-08-12 19:32:02.6060,-0.91,-0.33,-1.36
2020-08-12 19:32:02.7050,0.4,0.06,-0.01
2020-08-12 19:32:02.8050,0.0,-0.03,-0.07
2020-08-12 19:32:02.9040,0.02,-0.0,0.16
2020-08-12 19:32:03.0030,0.05,0.02,0.04
2020-08-12 19:32:03.1030,-0.03,-0.03,-0.12
2020-08-12 19:32:03.2020,-0.0,0.03,-0.02
2020-08-12 19:32:03.3010,-0.13,-0.02,0.04
2020-08-12 19:32:03.4000,-0.19,-0.3,0.17
2020-08-12 19:32:03.4990,-0.39,-0.54,0.17
2020-08-12 19:32:03.5990,-0.37,-0.11,0.29
2020-08-12 19:32:03.6980,-0.73,0.2,0.07
2020-08-12 19:32:03.7970,-0.31,-0.07,0.06
2020-08-12 19:32:03.8970,0.13,-0.23,0.0
2020-08-12 19:32:03.9960,0.83,-0.55,-0.02
2020-08-12 19:32:04.0950,1.03,0.13,0.1
2020-08-12 19:32:04.1950,0.09,-0.09,0.52
2020-08-12 19:32:04.2940,0.43,0.03,0.05
2020-08-12 19:32:04.3930,-0.08,0.01,0.09
2020-08-12 19:32:04.4920,0.0,0.01,0.01
2020-08-12 19:32:04.5910,-0.07,-0.01,0.04
2020-08-12 19:32:04.6910,0.02,-0.0,0.01
2020-08-12 19:32:04.7900,-0.06,0.0,0.01
2020-08-12 19:32:04.8890,-0.07,-0.04,0.02
2020-08-12 19:32:04.9880,-0.13,-0.31,-0.02
2020-08-12 19:32:05.0880,-0.26,-0.55,0.21
2020-08-12 19:32:05.1870,-0.47,0.01,0.14
2020-08-12 19:32:05.2860,-0.61,0.07,0.01
2020-08-12 19:32:05.3850,-0.02,-0.09,-0.07
2020-08-12 19:32:05.4850,0.15,-0.42,0.16
2020-08-12 19:32:05.5840,1.09,-0.25,0.27
2020-08-12 19:32:05.6830,0.82,-0.06,-0.08
2020-08-12 19:32:05.7820,0.49,-0.5,0.06
2020-08-12 19:32:05.8820,0.12,-0.03,0.02
2020-08-12 19:32:05.9810,-0.01,0.01,0.05
2020-08-12 19:32:06.0800,-0.03,0.01,-0.02
2020-08-12 19:32:06.1790,0.01,-0.02,0.02
2020-08-12 19:32:06.2790,0.03,0.03,0.01
2020-08-12 19:32:06.3780,-0.04,-0.01,-0.01
2020-08-12 19:32:06.4770,-0.12,-0.17,-0.03
2020-08-12 19:32:06.5760,-0.48,-0.42,0.08
2020-08-12 19:32:06.6760,-0.33,-0.38,0.38
2020-08-12 19:32:06.7750,-0.24,-0.05,0.09
2020-08-12 19:32:06.8740,-0.47,0.05,0.12
2020-08-12 19:32:06.9740,-0.04,-0.18,0.14
2020-08-12 19:32:07.0730,0.92,-0.61,0.23
2020-08-12 19:32:07.1720,1.13,0.12,0.19
2020-08-12 19:32:07.2710,-1.36,-0.15,-0.25
2020-08-12 19:32:07.3700,0.35,-0.11,0.04
2020-08-12 19:32:07.4700,-0.0,0.0,0.06
2020-08-12 19:32:07.5690,0.07,-0.0,0.01
2020-08-12 19:32:07.6680,-0.03,0.03,0.16
2020-08-12 19:32:07.7680,0.02,0.0,0.01
2020-08-12 19:32:07.8670,-0.1,-0.03,0.02
2020-08-12 19:32:07.9660,-0.1,-0.08,-0.02
2020-08-12 19:32:08.0650,-0.25,-0.3,0.03
2020-08-12 19:32:08.1650,-0.49,-0.56,0.14
2020-08-12 19:32:08.2640,-0.43,-0.01,0.12
2020-08-12 19:32:08.3640,-0.43,0.26,-0.01
2020-08-12 19:32:08.4630,-0.16,-0.08,-0.07
2020-08-12 19:32:08.5620,0.33,-0.47,0.07
2020-08-12 19:32:08.6610,1.18,0.0,0.15
2020-08-12 19:32:08.7600,-0.27,-0.58,-0.2
2020-08-12 19:32:08.8590,0.46,-0.05,-0.21
2020-08-12 19:32:08.9580,-0.02,0.02,0.05
2020-08-12 19:32:09.0580,0.03,0.0,0.07
2020-08-12 19:32:09.1570,0.03,-0.0,-0.04
2020-08-12 19:32:09.2570,-0.02,0.01,-0.01
2020-08-12 19:32:09.3560,-0.05,-0.0,0.05
2020-08-12 19:32:09.4550,-0.11,-0.02,0.02
2020-08-12 19:32:09.5540,-0.12,-0.22,0.14
2020-08-12 19:32:09.6540,-0.51,-0.47,-0.0
2020-08-12 19:32:09.7530,-0.29,-0.43,0.42
2020-08-12 19:32:09.8520,-0.62,-0.02,0.03
2020-08-12 19:32:09.9510,-0.5,0.07,0.01
2020-08-12 19:32:10.0510,0.06,-0.23,0.0
2020-08-12 19:32:10.1500,0.45,-0.37,0.12
2020-08-12 19:32:10.2490,1.1,0.15,0.29
2020-08-12 19:32:10.3490,-0.67,-0.54,-0.93
2020-08-12 19:32:10.4480,0.41,-0.06,-0.3
2020-08-12 19:32:10.5470,0.02,-0.02,-0.02
2020-08-12 19:32:10.6460,0.04,-0.01,0.07
2020-08-12 19:32:10.7450,0.0,0.02,0.06
2020-08-12 19:32:10.8450,0.04,0.02,0.02
2020-08-12 19:32:10.9440,-0.02,0.02,0.01
2020-08-12 19:32:11.0430,-0.1,-0.01,-0.0
2020-08-12 19:32:11.1420,-0.04,-0.07,0.04
2020-08-12 19:32:11.2420,-0.2,-0.23,-0.02
2020-08-12 19:32:11.3410,-0.34,-0.37,0.01
2020-08-12 19:32:11.4400,-0.5,-0.06,0.28
2020-08-12 19:32:11.5390,-0.67,0.13,-0.05
2020-08-12 19:32:11.6390,-0.35,0.01,0.01
2020-08-12 19:32:11.7380,0.1,-0.33,0.09
2020-08-12 19:32:11.8370,1.08,-0.35,0.12
2020-08-12 19:32:11.9370,0.88,0.12,0.1
2020-08-12 19:32:12.0360,0.57,-0.3,0.5
2020-08-12 19:32:12.1350,0.44,0.02,0.11
2020-08-12 19:32:12.2340,-0.05,0.03,0.06
2020-08-12 19:32:12.3340,0.06,-0.0,0.02
2020-08-12 19:32:12.4330,0.03,0.02,0.04
2020-08-12 19:32:12.5320,0.03,0.02,-0.1
2020-08-12 19:32:12.6310,0.0,0.02,-0.01
2020-08-12 19:32:12.7310,-0.09,-0.02,-0.01
2020-08-12 19:32:12.8300,-0.39,-0.31,-0.04
2020-08-12 19:32:12.9290,-0.39,-0.4,-0.03
2020-08-12 19:32:13.0280,-0.52,-0.02,0.18
2020-08-12 19:32:13.1270,-1.07,0.05,-0.09
2020-08-12 19:32:13.2270,-0.17,-0.07,0.07
2020-08-12 19:32:13.3260,0.27,-0.3,0.07
2020-08-12 19:32:13.4250,1.12,-0.35,0.19
2020-08-12 19:32:13.5250,0.82,-0.28,-0.05
2020-08-12 19:32:13.6240,0.41,0.01,-0.09
2020-08-12 19:32:13.7230,-0.04,-0.02,-0.06
2020-08-12 19:32:13.8220,-0.02,-0.0,0.05
2020-08-12 19:32:13.9220,0.02,0.02,0.01
2020-08-12 19:32:14.0210,-0.02,-0.01,0.02
2020-08-12 19:32:14.1200,0.04,-0.02,-0.01
2020-08-12 19:32:14.2190,-0.1,-0.02,-0.03
2020-08-12 19:32:14.3190,-0.06,-0.14,0.03
2020-08-12 19:32:14.4180,-0.42,-0.49,-0.02
2020-08-12 19:32:14.5170,-0.28,-0.38,0.35
2020-08-12 19:32:14.6170,-0.83,0.2,-0.11
2020-08-12 19:32:14.7160,-0.37,-0.07,0.05
2020-08-12 19:32:14.8150,-0.02,-0.24,0.12
2020-08-12 19:32:14.9140,0.58,-0.47,0.21
2020-08-12 19:32:15.0130,1.08,0.15,0.04
2020-08-12 19:32:15.1130,-1.5,-0.15,-0.51
2020-08-12 19:32:15.2120,0.28,0.02,-0.01
2020-08-12 19:32:15.3110,-0.03,-0.0,0.06
2020-08-12 19:32:15.4100,0.03,0.0,0.06
2020-08-12 19:32:15.5100,0.0,0.01,-0.02
2020-08-12 19:32:15.6090,-0.01,0.02,-0.01
2020-08-12 19:32:15.7080,0.02,0.01,0.01
2020-08-12 19:32:15.8070,-0.02,0.04,-0.01
2020-08-12 19:32:15.9070,-0.23,-0.41,0.04
2020-08-12 19:32:16.0060,-0.39,-0.45,-0.01
2020-08-12 19:32:16.1050,-0.42,-0.5,0.23
2020-08-12 19:32:16.2050,-0.7,0.02,-0.07
2020-08-12 19:32:16.3040,-0.46,0.19,-0.0
2020-08-12 19:32:16.4030,0.12,-0.14,-0.02
2020-08-12 19:32:16.5030,0.54,-0.45,0.18
2020-08-12 19:32:16.6020,1.06,0.16,0.11
2020-08-12 19:32:16.7010,-0.95,-0.1,0.05
2020-08-12 19:32:16.8000,0.5,0.01,0.1
2020-08-12 19:32:16.8990,-0.03,0.01,0.05
2020-08-12 19:32:16.9990,-0.01,-0.0,-0.03
2020-08-12 19:32:17.0980,0.01,0.01,0.0
2020-08-12 19:32:17.1970,0.07,0.06,-0.01
2020-08-12 19:32:17.2960,-0.01,0.02,-0.01
2020-08-12 19:32:17.3960,-0.11,-0.06,0.0
2020-08-12 19:32:17.4950,-0.12,-0.24,0.05
2020-08-12 19:32:17.5940,-0.46,-0.48,0.0
2020-08-12 19:32:17.6930,-0.64,-0.17,0.13
2020-08-12 19:32:17.7930,-0.62,0.21,0.03
2020-08-12 19:32:17.8920,-0.12,-0.12,0.02
2020-08-12 19:32:17.9910,-0.02,-0.2,0.14
2020-08-12 19:32:18.0900,0.8,-0.39,0.06
2020-08-12 19:32:18.1900,1.02,0.05,0.08
2020-08-12 19:32:18.2890,0.13,-0.22,0.5
2020-08-12 19:32:18.3880,0.22,-0.01,-0.0
2020-08-12 19:32:18.4880,-0.01,0.03,0.06
2020-08-12 19:32:18.5870,0.02,-0.0,0.0
2020-08-12 19:32:18.6860,-0.04,-0.03,0.04
2020-08-12 19:32:18.7850,0.12,0.06,0.01
2020-08-12 19:32:18.8850,-0.08,0.0,0.03
2020-08-12 19:32:18.9840,-0.12,-0.06,-0.01
2020-08-12 19:32:19.0830,-0.12,-0.28,-0.08
2020-08-12 19:32:19.1820,-0.26,-0.4,0.4
2020-08-12 19:32:19.2810,-0.63,0.06,0.04
2020-08-12 19:32:19.3810,-0.54,0.18,-0.02
2020-08-12 19:32:19.4800,-0.2,-0.07,0.01
2020-08-12 19:32:19.5790,0.21,-0.19,0.05
2020-08-12 19:32:19.6780,0.7,-0.29,0.15
2020-08-12 19:32:19.7780,0.92,0.11,0.07
2020-08-12 19:32:19.8770,0.6,-0.39,0.44
2020-08-12 19:32:19.9760,0.07,-0.0,-0.05
2020-08-12 19:32:20.0760,0.08,-0.0,0.05
2020-08-12 19:32:20.1750,-0.01,0.01,0.01
2020-08-12 19:32:20.2740,-0.04,-0.01,0.01
2020-08-12 19:32:20.3730,-0.08,-0.02,0.08
2020-08-12 19:32:20.4730,-0.03,-0.05,0.08
2020-08-12 19:32:20.5720,-0.13,-0.18,-0.02
2020-08-12 19:32:20.6710,-0.29,-0.33,-0.0
2020-08-12 19:32:20.7710,-0.4,-0.5,0.31
2020-08-12 19:32:20.8700,-0.6,-0.04,0.05
2020-08-12 19:32:20.9690,-0.6,0.05,0.12
2020-08-12 19:32:21.0680,0.03,-0.29,0.04
2020-08-12 19:32:21.1670,0.73,-0.4,0.08
2020-08-12 19:32:21.2670,0.77,0.02,0.1
2020-08-12 19:32:21.3660,0.58,-0.07,-0.1
2020-08-12 19:32:21.4650,0.71,-0.5,0.06
2020-08-12 19:32:21.5640,0.02,0.03,-0.0
2020-08-12 19:32:21.6640,0.07,0.0,0.09
2020-08-12 19:32:21.7630,0.06,0.01,0.02
2020-08-12 19:32:21.8620,0.01,0.02,-0.03
2020-08-12 19:32:21.9610,0.01,0.0,0.01
2020-08-12 19:32:22.0610,-0.1,-0.02,-0.03
2020-08-12 19:32:22.1600,-0.05,-0.1,0.01
2020-08-12 19:32:22.2590,-0.36,-0.42,0.03
2020-08-12 19:32:22.3580,-0.34,-0.37,0.26
2020-08-12 19:32:22.4580,-0.68,0.08,-0.08
2020-08-12 19:32:22.5570,-0.47,0.07,0.03
2020-08-12 19:32:22.6560,0.08,-0.28,0.03
2020-08-12 19:32:22.7560,0.76,-0.49,0.18
2020-08-12 19:32:22.8560,0.99,0.16,0.07
2020-08-12 19:32:22.9540,-0.89,-0.06,-0.02
2020-08-12 19:32:23.0540,0.26,-0.01,-0.21
2020-08-12 19:32:23.1530,-0.08,-0.01,0.1
2020-08-12 19:32:23.2520,0.04,-0.01,-0.04
2020-08-12 19:32:23.3510,0.01,0.02,0.04
2020-08-12 19:32:23.4500,0.01,-0.02,0.04
2020-08-12 19:32:23.5500,-0.02,-0.05,-0.05
2020-08-12 19:32:23.6490,-0.13,-0.04,0.0
2020-08-12 19:32:23.7480,-0.15,-0.27,-0.01
2020-08-12 19:32:23.8480,-0.44,-0.39,0.0
2020-08-12 19:32:23.9470,-0.61,-0.47,0.01
2020-08-12 19:32:24.0460,-0.76,0.15,-0.06
2020-08-12 19:32:24.1450,-0.24,-0.07,-0.03
2020-08-12 19:32:24.2440,0.22,-0.34,0.01
2020-08-12 19:32:24.3440,0.94,-0.34,0.35
2020-08-12 19:32:24.4430,0.81,0.06,-0.01
2020-08-12 19:32:24.5420,0.7,-0.29,0.11
2020-08-12 19:32:24.6410,0.27,0.01,0.11
2020-08-12 19:32:24.7410,-0.03,0.01,0.05
2020-08-12 19:32:24.8400,-0.02,0.01,0.0
2020-08-12 19:32:24.9390,0.03,-0.01,-0.03
2020-08-12 19:32:25.0380,-0.0,-0.01,-0.02
2020-08-12 19:32:25.1380,0.01,0.03,0.02
2020-08-12 19:32:25.2370,-0.1,-0.03,0.01
2020-08-12 19:32:25.3360,-0.27,-0.29,-0.01
2020-08-12 19:32:25.4350,-0.46,-0.44,0.08
2020-08-12 19:32:25.5350,-0.49,-0.04,0.04
2020-08-12 19:32:25.6340,-0.52,0.19,0.04
2020-08-12 19:32:25.7330,-0.03,-0.21,-0.11
2020-08-12 19:32:25.8330,0.54,-0.71,0.17
2020-08-12 19:32:25.9320,1.22,0.21,0.03
2020-08-12 19:32:26.0310,-0.38,-0.42,-0.81
2020-08-12 19:32:26.1300,0.2,-0.09,0.1
2020-08-12 19:32:26.2290,-0.08,-0.01,0.08
2020-08-12 19:32:26.3290,0.09,-0.02,0.05
2020-08-12 19:32:26.4280,0.01,0.01,0.05
2020-08-12 19:32:26.5270,-0.06,0.0,0.0
2020-08-12 19:32:26.6260,0.05,0.0,-0.0
2020-08-12 19:32:26.7260,-0.07,-0.01,-0.01
2020-08-12 19:32:26.8250,-0.12,-0.15,-0.01
2020-08-12 19:32:26.9250,-0.37,-0.51,0.06
2020-08-12 19:32:27.0240,-0.47,0.04,0.05
2020-08-12 19:32:27.1230,-0.54,0.19,0.03
2020-08-12 19:32:27.2230,-0.16,-0.12,-0.15
2020-08-12 19:32:27.3220,0.48,-0.42,0.09
2020-08-12 19:32:27.4210,0.96,0.05,0.13
2020-08-12 19:32:27.5200,0.4,-0.31,-0.06
2020-08-12 19:32:27.6190,0.28,-0.12,0.08
2020-08-12 19:32:27.7180,-0.02,-0.03,-0.02
2020-08-12 19:32:27.8180,-0.0,0.01,0.04
2020-08-12 19:32:27.9170,-0.04,0.0,0.02
2020-08-12 19:32:28.0160,-0.01,0.02,0.05
2020-08-12 19:32:28.1150,-0.01,-0.01,-0.02
2020-08-12 19:32:28.2150,-0.1,0.02,-0.02
2020-08-12 19:32:28.3140,-0.1,-0.19,-0.02
2020-08-12 19:32:28.4130,-0.45,-0.43,0.05
2020-08-12 19:32:28.5120,-0.36,-0.39,0.02
2020-08-12 19:32:28.6120,-0.75,0.07,-0.17
2020-08-12 19:32:28.7110,-0.45,-0.03,0.11
2020-08-12 19:32:28.8100,0.14,-0.25,-0.12
2020-08-12 19:32:28.9100,1.06,-0.39,0.3
2020-08-12 19:32:29.0090,1.0,0.15,0.12
2020-08-12 19:32:29.1080,0.78,-0.65,0.28
2020-08-12 19:32:29.2070,0.09,0.0,0.02
2020-08-12 19:32:29.3070,-0.01,0.04,0.02
2020-08-12 19:32:29.4060,0.01,0.01,-0.02
2020-08-12 19:32:29.5050,0.01,-0.0,0.04
2020-08-12 19:32:29.6040,0.03,-0.04,0.01
2020-08-12 19:32:29.7030,-0.1,0.0,0.07
2020-08-12 19:32:29.8030,-0.18,-0.17,0.1
2020-08-12 19:32:29.9020,-0.27,-0.38,0.09
2020-08-12 19:32:30.0010,-0.36,-0.32,0.31
2020-08-12 19:32:30.1000,-0.42,-0.1,0.08
2020-08-12 19:32:30.2000,-0.52,0.11,0.02
2020-08-12 19:32:30.2990,0.07,-0.21,-0.07
2020-08-12 19:32:30.3980,0.59,-0.49,0.15
2020-08-12 19:32:30.4970,0.92,0.11,0.2
2020-08-12 19:32:30.5970,-0.25,-0.34,0.62
2020-08-12 19:32:30.6960,0.27,0.02,0.06
2020-08-12 19:32:30.7950,-0.04,0.01,0.06
2020-08-12 19:32:30.8950,0.08,-0.0,-0.03
2020-08-12 19:32:30.9940,0.05,0.02,0.03
2020-08-12 19:32:31.0930,-0.02,-0.04,0.0
2020-08-12 19:32:31.1930,-0.02,0.01,0.02
2020-08-12 19:32:31.2920,-0.07,-0.04,0.04
2020-08-12 19:32:31.3910,-0.25,-0.3,0.03
2020-08-12 19:32:31.4900,-0.3,-0.43,0.03
2020-08-12 19:32:31.5890,-0.4,0.04,0.18
2020-08-12 19:32:31.6890,-0.78,-0.08,0.01
2020-08-12 19:32:31.7880,-0.06,-0.08,-0.02
2020-08-12 19:32:31.8870,0.32,-0.34,0.08
2020-08-12 19:32:31.9860,0.91,-0.17,0.17
2020-08-12 19:32:32.0860,0.87,0.05,0.08
2020-08-12 19:32:32.1850,0.73,-0.54,0.19
2020-08-12 19:32:32.2840,0.1,-0.01,0.0
2020-08-12 19:32:32.3830,0.04,0.01,0.08
2020-08-12 19:32:32.4830,0.02,0.01,0.08
2020-08-12 19:32:32.5820,0.02,0.0,0.02
2020-08-12 19:32:32.6810,-0.07,-0.0,0.01
2020-08-12 19:32:32.7800,-0.1,-0.01,0.01
2020-08-12 19:32:32.8800,-0.13,-0.25,0.08
2020-08-12 19:32:32.9790,-0.28,-0.38,0.06
2020-08-12 19:32:33.0780,-0.35,-0.33,0.32
2020-08-12 19:32:33.1780,-0.47,-0.05,0.07
2020-08-12 19:32:33.2770,-0.57,0.15,0.06
2020-08-12 19:32:33.3760,0.07,-0.24,0.05
2020-08-12 19:32:33.4760,0.73,-0.49,0.1
2020-08-12 19:32:33.5750,0.77,0.09,0.03
2020-08-12 19:32:33.6740,-0.17,-0.53,-0.54
2020-08-12 19:32:33.7730,0.32,-0.03,-0.21
2020-08-12 19:32:33.8720,-0.01,-0.01,0.08
2020-08-12 19:32:33.9720,0.06,-0.0,-0.03
2020-08-12 19:32:34.0710,-0.02,0.01,0.04
2020-08-12 19:32:34.1700,0.05,0.04,-0.05
2020-08-12 19:32:34.2690,0.09,-0.05,0.04
2020-08-12 19:32:34.3680,-0.01,0.01,0.04
2020-08-12 19:32:34.4680,-0.25,-0.03,0.1
2020-08-12 19:32:34.5670,-0.32,-0.49,0.04
2020-08-12 19:32:34.6660,-0.48,-0.51,0.27
2020-08-12 19:32:34.7660,-0.52,-0.17,-0.14
2020-08-12 19:32:34.8650,-0.68,0.23,0.2
2020-08-12 19:32:34.9640,0.35,-0.3,0.07
2020-08-12 19:32:35.0640,0.65,-0.36,0.0
2020-08-12 19:32:35.1630,0.75,0.03,0.13
2020-08-12 19:32:35.2620,0.09,-0.38,-0.3
2020-08-12 19:32:35.3620,0.17,-0.08,-0.03
2020-08-12 19:32:35.4610,-0.03,-0.02,0.06
2020-08-12 19:32:35.5600,0.05,0.0,0.01
2020-08-12 19:32:35.6590,0.0,0.02,0.01
2020-08-12 19:32:35.7580,0.02,0.06,-0.03
2020-08-12 19:32:35.8580,0.04,-0.01,-0.04
2020-08-12 19:32:35.9570,-0.07,-0.01,0.04
2020-08-12 19:32:36.0560,-0.08,-0.05,0.02
2020-08-12 19:32:36.1550,-0.32,-0.29,-0.0
2020-08-12 19:32:36.2540,-0.48,-0.63,0.12
2020-08-12 19:32:36.3540,-0.46,0.14,0.1
2020-08-12 19:32:36.4530,-0.59,0.1,0.08
2020-08-12 19:32:36.5520,-0.02,-0.2,0.02
2020-08-12 19:32:36.6520,0.71,-0.38,0.13
2020-08-12 19:32:36.7510,0.8,0.04,0.19
2020-08-12 19:32:36.8500,0.6,-0.16,0.02
2020-08-12 19:32:36.9490,0.64,-0.1,-0.19
2020-08-12 19:32:37.0490,0.01,-0.01,0.05
2020-08-12 19:32:37.1480,0.05,0.0,0.03
2020-08-12 19:32:37.2470,-0.0,0.01,0.02
2020-08-12 19:32:37.3460,-0.06,0.0,0.02
2020-08-12 19:32:37.4460,-0.05,-0.03,0.02
2020-08-12 19:32:37.5450,-0.12,-0.01,0.06
2020-08-12 19:32:37.6440,-0.14,-0.2,0.04
2020-08-12 19:32:37.7430,-0.46,-0.43,0.07
2020-08-12 19:32:37.8430,-0.22,-0.43,0.31
2020-08-12 19:32:37.9420,-0.77,0.17,0.03
2020-08-12 19:32:38.0410,-0.23,-0.18,0.08
2020-08-12 19:32:38.1400,0.0,-0.08,-0.06
2020-08-12 19:32:38.2400,0.66,-0.46,0.0
2020-08-12 19:32:38.3390,0.9,0.05,0.19
2020-08-12 19:32:38.4380,0.14,-0.44,-0.28
2020-08-12 19:32:38.5370,0.17,-0.16,-0.01
2020-08-12 19:32:38.6370,0.03,-0.01,0.05
2020-08-12 19:32:38.7360,0.05,-0.01,-0.01
2020-08-12 19:32:38.8350,0.07,-0.0,-0.05
2020-08-12 19:32:38.9340,0.03,0.02,0.02
2020-08-12 19:32:39.0340,0.08,-0.0,0.01
2020-08-12 19:32:39.1330,-0.09,0.01,0.02
2020-08-12 19:32:39.2320,-0.05,-0.03,-0.05
2020-08-12 19:32:39.3320,-0.25,-0.26,0.08
2020-08-12 19:32:39.4310,-0.29,-0.46,0.26
2020-08-12 19:32:39.5300,-0.49,0.04,0.2
2020-08-12 19:32:39.6290,-0.61,0.11,0.04
2020-08-12 19:32:39.7290,0.09,-0.17,0.04
2020-08-12 19:32:39.8280,0.32,-0.29,-0.01
2020-08-12 19:32:39.9270,0.83,-0.15,0.03
2020-08-12 19:32:40.0260,0.67,0.03,0.1
2020-08-12 19:32:40.1250,0.07,-0.2,0.09
2020-08-12 19:32:40.2250,0.25,0.01,-0.07
2020-08-12 19:32:40.3240,0.02,0.02,0.11
2020-08-12 19:32:40.4230,0.06,-0.0,0.06
2020-08-12 19:32:40.5220,0.0,0.0,-0.01
2020-08-12 19:32:40.6220,-0.04,-0.05,-0.04
2020-08-12 19:32:40.7210,-0.09,-0.02,0.03
2020-08-12 19:32:40.8200,-0.08,-0.1,-0.04
2020-08-12 19:32:40.9200,-0.14,-0.33,0.08
2020-08-12 19:32:41.0190,-0.29,-0.48,0.16
2020-08-12 19:32:41.1180,-0.52,0.02,0.12
2020-08-12 19:32:41.2170,-0.47,0.16,0.13
2020-08-12 19:32:41.3170,0.02,-0.16,-0.11
2020-08-12 19:32:41.4160,0.04,-0.28,0.09
2020-08-12 19:32:41.5150,0.89,-0.22,0.27
2020-08-12 19:32:41.6150,0.84,0.03,0.05
2020-08-12 19:32:41.7140,0.42,-0.31,0.36
2020-08-12 19:32:41.8130,0.2,-0.02,-0.09
2020-08-12 19:32:41.9120,0.08,0.02,0.09
2020-08-12 19:32:42.0120,0.03,-0.01,0.01
2020-08-12 19:32:42.1110,0.02,0.02,0.02
2020-08-12 19:32:42.2100,-0.02,-0.03,-0.01
2020-08-12 19:32:42.3090,-0.05,0.0,-0.01
2020-08-12 19:32:42.4080,-0.09,-0.07,0.09
2020-08-12 19:32:42.5080,-0.16,-0.31,0.06
2020-08-12 19:32:42.6070,-0.32,-0.33,-0.0
2020-08-12 19:32:42.7060,-0.47,-0.02,0.2
2020-08-12 19:32:42.8060,-0.61,0.18,0.12
2020-08-12 19:32:42.9050,-0.14,-0.24,-0.05
2020-08-12 19:32:43.0040,0.38,-0.5,0.08
2020-08-12 19:32:43.1030,0.91,0.05,0.12
2020-08-12 19:32:43.2030,0.68,-0.33,0.01
2020-08-12 19:32:43.3020,0.15,-0.27,0.12
2020-08-12 19:32:43.4010,0.11,-0.04,-0.01
2020-08-12 19:32:43.5000,-0.02,0.01,0.06
2020-08-12 19:32:43.6000,0.03,0.0,0.0
2020-08-12 19:32:43.6990,-0.01,-0.01,0.04
2020-08-12 19:32:43.7990,-0.01,-0.07,-0.06
2020-08-12 19:32:43.8980,-0.05,-0.02,-0.0
2020-08-12 19:32:43.9970,-0.07,-0.03,0.02
2020-08-12 19:32:44.0960,-0.21,-0.32,-0.04
2020-08-12 19:32:44.1950,-0.35,-0.27,0.1
2020-08-12 19:32:44.2940,-0.37,-0.11,0.35
2020-08-12 19:32:44.3940,-0.68,0.18,0.09
2020-08-12 19:32:44.4930,-0.33,-0.09,-0.07
2020-08-12 19:32:44.5920,0.21,-0.48,0.01
2020-08-12 19:32:44.6910,0.9,-0.13,0.26
2020-08-12 19:32:44.7910,0.75,0.14,0.16
2020-08-12 19:32:44.8900,0.43,-0.18,0.53
2020-08-12 19:32:44.9890,0.33,-0.0,0.11
2020-08-12 19:32:45.0880,-0.14,0.03,0.06
2020-08-12 19:32:45.1880,-0.01,-0.01,0.05
2020-08-12 19:32:45.2870,0.01,-0.01,0.03
2020-08-12 19:32:45.3860,-0.04,0.01,0.03
2020-08-12 19:32:45.4850,0.01,-0.01,-0.08
2020-08-12 19:32:45.5850,-0.04,-0.02,-0.06
2020-08-12 19:32:45.6840,-0.11,-0.3,0.09
2020-08-12 19:32:45.7830,-0.54,-0.28,0.07
2020-08-12 19:32:45.8830,-0.16,-0.47,0.39
2020-08-12 19:32:45.9820,-0.56,0.01,0.1
2020-08-12 19:32:46.0810,-0.53,0.11,0.01
2020-08-12 19:32:46.1800,-0.05,-0.32,0.07
2020-08-12 19:32:46.2790,1.03,-0.38,0.33
2020-08-12 19:32:46.3790,1.1,0.14,0.04
2020-08-12 19:32:46.4780,0.09,-0.43,0.23
2020-08-12 19:32:46.5770,0.26,0.03,0.11
2020-08-12 19:32:46.6770,-0.01,0.02,0.02
2020-08-12 19:32:46.7760,-0.04,0.01,0.02
2020-08-12 19:32:46.8750,-0.01,0.0,0.05
2020-08-12 19:32:46.9740,-0.01,0.01,0.01
2020-08-12 19:32:47.0730,-0.0,0.01,0.04
2020-08-12 19:32:47.1730,-0.17,-0.03,-0.01
2020-08-12 19:32:47.2720,-0.23,-0.23,0.07
2020-08-12 19:32:47.3710,-0.44,-0.47,-0.0
2020-08-12 19:32:47.4710,-0.4,-0.07,0.2
2020-08-12 19:32:47.5700,-0.7,0.3,0.15
2020-08-12 19:32:47.6690,-0.33,-0.11,-0.01
2020-08-12 19:32:47.7680,0.42,-0.55,0.02
2020-08-12 19:32:47.8680,0.92,-0.23,0.11
2020-08-12 19:32:47.9670,0.84,0.0,0.06
2020-08-12 19:32:48.0660,0.63,-0.62,0.28
2020-08-12 19:32:48.1650,0.15,-0.02,0.08
2020-08-12 19:32:48.2650,-0.02,0.01,0.05
2020-08-12 19:32:48.3640,-0.03,0.0,0.0
2020-08-12 19:32:48.4630,0.08,0.06,0.02
2020-08-12 19:32:48.5620,0.06,0.0,0.01
2020-08-12 19:32:48.6620,-0.15,-0.03,0.01
2020-08-12 19:32:48.7610,-0.0,-0.05,-0.0
2020-08-12 19:32:48.8600,-0.3,-0.36,-0.01
2020-08-12 19:32:48.9590,-0.34,-0.36,0.09
2020-08-12 19:32:49.0580,-0.53,-0.0,0.23
2020-08-12 19:32:49.1580,-0.82,0.1,0.07
2020-08-12 19:32:49.2570,-0.05,-0.16,0.01
2020-08-12 19:32:49.3560,0.53,-0.58,0.18
2020-08-12 19:32:49.4560,1.12,0.19,0.09
2020-08-12 19:32:49.5550,-0.44,-0.61,-0.91
2020-08-12 19:32:49.6540,0.28,0.08,-0.06
2020-08-12 19:32:49.7540,-0.08,-0.01,0.01
2020-08-12 19:32:49.8530,0.04,0.0,0.07
2020-08-12 19:32:49.9520,-0.03,0.01,0.03
2020-08-12 19:32:50.0520,-0.06,-0.01,-0.03
2020-08-12 19:32:50.1510,0.01,0.01,0.01
2020-08-12 19:32:50.2500,-0.02,-0.0,0.01
2020-08-12 19:32:50.3490,-0.05,-0.15,-0.04
2020-08-12 19:32:50.4480,-0.41,-0.43,0.03
2020-08-12 19:32:50.5470,-0.22,-0.27,0.39
2020-08-12 19:32:50.6470,-0.72,0.09,-0.01
2020-08-12 19:32:50.7460,-0.37,-0.08,0.02
2020-08-12 19:32:50.8450,0.12,-0.25,0.06
2020-08-12 19:32:50.9450,0.73,-0.31,0.05
2020-08-12 19:32:51.0440,0.78,0.12,0.12
2020-08-12 19:32:51.1430,-0.68,0.01,0.06
2020-08-12 19:32:51.2420,0.35,0.03,0.03
2020-08-12 19:32:51.3420,-0.04,0.01,0.03
2020-08-12 19:32:51.4410,0.04,0.0,0.04
2020-08-12 19:32:51.5400,0.02,0.01,0.03
2020-08-12 19:32:51.6390,0.02,0.0,-0.02
2020-08-12 19:32:51.7390,-0.03,0.01,-0.01
2020-08-12 19:32:51.8380,-0.19,-0.04,0.02
2020-08-12 19:32:51.9370,-0.08,-0.11,0.06
2020-08-12 19:32:52.0370,-0.38,-0.45,0.14
2020-08-12 19:32:52.1360,-0.28,-0.25,0.44
2020-08-12 19:32:52.2350,-0.36,0.12,0.13
2020-08-12 19:32:52.3340,-0.53,0.01,0.01
2020-08-12 19:32:52.4340,0.03,-0.24,0.0
2020-08-12 19:32:52.5330,0.75,-0.6,0.04
2020-08-12 19:32:52.6320,1.12,0.18,0.14
2020-08-12 19:32:52.7310,0.15,-0.28,0.52
2020-08-12 19:32:52.8300,0.33,0.03,0.06
2020-08-12 19:32:52.9300,-0.01,0.02,0.08
2020-08-12 19:32:53.0290,0.02,-0.01,0.01
2020-08-12 19:32:53.1280,0.03,0.0,0.07
2020-08-12 19:32:53.2270,0.02,0.0,0.0
2020-08-12 19:32:53.3270,-0.09,0.0,0.03
2020-08-12 19:32:53.4260,-0.12,-0.03,-0.03
2020-08-12 19:32:53.5250,-0.12,-0.29,-0.02
2020-08-12 19:32:53.6240,-0.66,-0.47,0.04
2020-08-12 19:32:53.7240,-0.52,-0.19,0.13
2020-08-12 19:32:53.8230,-0.78,0.11,0.05
2020-08-12 19:32:53.9220,-0.16,-0.06,-0.05
2020-08-12 19:32:54.0220,0.36,-0.37,0.17
2020-08-12 19:32:54.1210,0.92,-0.17,0.19
2020-08-12 19:32:54.2200,0.74,-0.03,-0.04
2020-08-12 19:32:54.3190,0.72,-0.61,0.17
2020-08-12 19:32:54.4180,0.13,-0.0,0.03
2020-08-12 19:32:54.5180,-0.03,0.02,0.02
2020-08-12 19:32:54.6170,-0.02,0.01,-0.04
2020-08-12 19:32:54.7160,0.02,0.01,0.01
2020-08-12 19:32:54.8150,0.03,0.01,0.01
2020-08-12 19:32:54.9150,-0.04,0.02,-0.0
2020-08-12 19:32:55.0140,-0.04,-0.12,-0.04
2020-08-12 19:32:55.1130,-0.35,-0.37,0.09
2020-08-12 19:32:55.2120,-0.29,-0.47,0.08
2020-08-12 19:32:55.3120,-0.5,0.07,0.08
2020-08-12 19:32:55.4110,-0.65,-0.04,0.09
2020-08-12 19:32:55.5100,0.07,-0.18,0.06
2020-08-12 19:32:55.6100,0.24,-0.44,0.03
2020-08-12 19:32:55.7090,1.09,0.02,0.24
2020-08-12 19:32:55.8080,0.71,-0.24,-0.02
2020-08-12 19:32:55.9070,0.31,-0.16,-0.17
2020-08-12 19:32:56.0070,0.01,0.01,-0.02
2020-08-12 19:32:56.1060,0.05,-0.01,0.06
2020-08-12 19:32:56.2050,-0.01,0.01,-0.0
2020-08-12 19:32:56.3050,0.01,0.04,0.03
2020-08-12 19:32:56.4040,0.02,-0.03,0.03
2020-08-12 19:32:56.5030,-0.0,0.09,-0.04
2020-08-12 19:32:56.6020,-0.23,-0.38,0.12
2020-08-12 19:32:56.7010,-0.48,-0.56,0.05
2020-08-12 19:32:56.8010,-0.37,-0.17,0.3
2020-08-12 19:32:56.9000,-0.73,0.29,0.05
2020-08-12 19:32:56.9990,-0.24,-0.11,0.03
2020-08-12 19:32:57.0980,0.24,-0.51,0.15
2020-08-12 19:32:57.1980,0.77,-0.2,0.0
2020-08-12 19:32:57.2970,0.79,0.14,-0.01
2020-08-12 19:32:57.3960,-1.0,-0.1,-0.61
2020-08-12 19:32:57.4950,0.48,0.05,-0.07
2020-08-12 19:32:57.5950,-0.14,0.0,0.02
2020-08-12 19:32:57.6940,0.07,-0.01,0.06
2020-08-12 19:32:57.7930,0.06,-0.0,-0.01
2020-08-12 19:32:57.8930,-0.05,0.01,0.0
2020-08-12 19:32:57.9920,-0.06,-0.0,-0.0
2020-08-12 19:32:58.0910,-0.14,-0.08,0.01
2020-08-12 19:32:58.1900,-0.13,-0.3,-0.02
2020-08-12 19:32:58.2900,-0.35,-0.48,0.14
2020-08-12 19:32:58.3890,-0.39,0.06,0.07
2020-08-12 19:32:58.4880,-0.63,0.18,-0.02
2020-08-12 19:32:58.5870,-0.05,-0.13,-0.06
2020-08-12 19:32:58.6870,0.21,-0.32,0.15
2020-08-12 19:32:58.7860,0.71,-0.14,0.22
2020-08-12 19:32:58.8850,1.04,0.06,0.04
2020-08-12 19:32:58.9840,0.41,-0.66,0.38
2020-08-12 19:32:59.0840,0.28,-0.01,-0.12
2020-08-12 19:32:59.1830,-0.01,0.03,0.05
2020-08-12 19:32:59.2820,-0.05,0.01,0.01
2020-08-12 19:32:59.3810,0.03,0.01,0.02
2020-08-12 19:32:59.4810,0.01,0.02,0.0
2020-08-12 19:32:59.5800,-0.05,0.02,0.04
2020-08-12 19:32:59.6790,-0.13,-0.09,0.08
2020-08-12 19:32:59.7780,-0.24,-0.36,0.07
2020-08-12 19:32:59.8770,-0.45,-0.48,-0.08
2020-08-12 19:32:59.9770,-0.56,0.05,0.31
2020-08-12 19:33:00.0760,-0.64,0.05,0.1
2020-08-12 19:33:00.1760,0.01,-0.16,-0.13
2020-08-12 19:33:00.2750,0.42,-0.58,-0.04
2020-08-12 19:33:00.3740,0.98,0.14,0.14
2020-08-12 19:33:00.4730,0.41,-0.28,0.08
2020-08-12 19:33:00.5730,0.35,-0.15,0.06
2020-08-12 19:33:00.6720,-0.0,-0.0,-0.01
2020-08-12 19:33:00.7710,0.03,0.01,-0.0
2020-08-12 19:33:00.8700,-0.01,0.01,0.0
2020-08-12 19:33:00.9700,-0.02,-0.01,-0.02
2020-08-12 19:33:01.0690,-0.03,-0.01,0.03
2020-08-12 19:33:01.1680,-0.1,-0.06,0.03
2020-08-12 19:33:01.2670,-0.13,-0.08,0.04
2020-08-12 19:33:01.3660,-0.47,-0.46,0.14
2020-08-12 19:33:01.4660,-0.15,-0.26,0.41
2020-08-12 19:33:01.5650,-0.7,0.09,-0.04
2020-08-12 19:33:01.6640,-0.38,-0.07,-0.0
2020-08-12 19:33:01.7630,0.09,-0.21,0.05
2020-08-12 19:33:01.8630,0.75,-0.36,0.21
2020-08-12 19:33:01.9620,1.06,0.15,0.16
2020-08-12 19:33:02.0610,0.22,-0.35,0.59
2020-08-12 19:33:02.1610,0.34,-0.04,0.1
2020-08-12 19:33:02.2600,-0.04,0.03,0.1
2020-08-12 19:33:02.3590,-0.02,0.0,-0.04
2020-08-12 19:33:02.4580,-0.0,0.0,0.01
2020-08-12 19:33:02.5580,0.03,0.01,0.01
2020-08-12 19:33:02.6570,-0.1,0.07,-0.03
2020-08-12 19:33:02.7560,-0.18,-0.22,0.05
2020-08-12 19:33:02.8560,-0.21,-0.45,0.16
2020-08-12 19:33:02.9550,-0.21,-0.19,0.42
2020-08-12 19:33:03.0540,-0.87,0.25,0.03
2020-08-12 19:33:03.1530,-0.33,-0.12,-0.01
2020-08-12 19:33:03.2520,0.35,-0.41,-0.04
2020-08-12 19:33:03.3520,0.86,-0.39,0.13
2020-08-12 19:33:03.4510,0.92,0.1,0.15
2020-08-12 19:33:03.5500,0.12,-0.19,0.15
2020-08-12 19:33:03.6490,0.16,0.02,0.04
2020-08-12 19:33:03.7490,-0.0,0.03,0.07
2020-08-12 19:33:03.8480,0.01,-0.0,0.01
2020-08-12 19:33:03.9470,0.01,0.01,0.05
2020-08-12 19:33:04.0460,-0.01,0.01,-0.01
2020-08-12 19:33:04.1460,-0.08,-0.03,0.03
2020-08-12 19:33:04.2450,-0.07,-0.07,-0.01
2020-08-12 19:33:04.3450,-0.24,-0.25,0.04
2020-08-12 19:33:04.4440,-0.37,-0.48,0.15
2020-08-12 19:33:04.5430,-0.55,-0.02,0.17
2020-08-12 19:33:04.6430,-0.77,0.22,0.1
2020-08-12 19:33:04.7410,0.04,-0.18,-0.05
2020-08-12 19:33:04.8410,0.46,-0.5,0.23
2020-08-12 19:33:04.9400,1.07,0.2,0.17
2020-08-12 19:33:05.0390,-0.44,-0.52,-0.69
2020-08-12 19:33:05.1380,0.43,0.08,-0.05
2020-08-12 19:33:05.2370,0.01,-0.02,-0.0
2020-08-12 19:33:05.3370,0.02,-0.01,-0.0
2020-08-12 19:33:05.4360,0.01,0.02,0.1
2020-08-12 19:33:05.5350,0.0,-0.0,-0.01
2020-08-12 19:33:05.6340,0.02,0.01,-0.01
2020-08-12 19:33:05.7340,-0.04,-0.0,0.03
2020-08-12 19:33:05.8330,-0.15,-0.18,-0.04
2020-08-12 19:33:05.9320,-0.39,-0.45,0.19
2020-08-12 19:33:06.0310,-0.11,-0.42,0.24
2020-08-12 19:33:06.1310,-0.73,-0.1,0.05
2020-08-12 19:33:06.2300,-0.72,-0.14,0.09
2020-08-12 19:33:06.3290,-0.01,-0.12,-0.04
2020-08-12 19:33:06.4290,0.82,-0.68,0.14
2020-08-12 19:33:06.5280,1.13,0.15,0.21
2020-08-12 19:33:06.6270,-1.08,-0.04,-0.3
2020-08-12 19:33:06.7260,0.25,0.05,-0.0
2020-08-12 19:33:06.8260,-0.06,0.01,0.07
2020-08-12 19:33:06.9250,0.05,-0.0,-0.0
2020-08-12 19:33:07.0240,0.06,-0.02,-0.09
2020-08-12 19:33:07.1230,0.02,0.01,0.01
2020-08-12 19:33:07.2230,0.02,-0.0,0.01
2020-08-12 19:33:07.3220,0.02,0.03,-0.03
2020-08-12 19:33:07.4210,-0.06,-0.2,-0.0
2020-08-12 19:33:07.5200,-0.51,-0.58,-0.01
2020-08-12 19:33:07.6200,-0.47,-0.18,0.19
2020-08-12 19:33:07.7190,-0.76,0.22,0.0
2020-08-12 19:33:07.8180,-0.36,-0.01,0.01
2020-08-12 19:33:07.9170,0.12,-0.4,0.1
2020-08-12 19:33:08.0170,0.94,-0.41,0.06
2020-08-12 19:33:08.1160,0.78,0.06,0.11
2020-08-12 19:33:08.2150,-0.54,-0.14,0.04
2020-08-12 19:33:08.3150,0.28,0.04,-0.04
2020-08-12 19:33:08.4140,0.02,-0.02,-0.0
2020-08-12 19:33:08.5130,0.03,0.0,0.06
2020-08-12 19:33:08.6120,0.02,0.01,0.0
2020-08-12 19:33:08.7120,0.0,-0.0,-0.0
2020-08-12 19:33:08.8110,-0.01,0.01,0.02
2020-08-12 19:33:08.9100,-0.18,-0.05,-0.03
2020-08-12 19:33:09.0100,-0.17,-0.46,0.12
2020-08-12 19:33:09.1090,-0.45,-0.53,0.12
2020-08-12 19:33:09.2080,-0.36,-0.07,0.19
2020-08-12 19:33:09.3070,-0.82,0.17,0.11
2020-08-12 19:33:09.4060,-0.28,-0.07,-0.04
2020-08-12 19:33:09.5050,0.29,-0.55,0.11
2020-08-12 19:33:09.6050,0.92,-0.09,0.12
2020-08-12 19:33:09.7040,0.7,0.09,0.24
2020-08-12 19:33:09.8030,0.54,-0.53,0.22
2020-08-12 19:33:09.9030,0.24,-0.02,0.06
2020-08-12 19:33:10.0020,0.03,0.01,0.02
2020-08-12 19:33:10.1010,0.01,0.01,0.03
2020-08-12 19:33:10.2000,-0.03,0.02,0.06
2020-08-12 19:33:10.3000,0.02,0.0,-0.03
2020-08-12 19:33:10.3990,0.0,0.0,0.02
2020-08-12 19:33:10.4980,0.01,0.0,-0.01
2020-08-12 19:33:10.5970,-0.09,0.0,0.08
2020-08-12 19:33:10.6970,-0.32,-0.45,-0.03
2020-08-12 19:33:10.7960,-0.48,-0.59,0.35
2020-08-12 19:33:10.8960,-0.47,0.31,0.26
2020-08-12 19:33:10.9950,-0.59,0.18,0.17
2020-08-12 19:33:11.0940,0.19,-0.3,0.06
2020-08-12 19:33:11.1930,0.43,-0.34,0.06
2020-08-12 19:33:11.2920,0.58,-0.09,-0.02
2020-08-12 19:33:11.3910,0.58,0.12,0.05
2020-08-12 19:33:11.4910,-1.11,-0.42,-0.67
2020-08-12 19:33:11.5900,0.18,-0.08,-0.14
2020-08-12 19:33:11.6890,-0.01,-0.0,0.1
2020-08-12 19:33:11.7880,-0.02,0.0,0.01
2020-08-12 19:33:11.8880,0.02,0.01,0.04
2020-08-12 19:33:11.9870,-0.03,0.02,0.01
2020-08-12 19:33:12.0860,0.0,0.01,-0.01
2020-08-12 19:33:12.1850,-0.04,0.01,0.02
2020-08-12 19:33:12.2850,0.02,0.0,0.0
2020-08-12 19:33:12.3840,0.02,0.01,0.03
2020-08-12 19:33:12.4830,-0.01,0.02,-0.07
2020-08-12 19:33:12.5830,0.01,-0.0,0.0
2020-08-12 19:33:12.6820,0.0,0.01,0.01
2020-08-12 19:33:12.7810,-0.0,0.01,-0.03
2020-08-12 19:33:12.8800,0.01,0.0,-0.0
2020-08-12 19:33:12.9800,-0.01,0.01,-0.0
2020-08-12 19:33:13.0790,-0.02,0.0,-0.01
2020-08-12 19:33:13.1780,0.0,0.01,-0.0
2020-08-12 19:33:13.2770,-0.02,0.01,0.0
2020-08-12 19:33:13.3770,0.01,-0.0,-0.01
2020-08-12 19:33:13.4760,0.02,-0.0,-0.01
2020-08-12 19:33:13.5750,-0.02,0.01,0.01
2020-08-12 19:33:13.6740,-0.04,0.02,0.01
2020-08-12 19:33:13.7740,0.04,-0.01,-0.01
2020-08-12 19:33:13.8730,0.0,-0.0,0.02
2020-08-12 19:33:13.9720,0.02,0.01,-0.0
2020-08-12 19:33:14.0710,-0.02,0.0,0.0
2020-08-12 19:33:14.1710,-0.02,0.0,0.03
2020-08-12 19:33:14.2700,-0.01,0.0,0.04
2020-08-12 19:33:14.3690,0.02,0.01,0.02
2020-08-12 19:33:14.4690,-0.0,0.02,0.0
2020-08-12 19:33:14.5690,0.04,0.02,0.05
