time,ax,ay,az
2020-08-12 20:10:11.7680,0.01,-0.01,-0.01
2020-08-12 20:10:11.8670,0.01,-0.0,0.0
2020-08-12 20:10:11.9670,0.05,0.02,0.0
2020-08-12 20:10:12.0660,0.04,-0.0,-0.01
2020-08-12 20:10:12.1650,-0.07,0.0,0.03
2020-08-12 20:10:12.2640,0.06,-0.01,0.0
2020-08-12 20:10:12.3630,0.08,0.02,-0.03
2020-08-12 20:10:12.4630,0.06,-0.04,0.04
2020-08-12 20:10:12.5620,-0.02,0.02,0.02
2020-08-12 20:10:12.6610,-0.03,0.03,0.0
2020-08-12 20:10:12.7610,0.04,-0.02,0.01
2020-08-12 20:10:12.8600,-0.01,0.02,0.02
2020-08-12 20:10:12.9590,0.0,-0.01,0.0
2020-08-12 20:10:13.0580,0.02,0.0,-0.01
2020-08-12 20:10:13.1580,-0.05,0.03,0.01
2020-08-12 20:10:13.2570,0.01,-0.01,-0.02
2020-08-12 20:10:13.3560,0.03,0.02,-0.06
2020-08-12 20:10:13.4550,0.06,0.09,-0.05
2020-08-12 20:10:13.5550,0.08,-0.08,0.02
2020-08-12 20:10:13.6540,-0.02,0.0,-0.11
2020-08-12 20:10:13.7530,0.1,0.1,0.07
2020-08-12 20:10:13.8520,-0.0,0.03,-0.01
2020-08-12 20:10:13.9520,0.01,0.04,-0.04
2020-08-12 20:10:14.0510,0.04,0.04,-0.19
2020-08-12 20:10:14.1500,-0.07,-0.11,0.11
2020-08-12 20:10:14.2490,-0.09,0.03,-0.0
2020-08-12 20:10:14.3490,0.01,0.01,-0.01
2020-08-12 20:10:14.4480,-0.0,0.02,0.03
2020-08-12 20:10:14.5470,0.01,0.02,-0.05
2020-08-12 20:10:14.6460,-0.02,-0.07,0.02
2020-08-12 20:10:14.7460,-0.05,-0.1,0.0
2020-08-12 20:10:14.8450,-0.21,-0.39,0.09
2020-08-12 20:10:14.9440,-0.18,-0.06,0.17
2020-08-12 20:10:15.0440,-0.3,-0.09,0.16
2020-08-12 20:10:15.1430,-0.45,0.23,0.06
2020-08-12 20:10:15.2420,-0.18,0.01,-0.08
2020-08-12 20:10:15.3410,0.1,-0.16,-0.15
2020-08-12 20:10:15.4400,0.34,-0.2,-0.07
2020-08-12 20:10:15.5400,0.64,0.0,0.02
2020-08-12 20:10:15.6390,0.53,0.16,0.2
2020-08-12 20:10:15.7380,0.21,-0.5,0.16
2020-08-12 20:10:15.8380,0.32,-0.09,0.02
2020-08-12 20:10:15.9370,0.12,-0.03,0.08
2020-08-12 20:10:16.0360,0.0,-0.01,-0.0
2020-08-12 20:10:16.1350,-0.02,0.0,0.06
2020-08-12 20:10:16.2340,0.07,-0.05,-0.09
2020-08-12 20:10:16.3340,-0.06,0.03,0.05
2020-08-12 20:10:16.4330,-0.1,0.05,0.0
2020-08-12 20:10:16.5320,-0.05,0.0,0.02
2020-08-12 20:10:16.6320,-0.05,-0.06,-0.0
2020-08-12 20:10:16.7300,-0.24,-0.53,0.04
2020-08-12 20:10:16.8300,-0.52,-0.05,0.09
2020-08-12 20:10:16.9290,-0.27,-0.06,0.07
2020-08-12 20:10:17.0280,-0.63,0.09,0.2
2020-08-12 20:10:17.1280,-0.13,-0.08,-0.04
2020-08-12 20:10:17.2270,-0.01,-0.12,-0.05
2020-08-12 20:10:17.3260,0.26,-0.14,-0.01
2020-08-12 20:10:17.4250,0.3,-0.03,0.04
2020-08-12 20:10:17.5250,0.42,0.03,0.03
2020-08-12 20:10:17.6240,0.52,0.08,0.0
2020-08-12 20:10:17.7230,-1.1,-0.15,-0.09
2020-08-12 20:10:17.8230,-0.05,-0.07,0.29
2020-08-12 20:10:17.9220,-0.13,0.07,0.07
2020-08-12 20:10:18.0210,-0.03,-0.01,0.02
2020-08-12 20:10:18.1200,-0.04,0.05,0.08
2020-08-12 20:10:18.2190,0.03,0.02,-0.03
2020-08-12 20:10:18.3190,-0.04,0.01,-0.01
2020-08-12 20:10:18.4180,-0.01,-0.0,0.01
2020-08-12 20:10:18.5170,-0.03,-0.0,-0.02
2020-08-12 20:10:18.6170,-0.03,0.05,0.02
2020-08-12 20:10:18.7160,-0.1,-0.05,0.05
2020-08-12 20:10:18.8150,-0.33,-0.51,-0.13
2020-08-12 20:10:18.9140,-0.03,-0.02,-0.04
2020-08-12 20:10:19.0130,-0.69,0.11,0.15
2020-08-12 20:10:19.1130,-0.23,-0.06,0.0
2020-08-12 20:10:19.2120,-0.02,-0.18,-0.01
2020-08-12 20:10:19.3110,0.04,-0.15,0.0
2020-08-12 20:10:19.4110,0.31,-0.1,-0.0
2020-08-12 20:10:19.5100,0.54,0.06,0.07
2020-08-12 20:10:19.6090,0.63,0.06,0.04
2020-08-12 20:10:19.7080,0.79,-0.36,-0.43
2020-08-12 20:10:19.8080,0.23,0.03,0.04
2020-08-12 20:10:19.9070,0.05,-0.03,0.05
2020-08-12 20:10:20.0060,-0.11,0.04,0.03
2020-08-12 20:10:20.1050,-0.01,0.01,-0.03
2020-08-12 20:10:20.2040,0.0,0.01,0.02
2020-08-12 20:10:20.3040,-0.0,-0.01,0.06
2020-08-12 20:10:20.4030,0.04,0.03,-0.08
2020-08-12 20:10:20.5030,0.16,-0.07,-0.05
2020-08-12 20:10:20.6020,0.03,-0.39,-0.03
2020-08-12 20:10:20.7010,-0.45,-0.05,0.08
2020-08-12 20:10:20.8000,-0.48,-0.09,0.22
2020-08-12 20:10:20.8990,-0.63,0.17,0.14
2020-08-12 20:10:20.9990,-0.12,-0.15,-0.04
2020-08-12 20:10:21.0970,0.07,-0.19,-0.08
2020-08-12 20:10:21.1970,0.31,-0.14,0.07
2020-08-12 20:10:21.2960,0.77,0.04,0.13
2020-08-12 20:10:21.3960,0.55,0.02,0.02
2020-08-12 20:10:21.4950,0.7,-0.23,-0.03
2020-08-12 20:10:21.5940,-0.01,-0.05,-0.14
2020-08-12 20:10:21.6930,-0.05,0.01,0.07
2020-08-12 20:10:21.7930,-0.06,0.02,0.06
2020-08-12 20:10:21.8920,-0.01,0.02,0.02
2020-08-12 20:10:21.9910,0.02,0.0,-0.0
2020-08-12 20:10:22.0890,-0.02,0.02,0.0
2020-08-12 20:10:22.1900,-0.11,0.01,0.04
2020-08-12 20:10:22.2890,-0.09,-0.12,0.01
2020-08-12 20:10:22.3880,-0.5,-0.36,-0.01
2020-08-12 20:10:22.4880,0.14,-0.15,0.06
2020-08-12 20:10:22.5870,-0.72,0.16,0.17
2020-08-12 20:10:22.6860,-0.27,0.05,0.0
2020-08-12 20:10:22.7850,-0.03,-0.16,0.02
2020-08-12 20:10:22.8840,0.22,-0.14,0.12
2020-08-12 20:10:22.9840,0.38,-0.04,0.09
2020-08-12 20:10:23.0830,0.67,0.02,0.01
2020-08-12 20:10:23.1820,-0.03,-0.36,-0.27
2020-08-12 20:10:23.2810,0.34,0.01,-0.08
2020-08-12 20:10:23.3800,0.02,-0.05,-0.07
2020-08-12 20:10:23.4790,-0.04,0.0,0.05
2020-08-12 20:10:23.5780,-0.01,0.01,0.02
2020-08-12 20:10:23.6790,-0.06,-0.0,0.01
2020-08-12 20:10:23.7780,-0.07,0.04,0.0
2020-08-12 20:10:23.8770,-0.11,-0.01,0.05
2020-08-12 20:10:23.9760,-0.1,-0.07,-0.01
2020-08-12 20:10:24.0760,-0.24,-0.54,0.05
2020-08-12 20:10:24.1750,0.09,-0.1,0.07
2020-08-12 20:10:24.2740,-0.6,0.05,0.13
2020-08-12 20:10:24.3730,-0.36,0.13,0.04
2020-08-12 20:10:24.4730,-0.15,-0.17,0.04
2020-08-12 20:10:24.5720,-0.01,-0.17,-0.03
2020-08-12 20:10:24.6710,0.24,-0.12,-0.0
2020-08-12 20:10:24.7700,0.54,-0.02,0.09
2020-08-12 20:10:24.8700,0.74,0.14,0.06
2020-08-12 20:10:24.9680,0.16,-0.7,0.7
2020-08-12 20:10:25.0680,-0.28,0.02,0.34
2020-08-12 20:10:25.1670,-0.08,0.01,0.05
2020-08-12 20:10:25.2660,-0.03,0.0,-0.0
2020-08-12 20:10:25.3660,0.03,-0.0,0.01
2020-08-12 20:10:25.4640,0.07,-0.04,-0.04
2020-08-12 20:10:25.5630,-0.01,-0.02,-0.07
2020-08-12 20:10:25.6640,-0.03,-0.01,0.01
2020-08-12 20:10:25.7630,-0.07,-0.03,-0.02
2020-08-12 20:10:25.8610,-0.33,-0.57,-0.01
2020-08-12 20:10:25.9610,-0.08,-0.04,0.22
2020-08-12 20:10:26.0610,-0.53,0.14,0.05
2020-08-12 20:10:26.1600,-0.4,0.21,0.11
2020-08-12 20:10:26.2590,-0.19,-0.11,0.06
2020-08-12 20:10:26.3580,0.14,-0.17,0.01
2020-08-12 20:10:26.4580,0.19,-0.12,0.04
2020-08-12 20:10:26.5570,0.57,-0.05,0.06
2020-08-12 20:10:26.6560,0.59,0.04,0.02
2020-08-12 20:10:26.7540,0.53,-0.64,0.2
2020-08-12 20:10:26.8550,0.13,0.02,0.04
2020-08-12 20:10:26.9530,-0.07,0.04,0.08
2020-08-12 20:10:27.0530,-0.04,0.02,0.06
2020-08-12 20:10:27.1520,0.07,-0.06,-0.03
2020-08-12 20:10:27.2510,-0.01,0.0,-0.01
2020-08-12 20:10:27.3510,0.02,0.01,-0.01
2020-08-12 20:10:27.4500,-0.04,0.02,0.0
2020-08-12 20:10:27.5500,-0.07,-0.11,0.04
2020-08-12 20:10:27.6480,-0.22,-0.33,-0.06
2020-08-12 20:10:27.7470,-0.13,-0.08,0.15
2020-08-12 20:10:27.8460,-0.63,0.0,0.12
2020-08-12 20:10:27.9470,-0.35,0.08,-0.05
2020-08-12 20:10:28.0450,-0.18,-0.12,0.01
2020-08-12 20:10:28.1450,-0.0,-0.14,-0.02
2020-08-12 20:10:28.2440,0.19,-0.14,0.01
2020-08-12 20:10:28.3440,0.65,-0.02,0.13
2020-08-12 20:10:28.4430,0.86,0.1,0.15
2020-08-12 20:10:28.5410,0.52,-0.69,0.34
2020-08-12 20:10:28.6400,-0.21,0.02,0.16
2020-08-12 20:10:28.7400,-0.11,0.03,0.06
2020-08-12 20:10:28.8390,0.03,0.02,-0.02
2020-08-12 20:10:28.9390,0.01,0.02,0.01
2020-08-12 20:10:29.0370,-0.03,0.0,0.0
2020-08-12 20:10:29.1370,-0.03,0.04,0.02
2020-08-12 20:10:29.2360,-0.03,0.02,0.03
2020-08-12 20:10:29.3350,-0.02,-0.04,0.03
2020-08-12 20:10:29.4350,-0.1,-0.22,0.04
2020-08-12 20:10:29.5350,-0.38,-0.18,0.05
2020-08-12 20:10:29.6340,0.17,-0.07,0.05
2020-08-12 20:10:29.7320,-0.53,0.08,0.15
2020-08-12 20:10:29.8310,-0.37,0.05,0.04
2020-08-12 20:10:29.9310,-0.16,-0.07,-0.01
2020-08-12 20:10:30.0310,-0.03,-0.17,-0.01
2020-08-12 20:10:30.1290,0.23,-0.14,0.03
2020-08-12 20:10:30.2280,0.63,0.01,0.15
2020-08-12 20:10:30.3290,-0.06,-0.62,0.03
2020-08-12 20:10:30.4270,-0.03,-0.04,0.2
2020-08-12 20:10:30.5260,-0.03,-0.05,0.01
2020-08-12 20:10:30.6250,0.04,-0.01,-0.02
2020-08-12 20:10:30.7250,-0.08,0.01,0.03
2020-08-12 20:10:30.8240,-0.05,0.02,0.01
2020-08-12 20:10:30.9240,-0.01,0.03,-0.01
2020-08-12 20:10:31.0230,-0.0,-0.0,0.01
2020-08-12 20:10:31.1230,-0.09,-0.02,0.01
2020-08-12 20:10:31.2220,-0.15,-0.32,0.04
2020-08-12 20:10:31.3200,-0.42,-0.24,0.12
2020-08-12 20:10:31.4200,-0.21,-0.03,-0.01
2020-08-12 20:10:31.5200,-0.51,0.14,0.12
2020-08-12 20:10:31.6190,-0.19,-0.03,-0.04
2020-08-12 20:10:31.7170,0.02,-0.15,-0.04
2020-08-12 20:10:31.8170,0.07,-0.12,-0.01
2020-08-12 20:10:31.9160,0.21,-0.01,-0.01
2020-08-12 20:10:32.0150,0.48,-0.02,0.02
2020-08-12 20:10:32.1140,1.0,-0.05,0.06
2020-08-12 20:10:32.2140,0.4,-0.49,0.34
2020-08-12 20:10:32.3140,-0.06,0.07,0.06
2020-08-12 20:10:32.4130,-0.02,-0.0,0.02
2020-08-12 20:10:32.5120,-0.01,0.0,-0.02
2020-08-12 20:10:32.6110,0.02,0.02,0.01
2020-08-12 20:10:32.7110,0.18,-0.04,-0.11
2020-08-12 20:10:32.8090,0.02,0.04,-0.07
2020-08-12 20:10:32.9090,-0.01,0.01,-0.0
2020-08-12 20:10:33.0080,-0.06,-0.2,0.01
2020-08-12 20:10:33.1070,-0.36,-0.29,0.02
2020-08-12 20:10:33.2070,-0.11,0.01,0.08
2020-08-12 20:10:33.3050,-0.61,0.08,0.2
2020-08-12 20:10:33.4050,-0.21,-0.0,0.07
2020-08-12 20:10:33.5050,-0.13,-0.1,-0.05
2020-08-12 20:10:33.6030,-0.01,-0.14,-0.08
2020-08-12 20:10:33.7030,0.26,-0.13,-0.01
2020-08-12 20:10:33.8020,0.35,0.03,0.01
2020-08-12 20:10:33.9010,0.58,0.05,0.07
2020-08-12 20:10:34.0000,-0.21,-0.28,-0.08
2020-08-12 20:10:34.1000,0.58,-0.14,-0.22
2020-08-12 20:10:34.1990,-0.01,-0.06,-0.08
2020-08-12 20:10:34.2980,-0.04,0.02,0.04
2020-08-12 20:10:34.3980,-0.05,-0.01,0.03
2020-08-12 20:10:34.4960,-0.06,0.0,0.03
2020-08-12 20:10:34.5960,0.03,-0.0,-0.07
2020-08-12 20:10:34.6960,0.08,-0.07,-0.02
2020-08-12 20:10:34.7940,0.05,-0.01,-0.05
2020-08-12 20:10:34.8930,-0.07,-0.2,-0.01
2020-08-12 20:10:34.9930,-0.19,-0.17,-0.0
2020-08-12 20:10:35.0920,-0.07,0.05,0.08
2020-08-12 20:10:35.1910,-0.46,0.05,0.06
2020-08-12 20:10:35.2910,-0.37,0.0,0.03
2020-08-12 20:10:35.3910,-0.14,-0.1,-0.0
2020-08-12 20:10:35.4900,-0.01,-0.18,0.0
2020-08-12 20:10:35.5880,0.12,-0.12,0.06
2020-08-12 20:10:35.6890,0.41,-0.03,0.1
2020-08-12 20:10:35.7870,0.64,0.07,0.03
2020-08-12 20:10:35.8860,0.46,-0.09,-0.02
2020-08-12 20:10:35.9850,0.63,-0.26,-0.21
2020-08-12 20:10:36.0850,-0.03,0.01,-0.02
2020-08-12 20:10:36.1840,-0.03,0.0,0.09
2020-08-12 20:10:36.2840,-0.06,0.03,0.04
2020-08-12 20:10:36.3830,-0.01,0.02,0.0
2020-08-12 20:10:36.4810,-0.04,0.07,-0.0
2020-08-12 20:10:36.5820,-0.05,0.05,0.04
2020-08-12 20:10:36.6800,-0.02,-0.02,-0.01
2020-08-12 20:10:36.7790,-0.07,-0.03,0.09
2020-08-12 20:10:36.8790,-0.1,-0.52,-0.09
2020-08-12 20:10:36.9790,0.05,-0.1,0.13
2020-08-12 20:10:37.0770,-0.55,0.08,0.14
2020-08-12 20:10:37.1760,-0.14,0.08,-0.04
2020-08-12 20:10:37.2750,-0.09,-0.05,-0.01
2020-08-12 20:10:37.3760,0.01,-0.06,-0.06
2020-08-12 20:10:37.4740,0.07,-0.1,0.05
2020-08-12 20:10:37.5730,0.23,-0.07,0.02
2020-08-12 20:10:37.6730,0.26,0.03,0.05
2020-08-12 20:10:37.7720,0.28,0.05,0.03
2020-08-12 20:10:37.8710,0.57,-0.03,-0.06
2020-08-12 20:10:37.9700,0.65,-0.32,-0.17
2020-08-12 20:10:38.0700,0.05,0.01,0.03
2020-08-12 20:10:38.1690,-0.01,-0.0,0.03
2020-08-12 20:10:38.2690,-0.02,-0.01,0.01
2020-08-12 20:10:38.3670,0.02,0.0,-0.0
2020-08-12 20:10:38.4670,0.03,-0.0,0.0
2020-08-12 20:10:38.5670,0.08,0.0,-0.03
2020-08-12 20:10:38.6660,0.09,-0.02,0.0
2020-08-12 20:10:38.7650,-0.04,-0.02,-0.01
2020-08-12 20:10:38.8640,-0.07,-0.13,0.03
2020-08-12 20:10:38.9640,-0.13,-0.12,-0.11
2020-08-12 20:10:39.0620,-0.35,-0.16,0.03
2020-08-12 20:10:39.1610,-0.15,-0.24,0.18
2020-08-12 20:10:39.2610,-0.5,0.09,0.03
2020-08-12 20:10:39.3610,-0.38,0.04,-0.05
2020-08-12 20:10:39.4590,0.06,-0.2,-0.02
2020-08-12 20:10:39.5590,0.28,-0.19,-0.02
2020-08-12 20:10:39.6580,0.65,-0.04,0.04
2020-08-12 20:10:39.7570,0.74,-0.05,0.13
2020-08-12 20:10:39.8570,0.48,-0.41,-0.3
2020-08-12 20:10:39.9550,0.21,-0.02,0.02
2020-08-12 20:10:40.0550,-0.01,0.03,0.04
2020-08-12 20:10:40.1550,0.01,0.0,0.02
2020-08-12 20:10:40.2530,-0.01,0.0,0.0
2020-08-12 20:10:40.3520,0.03,-0.01,-0.01
2020-08-12 20:10:40.4530,0.04,0.0,-0.03
2020-08-12 20:10:40.5520,0.04,-0.01,-0.03
2020-08-12 20:10:40.6500,-0.07,-0.14,0.01
2020-08-12 20:10:40.7490,-0.33,-0.52,0.05
2020-08-12 20:10:40.8500,-0.02,-0.09,0.15
2020-08-12 20:10:40.9480,-0.54,0.05,0.12
2020-08-12 20:10:41.0470,-0.31,0.07,0.03
2020-08-12 20:10:41.1460,-0.18,-0.18,-0.01
2020-08-12 20:10:41.2460,0.0,-0.15,-0.04
2020-08-12 20:10:41.3460,0.21,-0.12,-0.0
2020-08-12 20:10:41.4440,0.52,-0.04,0.11
2020-08-12 20:10:41.5440,0.82,0.09,0.15
2020-08-12 20:10:41.6430,0.38,-0.5,0.17
2020-08-12 20:10:41.7420,0.24,-0.06,0.04
2020-08-12 20:10:41.8410,-0.03,0.02,0.05
2020-08-12 20:10:41.9400,0.0,0.0,0.01
2020-08-12 20:10:42.0410,0.01,-0.03,0.0
2020-08-12 20:10:42.1390,-0.01,0.01,0.02
2020-08-12 20:10:42.2380,-0.05,0.03,0.0
2020-08-12 20:10:42.3380,-0.12,0.03,0.02
2020-08-12 20:10:42.4380,-0.05,-0.06,0.01
2020-08-12 20:10:42.5360,-0.07,-0.44,-0.0
2020-08-12 20:10:42.6350,-0.28,-0.06,0.19
2020-08-12 20:10:42.7350,-0.63,0.17,0.11
2020-08-12 20:10:42.8350,-0.39,0.15,0.05
2020-08-12 20:10:42.9340,-0.2,-0.15,-0.05
2020-08-12 20:10:43.0330,-0.01,-0.11,-0.01
2020-08-12 20:10:43.1320,0.14,-0.12,0.03
2020-08-12 20:10:43.2320,0.4,-0.11,0.05
2020-08-12 20:10:43.3300,0.59,0.04,0.1
2020-08-12 20:10:43.4300,0.22,-0.2,-0.05
2020-08-12 20:10:43.5290,0.35,-0.16,0.0
2020-08-12 20:10:43.6290,-0.02,0.03,0.02
2020-08-12 20:10:43.7270,0.03,-0.01,0.0
2020-08-12 20:10:43.8270,0.05,-0.01,-0.04
2020-08-12 20:10:43.9260,-0.02,-0.01,0.01
2020-08-12 20:10:44.0250,0.01,0.01,0.01
2020-08-12 20:10:44.1240,-0.0,0.01,-0.06
2020-08-12 20:10:44.2230,0.04,-0.03,-0.03
2020-08-12 20:10:44.3230,-0.04,-0.02,0.04
2020-08-12 20:10:44.4220,-0.18,-0.41,0.01
2020-08-12 20:10:44.5210,-0.46,-0.06,0.12
2020-08-12 20:10:44.6210,-0.38,-0.0,0.06
2020-08-12 20:10:44.7200,-0.53,0.15,0.11
2020-08-12 20:10:44.8190,-0.12,-0.09,-0.09
2020-08-12 20:10:44.9190,0.07,-0.2,-0.06
2020-08-12 20:10:45.0180,0.2,-0.14,-0.01
2020-08-12 20:10:45.1170,0.54,-0.1,0.04
2020-08-12 20:10:45.2170,0.67,0.03,0.1
2020-08-12 20:10:45.3160,-0.14,-0.2,0.0
2020-08-12 20:10:45.4150,0.14,0.05,0.21
2020-08-12 20:10:45.5140,-0.04,-0.03,0.04
2020-08-12 20:10:45.6140,-0.03,-0.01,0.03
2020-08-12 20:10:45.7130,-0.07,0.02,0.03
2020-08-12 20:10:45.8110,-0.04,0.03,0.03
2020-08-12 20:10:45.9110,-0.0,0.02,-0.02
2020-08-12 20:10:46.0100,-0.02,-0.01,0.04
2020-08-12 20:10:46.1090,0.01,-0.06,0.04
2020-08-12 20:10:46.2090,-0.14,-0.27,-0.02
2020-08-12 20:10:46.3080,-0.53,-0.33,0.22
2020-08-12 20:10:46.4080,-0.49,0.03,0.02
2020-08-12 20:10:46.5070,-0.56,0.2,0.06
2020-08-12 20:10:46.6060,-0.13,-0.07,-0.06
2020-08-12 20:10:46.7060,0.04,-0.18,-0.02
2020-08-12 20:10:46.8040,0.18,-0.14,0.02
2020-08-12 20:10:46.9040,0.49,-0.13,0.04
2020-08-12 20:10:47.0030,0.72,0.03,0.15
2020-08-12 20:10:47.1020,-0.99,-0.08,-0.25
2020-08-12 20:10:47.2010,0.04,0.0,0.1
2020-08-12 20:10:47.3000,-0.01,-0.06,-0.07
2020-08-12 20:10:47.3990,-0.01,-0.02,0.01
2020-08-12 20:10:47.4990,-0.01,0.01,0.04
2020-08-12 20:10:47.5990,-0.04,-0.01,-0.0
2020-08-12 20:10:47.6980,0.01,-0.01,-0.03
2020-08-12 20:10:47.7970,-0.03,0.02,0.01
2020-08-12 20:10:47.8970,-0.02,-0.01,0.04
2020-08-12 20:10:47.9960,-0.02,-0.05,0.0
2020-08-12 20:10:48.0950,-0.07,-0.19,-0.01
2020-08-12 20:10:48.1940,-0.35,-0.27,0.06
2020-08-12 20:10:48.2930,-0.05,-0.08,0.05
2020-08-12 20:10:48.3920,-0.67,0.15,0.08
2020-08-12 20:10:48.4920,-0.29,-0.06,-0.03
2020-08-12 20:10:48.5910,-0.06,-0.19,-0.03
2020-08-12 20:10:48.6910,0.17,-0.09,0.05
2020-08-12 20:10:48.7890,0.26,-0.05,0.04
2020-08-12 20:10:48.8890,0.53,-0.08,0.09
2020-08-12 20:10:48.9880,0.68,-0.05,0.01
2020-08-12 20:10:49.0870,0.52,-0.47,-0.01
2020-08-12 20:10:49.1860,0.15,0.06,0.27
2020-08-12 20:10:49.2860,-0.0,-0.06,0.05
2020-08-12 20:10:49.3850,0.01,0.0,0.06
2020-08-12 20:10:49.4840,-0.02,0.01,0.05
2020-08-12 20:10:49.5830,-0.08,0.02,0.01
2020-08-12 20:10:49.6830,-0.05,0.01,-0.01
2020-08-12 20:10:49.7820,0.04,0.01,0.0
2020-08-12 20:10:49.8810,0.0,-0.01,-0.02
2020-08-12 20:10:49.9810,-0.05,-0.04,-0.03
2020-08-12 20:10:50.0800,-0.14,-0.74,0.0
2020-08-12 20:10:50.1800,0.0,-0.1,0.18
2020-08-12 20:10:50.2780,-0.67,0.07,0.2
2020-08-12 20:10:50.3780,-0.44,0.26,0.0
2020-08-12 20:10:50.4760,-0.16,-0.1,-0.06
2020-08-12 20:10:50.5760,0.24,-0.23,-0.04
2020-08-12 20:10:50.6760,0.26,-0.09,-0.01
2020-08-12 20:10:50.7750,0.45,-0.02,-0.01
2020-08-12 20:10:50.8740,0.72,-0.01,0.1
2020-08-12 20:10:50.9740,-1.25,0.05,-0.45
2020-08-12 20:10:51.0730,0.39,0.01,-0.13
2020-08-12 20:10:51.1710,-0.02,-0.05,0.09
2020-08-12 20:10:51.2710,0.0,-0.02,0.0
2020-08-12 20:10:51.3710,0.01,0.0,0.01
2020-08-12 20:10:51.4690,0.01,0.02,0.01
2020-08-12 20:10:51.5690,-0.02,-0.02,0.03
2020-08-12 20:10:51.6670,0.04,-0.03,-0.05
2020-08-12 20:10:51.7680,-0.06,0.01,-0.01
2020-08-12 20:10:51.8660,0.03,-0.01,0.01
2020-08-12 20:10:51.9670,-0.05,-0.1,0.04
2020-08-12 20:10:52.0650,-0.18,-0.49,-0.01
2020-08-12 20:10:52.1650,-0.01,-0.12,0.14
2020-08-12 20:10:52.2630,-0.59,0.05,0.04
2020-08-12 20:10:52.3620,-0.46,0.07,-0.02
2020-08-12 20:10:52.4620,-0.16,-0.1,-0.03
2020-08-12 20:10:52.5610,-0.02,-0.11,-0.01
2020-08-12 20:10:52.6610,0.26,-0.12,0.01
2020-08-12 20:10:52.7590,0.5,-0.06,0.05
2020-08-12 20:10:52.8590,0.74,-0.03,0.13
2020-08-12 20:10:52.9590,-0.38,-0.15,0.46
2020-08-12 20:10:53.0570,0.25,-0.04,-0.03
2020-08-12 20:10:53.1570,0.06,-0.05,-0.02
2020-08-12 20:10:53.2560,0.01,-0.0,-0.01
2020-08-12 20:10:53.3560,-0.03,0.0,0.03
2020-08-12 20:10:53.4540,-0.05,0.0,0.05
2020-08-12 20:10:53.5540,-0.02,0.01,0.02
2020-08-12 20:10:53.6530,-0.06,0.03,-0.0
2020-08-12 20:10:53.7520,-0.06,0.05,0.07
2020-08-12 20:10:53.8520,-0.04,-0.07,-0.06
2020-08-12 20:10:53.9510,-0.09,-0.12,-0.05
2020-08-12 20:10:54.0500,-0.33,-0.59,-0.01
2020-08-12 20:10:54.1490,-0.08,-0.07,0.09
2020-08-12 20:10:54.2480,-0.74,0.17,0.12
2020-08-12 20:10:54.3480,-0.31,0.0,-0.1
2020-08-12 20:10:54.4470,-0.03,-0.2,-0.01
2020-08-12 20:10:54.5470,0.1,-0.15,-0.01
2020-08-12 20:10:54.6460,0.33,-0.09,0.03
2020-08-12 20:10:54.7440,0.6,-0.04,0.07
2020-08-12 20:10:54.8440,0.95,0.02,0.16
2020-08-12 20:10:54.9440,0.27,-0.53,-0.1
2020-08-12 20:10:55.0430,0.08,0.01,0.16
2020-08-12 20:10:55.1410,-0.04,0.02,0.05
2020-08-12 20:10:55.2410,-0.01,-0.01,-0.01
2020-08-12 20:10:55.3410,0.06,-0.01,-0.03
2020-08-12 20:10:55.4400,-0.03,0.01,0.02
2020-08-12 20:10:55.5390,0.01,-0.0,0.01
2020-08-12 20:10:55.6390,-0.06,0.03,0.01
2020-08-12 20:10:55.7380,0.01,0.01,-0.05
2020-08-12 20:10:55.8360,-0.08,-0.02,0.08
2020-08-12 20:10:55.9360,-0.19,-0.51,-0.03
2020-08-12 20:10:56.0360,-0.25,-0.02,0.05
2020-08-12 20:10:56.1340,-0.33,-0.03,0.27
2020-08-12 20:10:56.2330,-0.53,0.2,0.11
2020-08-12 20:10:56.3330,-0.28,-0.1,-0.05
2020-08-12 20:10:56.4320,-0.02,-0.2,-0.05
2020-08-12 20:10:56.5310,0.21,-0.17,0.0
2020-08-12 20:10:56.6310,0.54,-0.08,0.11
2020-08-12 20:10:56.7300,0.71,0.03,0.08
2020-08-12 20:10:56.8290,0.56,-0.08,0.0
2020-08-12 20:10:56.9290,0.61,-0.38,-0.06
2020-08-12 20:10:57.0270,-0.1,0.04,0.11
2020-08-12 20:10:57.1270,0.01,0.01,0.01
2020-08-12 20:10:57.2260,0.02,0.0,-0.02
2020-08-12 20:10:57.3260,0.04,-0.01,0.02
2020-08-12 20:10:57.4250,0.01,0.01,0.03
2020-08-12 20:10:57.5240,-0.02,0.01,0.02
2020-08-12 20:10:57.6240,-0.04,0.01,0.01
2020-08-12 20:10:57.7230,-0.01,-0.02,0.01
2020-08-12 20:10:57.8210,-0.02,-0.03,-0.0
2020-08-12 20:10:57.9210,-0.09,-0.24,-0.01
2020-08-12 20:10:58.0210,-0.33,-0.32,-0.03
2020-08-12 20:10:58.1200,-0.07,-0.22,0.11
2020-08-12 20:10:58.2180,-0.72,0.1,0.13
2020-08-12 20:10:58.3190,-0.49,0.05,-0.05
2020-08-12 20:10:58.4180,-0.05,-0.15,-0.03
2020-08-12 20:10:58.5160,0.25,-0.13,-0.04
2020-08-12 20:10:58.6160,0.3,-0.11,-0.03
2020-08-12 20:10:58.7150,0.63,-0.06,0.11
2020-08-12 20:10:58.8140,0.64,-0.06,0.09
2020-08-12 20:10:58.9140,0.34,-0.33,-0.15
2020-08-12 20:10:59.0130,-0.01,0.03,-0.01
2020-08-12 20:10:59.1120,-0.01,0.02,0.05
2020-08-12 20:10:59.2110,-0.0,0.02,0.03
2020-08-12 20:10:59.3110,0.18,-0.14,-0.14
2020-08-12 20:10:59.4100,0.04,0.03,-0.01
2020-08-12 20:10:59.5100,0.04,0.01,-0.02
2020-08-12 20:10:59.6090,0.03,-0.03,-0.08
2020-08-12 20:10:59.7070,-0.03,-0.02,0.03
2020-08-12 20:10:59.8070,-0.13,-0.4,-0.06
2020-08-12 20:10:59.9070,-0.41,-0.12,0.15
2020-08-12 20:11:00.0060,-0.25,-0.06,0.27
2020-08-12 20:11:00.1050,-0.63,0.18,0.12
2020-08-12 20:11:00.2040,-0.31,-0.05,-0.11
2020-08-12 20:11:00.3030,0.14,-0.24,-0.06
2020-08-12 20:11:00.4030,0.25,-0.23,0.02
2020-08-12 20:11:00.5020,0.63,-0.13,0.04
2020-08-12 20:11:00.6010,0.83,0.01,0.17
2020-08-12 20:11:00.7000,-1.26,0.18,0.04
2020-08-12 20:11:00.8000,0.24,-0.13,0.2
2020-08-12 20:11:00.8990,-0.02,-0.03,0.05
2020-08-12 20:11:00.9970,-0.01,0.0,0.05
2020-08-12 20:11:01.0970,0.02,-0.01,-0.03
2020-08-12 20:11:01.1960,0.05,-0.03,-0.01
2020-08-12 20:11:01.2950,0.04,-0.03,-0.04
2020-08-12 20:11:01.3940,0.0,0.02,-0.05
2020-08-12 20:11:01.4950,-0.06,0.01,0.02
2020-08-12 20:11:01.5940,-0.08,-0.06,-0.07
2020-08-12 20:11:01.6930,-0.31,-0.71,0.01
2020-08-12 20:11:01.7910,-0.01,-0.26,0.15
2020-08-12 20:11:01.8920,-0.68,0.11,0.06
2020-08-12 20:11:01.9910,-0.48,0.14,0.02
2020-08-12 20:11:02.0900,-0.12,-0.11,0.0
2020-08-12 20:11:02.1890,0.18,-0.18,0.07
2020-08-12 20:11:02.2880,0.41,-0.14,0.07
2020-08-12 20:11:02.3870,0.52,-0.01,0.06
2020-08-12 20:11:02.4870,0.92,-0.03,0.02
2020-08-12 20:11:02.5850,0.45,-0.47,0.09
2020-08-12 20:11:02.6860,-0.2,0.09,0.04
2020-08-12 20:11:02.7840,-0.12,0.02,0.06
2020-08-12 20:11:02.8830,-0.03,-0.01,0.02
2020-08-12 20:11:02.9830,-0.01,0.03,0.01
2020-08-12 20:11:03.0830,0.04,0.0,-0.01
2020-08-12 20:11:03.1820,-0.02,-0.02,-0.01
2020-08-12 20:11:03.2800,0.0,-0.1,-0.04
2020-08-12 20:11:03.3790,-0.34,-0.5,0.04
2020-08-12 20:11:03.4800,-0.4,-0.1,0.42
2020-08-12 20:11:03.5780,-0.91,0.27,-0.01
2020-08-12 20:11:03.6770,-0.58,0.17,-0.01
2020-08-12 20:11:03.7780,-0.04,-0.15,-0.03
2020-08-12 20:11:03.8770,0.32,-0.15,-0.03
2020-08-12 20:11:03.9750,0.5,-0.24,-0.01
2020-08-12 20:11:04.0740,0.87,-0.06,0.12
2020-08-12 20:11:04.1750,-0.99,0.03,-0.16
2020-08-12 20:11:04.2740,0.36,-0.02,0.08
2020-08-12 20:11:04.3720,0.22,-0.06,-0.02
2020-08-12 20:11:04.4710,0.06,-0.02,0.01
2020-08-12 20:11:04.5710,-0.01,-0.0,0.02
2020-08-12 20:11:04.6710,-0.0,0.01,0.0
2020-08-12 20:11:04.7690,-0.01,0.02,0.0
2020-08-12 20:11:04.8690,0.01,-0.01,-0.03
2020-08-12 20:11:04.9680,-0.02,-0.09,-0.03
2020-08-12 20:11:05.0670,-0.18,-0.49,-0.01
2020-08-12 20:11:05.1660,-0.31,-0.29,0.36
2020-08-12 20:11:05.2660,-0.62,0.02,-0.01
2020-08-12 20:11:05.3640,-0.58,0.26,0.05
2020-08-12 20:11:05.4640,-0.0,-0.09,-0.1
2020-08-12 20:11:05.5640,0.3,-0.15,-0.09
2020-08-12 20:11:05.6620,0.34,-0.1,-0.05
2020-08-12 20:11:05.7630,0.57,-0.11,0.06
2020-08-12 20:11:05.8610,0.88,0.08,0.12
2020-08-12 20:11:05.9610,0.47,-0.47,-0.15
2020-08-12 20:11:06.0590,0.09,-0.06,0.15
2020-08-12 20:11:06.1600,-0.03,-0.0,0.08
2020-08-12 20:11:06.2590,-0.01,-0.01,-0.01
2020-08-12 20:11:06.3580,0.01,0.01,-0.03
2020-08-12 20:11:06.4560,-0.05,0.01,0.01
2020-08-12 20:11:06.5560,-0.02,0.0,0.02
2020-08-12 20:11:06.6550,-0.02,-0.01,0.01
2020-08-12 20:11:06.7550,-0.01,-0.02,-0.06
2020-08-12 20:11:06.8540,-0.09,-0.33,0.05
2020-08-12 20:11:06.9520,-0.45,-0.33,0.17
2020-08-12 20:11:07.0520,-0.37,-0.15,-0.02
2020-08-12 20:11:07.1510,-0.53,0.15,0.09
2020-08-12 20:11:07.2510,-0.26,0.08,-0.06
2020-08-12 20:11:07.3500,0.02,-0.02,-0.03
2020-08-12 20:11:07.4500,0.31,-0.06,0.02
2020-08-12 20:11:07.5490,0.5,-0.1,-0.03
2020-08-12 20:11:07.6480,0.62,-0.02,0.06
2020-08-12 20:11:07.7470,-1.31,-0.14,-0.54
2020-08-12 20:11:07.8470,0.13,-0.03,0.04
2020-08-12 20:11:07.9460,0.13,-0.06,-0.01
2020-08-12 20:11:08.0450,-0.01,0.0,0.03
2020-08-12 20:11:08.1450,-0.07,0.02,0.04
2020-08-12 20:11:08.2440,0.0,0.01,0.02
2020-08-12 20:11:08.3430,-0.01,0.01,0.02
2020-08-12 20:11:08.4410,-0.04,0.03,0.0
2020-08-12 20:11:08.5420,-0.03,0.04,0.05
2020-08-12 20:11:08.6400,-0.06,-0.07,-0.05
2020-08-12 20:11:08.7390,-0.34,-0.59,0.07
2020-08-12 20:11:08.8390,-0.11,-0.24,0.19
2020-08-12 20:11:08.9380,-0.66,0.12,0.08
2020-08-12 20:11:09.0380,-0.43,0.09,-0.03
2020-08-12 20:11:09.1360,-0.03,-0.21,-0.03
2020-08-12 20:11:09.2360,0.28,-0.13,-0.0
2020-08-12 20:11:09.3350,0.49,-0.12,-0.01
2020-08-12 20:11:09.4350,0.81,-0.01,0.13
2020-08-12 20:11:09.5340,-1.17,-0.13,-0.58
2020-08-12 20:11:09.6330,0.36,-0.09,-0.04
2020-08-12 20:11:09.7330,0.01,-0.06,0.04
2020-08-12 20:11:09.8310,-0.04,-0.0,0.06
2020-08-12 20:11:09.9310,-0.01,-0.01,0.02
2020-08-12 20:11:10.0300,-0.01,0.01,0.02
2020-08-12 20:11:10.1290,-0.04,0.01,0.01
2020-08-12 20:11:10.2290,-0.01,0.03,-0.02
2020-08-12 20:11:10.3280,-0.01,-0.01,0.02
2020-08-12 20:11:10.4260,-0.03,-0.07,-0.04
2020-08-12 20:11:10.5260,-0.21,-0.43,-0.03
2020-08-12 20:11:10.6250,-0.5,-0.12,0.39
2020-08-12 20:11:10.7240,-0.65,-0.02,0.07
2020-08-12 20:11:10.8240,-0.56,0.27,0.07
2020-08-12 20:11:10.9240,-0.13,-0.07,-0.06
2020-08-12 20:11:11.0220,0.27,-0.17,-0.05
2020-08-12 20:11:11.1220,0.32,-0.1,-0.08
2020-08-12 20:11:11.2210,0.66,-0.1,0.06
2020-08-12 20:11:11.3210,0.99,-0.21,0.11
2020-08-12 20:11:11.4190,0.37,-0.16,-0.07
2020-08-12 20:11:11.5190,0.14,-0.08,-0.08
2020-08-12 20:11:11.6180,-0.01,-0.02,0.02
2020-08-12 20:11:11.7170,-0.01,0.0,0.02
2020-08-12 20:11:11.8160,-0.03,-0.01,0.04
2020-08-12 20:11:11.9160,-0.02,-0.01,0.01
2020-08-12 20:11:12.0150,-0.03,0.01,-0.02
2020-08-12 20:11:12.1150,-0.05,-0.0,0.02
2020-08-12 20:11:12.2140,-0.1,-0.08,-0.07
2020-08-12 20:11:12.3130,-0.28,-0.74,0.05
2020-08-12 20:11:12.4120,-0.34,-0.16,0.24
2020-08-12 20:11:12.5120,-0.8,0.09,0.0
2020-08-12 20:11:12.6100,-0.52,0.25,0.02
2020-08-12 20:11:12.7090,0.02,-0.29,-0.0
2020-08-12 20:11:12.8100,0.24,-0.26,0.03
2020-08-12 20:11:12.9090,0.46,-0.2,-0.03
2020-08-12 20:11:13.0070,0.88,-0.02,0.04
2020-08-12 20:11:13.1060,-0.28,-0.3,-0.04
2020-08-12 20:11:13.2060,0.29,-0.08,-0.18
2020-08-12 20:11:13.3050,0.12,-0.05,-0.02
2020-08-12 20:11:13.4040,-0.01,0.01,0.03
2020-08-12 20:11:13.5040,-0.0,0.01,0.01
2020-08-12 20:11:13.6040,0.01,-0.03,0.01
2020-08-12 20:11:13.7030,-0.01,0.02,-0.02
2020-08-12 20:11:13.8020,-0.03,0.04,-0.01
2020-08-12 20:11:13.9010,-0.08,0.05,0.07
2020-08-12 20:11:14.0000,-0.08,-0.07,-0.0
2020-08-12 20:11:14.0990,-0.27,-0.44,0.02
2020-08-12 20:11:14.1990,-0.18,-0.22,0.28
2020-08-12 20:11:14.2970,-0.67,0.14,-0.04
2020-08-12 20:11:14.3980,-0.57,0.16,-0.01
2020-08-12 20:11:14.4960,-0.09,-0.2,0.02
2020-08-12 20:11:14.5960,0.24,-0.14,0.03
2020-08-12 20:11:14.6940,0.41,-0.19,0.07
2020-08-12 20:11:14.7940,0.71,-0.01,0.04
2020-08-12 20:11:14.8940,-0.19,-0.5,-0.18
2020-08-12 20:11:14.9930,0.09,0.01,0.13
2020-08-12 20:11:15.0910,-0.03,-0.05,-0.05
2020-08-12 20:11:15.1920,-0.03,-0.02,0.01
2020-08-12 20:11:15.2900,-0.03,0.01,0.02
2020-08-12 20:11:15.3900,-0.01,0.02,0.0
2020-08-12 20:11:15.4890,-0.0,0.03,-0.0
2020-08-12 20:11:15.5890,-0.02,-0.02,-0.01
2020-08-12 20:11:15.6870,-0.05,-0.06,0.03
2020-08-12 20:11:15.7870,-0.09,-0.14,-0.03
2020-08-12 20:11:15.8850,-0.48,-0.56,0.07
2020-08-12 20:11:15.9850,-0.02,-0.09,0.0
2020-08-12 20:11:16.0840,-0.65,0.1,0.02
2020-08-12 20:11:16.1840,-0.38,0.03,-0.1
2020-08-12 20:11:16.2830,0.06,-0.28,0.04
2020-08-12 20:11:16.3830,0.27,-0.13,0.05
2020-08-12 20:11:16.4810,0.46,-0.14,0.08
2020-08-12 20:11:16.5810,0.74,-0.01,0.05
2020-08-12 20:11:16.6790,-0.18,-0.29,-0.22
2020-08-12 20:11:16.7790,0.35,-0.03,-0.32
2020-08-12 20:11:16.8790,0.29,-0.14,-0.19
2020-08-12 20:11:16.9770,0.19,-0.03,0.03
2020-08-12 20:11:17.0760,-0.03,0.03,0.04
2020-08-12 20:11:17.1760,-0.06,0.02,0.01
2020-08-12 20:11:17.2760,-0.04,0.02,0.03
2020-08-12 20:11:17.3740,0.04,0.01,-0.02
2020-08-12 20:11:17.4740,-0.05,0.0,0.02
2020-08-12 20:11:17.5740,-0.09,-0.01,0.02
2020-08-12 20:11:17.6730,-0.13,-0.18,-0.03
2020-08-12 20:11:17.7710,-0.44,-0.65,0.0
2020-08-12 20:11:17.8710,0.04,-0.09,0.07
2020-08-12 20:11:17.9710,-0.83,0.24,0.13
2020-08-12 20:11:18.0700,-0.51,0.14,0.18
2020-08-12 20:11:18.1680,-0.09,-0.27,0.15
2020-08-12 20:11:18.2680,0.31,-0.25,0.11
2020-08-12 20:11:18.3670,0.43,-0.15,-0.03
2020-08-12 20:11:18.4670,0.73,-0.02,0.03
2020-08-12 20:11:18.5650,0.86,0.06,0.09
2020-08-12 20:11:18.6640,0.42,-0.91,-0.17
2020-08-12 20:11:18.7640,-0.1,0.06,0.21
2020-08-12 20:11:18.8630,-0.0,-0.03,0.01
2020-08-12 20:11:18.9620,-0.0,0.03,0.02
2020-08-12 20:11:19.0620,-0.07,0.05,0.09
2020-08-12 20:11:19.1610,-0.1,0.05,0.09
2020-08-12 20:11:19.2610,-0.05,0.02,0.04
2020-08-12 20:11:19.3590,0.07,-0.03,-0.04
2020-08-12 20:11:19.4590,0.04,-0.08,-0.02
2020-08-12 20:11:19.5580,-0.04,-0.12,-0.05
2020-08-12 20:11:19.6570,-0.3,-0.5,-0.03
2020-08-12 20:11:19.7570,-0.21,-0.28,0.34
2020-08-12 20:11:19.8560,-0.71,-0.02,0.03
2020-08-12 20:11:19.9550,-0.58,0.18,0.03
2020-08-12 20:11:20.0540,-0.07,-0.22,-0.01
2020-08-12 20:11:20.1530,0.26,-0.11,-0.05
2020-08-12 20:11:20.2530,0.59,0.02,-0.04
2020-08-12 20:11:20.3530,0.54,0.0,-0.05
2020-08-12 20:11:20.4520,0.59,-0.06,0.01
2020-08-12 20:11:20.5510,-1.39,-0.12,0.16
2020-08-12 20:11:20.6510,0.15,-0.1,0.14
2020-08-12 20:11:20.7490,-0.03,0.01,0.01
2020-08-12 20:11:20.8490,-0.02,-0.03,-0.01
2020-08-12 20:11:20.9480,-0.03,0.03,0.05
2020-08-12 20:11:21.0470,0.02,0.01,0.06
2020-08-12 20:11:21.1470,-0.05,0.02,-0.01
2020-08-12 20:11:21.2460,-0.03,0.02,0.0
2020-08-12 20:11:21.3440,-0.01,0.06,0.04
2020-08-12 20:11:21.4450,-0.06,-0.04,0.01
2020-08-12 20:11:21.5440,-0.11,-0.13,0.03
2020-08-12 20:11:21.6420,-0.25,-0.34,0.06
2020-08-12 20:11:21.7420,-0.13,-0.39,0.08
2020-08-12 20:11:21.8420,-0.62,-0.17,0.14
2020-08-12 20:11:21.9400,-0.49,0.22,0.01
2020-08-12 20:11:22.0400,-0.22,-0.11,-0.01
2020-08-12 20:11:22.1380,0.16,-0.15,-0.07
2020-08-12 20:11:22.2380,0.52,-0.13,-0.01
2020-08-12 20:11:22.3380,0.76,-0.07,0.07
2020-08-12 20:11:22.4370,0.76,0.0,0.1
2020-08-12 20:11:22.5360,0.38,-0.47,-0.11
2020-08-12 20:11:22.6360,0.18,-0.01,0.07
2020-08-12 20:11:22.7350,0.05,0.01,0.08
2020-08-12 20:11:22.8340,0.07,-0.05,-0.02
2020-08-12 20:11:22.9330,-0.01,-0.01,0.03
2020-08-12 20:11:23.0330,-0.02,0.02,0.01
2020-08-12 20:11:23.1310,-0.03,0.02,0.02
2020-08-12 20:11:23.2310,-0.04,0.01,0.0
2020-08-12 20:11:23.3300,0.03,-0.06,-0.05
2020-08-12 20:11:23.4300,-0.08,-0.35,-0.03
2020-08-12 20:11:23.5290,-0.46,-0.27,0.09
2020-08-12 20:11:23.6270,-0.09,-0.06,0.11
2020-08-12 20:11:23.7270,-0.6,0.12,0.18
2020-08-12 20:11:23.8260,-0.37,0.04,-0.09
2020-08-12 20:11:23.9260,-0.02,-0.14,-0.07
2020-08-12 20:11:24.0250,0.19,-0.28,-0.04
2020-08-12 20:11:24.1240,0.71,-0.04,-0.03
2020-08-12 20:11:24.2230,0.89,-0.03,0.17
2020-08-12 20:11:24.3230,0.14,-0.49,0.28
2020-08-12 20:11:24.4220,0.04,0.0,0.14
2020-08-12 20:11:24.5220,0.05,0.0,0.02
2020-08-12 20:11:24.6210,0.05,-0.02,-0.02
2020-08-12 20:11:24.7200,-0.01,0.0,0.03
2020-08-12 20:11:24.8190,-0.06,0.03,0.04
2020-08-12 20:11:24.9180,-0.0,0.03,-0.01
2020-08-12 20:11:25.0170,-0.01,0.01,0.0
2020-08-12 20:11:25.1170,-0.0,-0.05,0.02
2020-08-12 20:11:25.2160,-0.16,-0.33,-0.01
2020-08-12 20:11:25.3160,-0.44,-0.29,0.09
2020-08-12 20:11:25.4150,-0.45,-0.04,0.03
2020-08-12 20:11:25.5140,-0.59,0.19,0.13
2020-08-12 20:11:25.6130,-0.18,-0.03,-0.06
2020-08-12 20:11:25.7120,0.09,-0.16,0.05
2020-08-12 20:11:25.8110,0.25,-0.25,0.02
2020-08-12 20:11:25.9100,0.72,-0.08,-0.01
2020-08-12 20:11:26.0100,0.78,-0.01,0.09
2020-08-12 20:11:26.1100,0.32,-0.65,0.02
2020-08-12 20:11:26.2090,0.12,-0.05,0.11
2020-08-12 20:11:26.3080,0.03,-0.01,0.05
2020-08-12 20:11:26.4070,-0.03,0.0,0.01
2020-08-12 20:11:26.5070,0.01,0.01,0.01
2020-08-12 20:11:26.6060,-0.01,0.01,0.03
2020-08-12 20:11:26.7050,-0.03,0.01,-0.02
2020-08-12 20:11:26.8040,-0.01,-0.0,0.04
2020-08-12 20:11:26.9040,-0.05,-0.04,0.05
2020-08-12 20:11:27.0030,-0.17,-0.26,0.0
2020-08-12 20:11:27.1020,-0.46,-0.42,0.03
2020-08-12 20:11:27.2000,-0.1,-0.09,0.09
2020-08-12 20:11:27.3010,-0.59,0.2,0.12
2020-08-12 20:11:27.4000,-0.3,0.08,-0.05
2020-08-12 20:11:27.4980,0.07,-0.23,0.04
2020-08-12 20:11:27.5970,0.24,-0.15,0.02
2020-08-12 20:11:27.6980,0.47,-0.17,-0.03
2020-08-12 20:11:27.7970,0.86,-0.03,0.15
2020-08-12 20:11:27.8960,-1.07,-0.02,-0.68
2020-08-12 20:11:27.9940,0.18,-0.1,0.15
2020-08-12 20:11:28.0940,0.05,-0.06,-0.04
2020-08-12 20:11:28.1940,-0.0,-0.04,0.04
2020-08-12 20:11:28.2930,0.02,0.02,0.03
2020-08-12 20:11:28.3910,-0.0,0.03,0.05
2020-08-12 20:11:28.4920,0.08,-0.05,-0.09
2020-08-12 20:11:28.5910,0.04,-0.0,-0.03
2020-08-12 20:11:28.6890,-0.02,-0.01,0.02
2020-08-12 20:11:28.7890,-0.02,-0.07,-0.05
2020-08-12 20:11:28.8890,-0.25,-0.31,-0.02
2020-08-12 20:11:28.9880,-0.46,-0.25,0.11
2020-08-12 20:11:29.0870,-0.3,-0.02,0.07
2020-08-12 20:11:29.1860,-0.65,0.21,0.1
2020-08-12 20:11:29.2850,-0.15,-0.16,-0.15
2020-08-12 20:11:29.3840,0.11,-0.23,-0.09
2020-08-12 20:11:29.4830,0.43,-0.24,-0.05
2020-08-12 20:11:29.5830,1.1,-0.08,0.13
2020-08-12 20:11:29.6830,0.28,-0.28,-0.01
2020-08-12 20:11:29.7820,0.59,-0.29,0.14
2020-08-12 20:11:29.8800,0.01,-0.01,-0.01
2020-08-12 20:11:29.9800,-0.01,-0.01,0.02
2020-08-12 20:11:30.0790,0.0,0.01,-0.01
2020-08-12 20:11:30.1790,-0.02,-0.0,0.01
2020-08-12 20:11:30.2770,-0.0,0.01,-0.02
2020-08-12 20:11:30.3770,0.01,0.03,-0.04
2020-08-12 20:11:30.4760,0.0,-0.06,0.0
2020-08-12 20:11:30.5760,-0.09,-0.09,0.02
2020-08-12 20:11:30.6750,-0.24,-0.56,0.03
2020-08-12 20:11:30.7740,-0.24,-0.17,0.19
2020-08-12 20:11:30.8740,-0.8,0.06,0.07
2020-08-12 20:11:30.9730,-0.46,0.2,0.04
2020-08-12 20:11:31.0720,0.05,-0.24,-0.03
2020-08-12 20:11:31.1710,0.25,-0.11,-0.01
2020-08-12 20:11:31.2710,0.37,-0.11,-0.04
2020-08-12 20:11:31.3700,0.52,-0.05,0.09
2020-08-12 20:11:31.4680,0.69,0.03,0.18
2020-08-12 20:11:31.5680,-0.14,-0.19,-0.05
2020-08-12 20:11:31.6680,0.2,0.06,0.16
2020-08-12 20:11:31.7660,0.04,-0.04,0.01
2020-08-12 20:11:31.8650,0.05,-0.02,-0.0
2020-08-12 20:11:31.9650,0.03,0.0,0.05
2020-08-12 20:11:32.0640,-0.01,0.0,0.0
2020-08-12 20:11:32.1640,-0.02,0.03,0.0
2020-08-12 20:11:32.2630,-0.02,-0.01,0.02
2020-08-12 20:11:32.3620,-0.04,-0.04,0.02
2020-08-12 20:11:32.4620,-0.12,-0.16,-0.01
2020-08-12 20:11:32.5610,-0.36,-0.62,0.02
2020-08-12 20:11:32.6600,0.07,-0.2,0.17
2020-08-12 20:11:32.7600,-1.0,0.16,-0.02
2020-08-12 20:11:32.8590,-0.5,0.16,0.06
2020-08-12 20:11:32.9580,-0.05,-0.2,0.04
2020-08-12 20:11:33.0560,0.37,-0.2,0.11
2020-08-12 20:11:33.1560,0.57,-0.11,0.04
2020-08-12 20:11:33.2560,0.78,-0.04,0.05
2020-08-12 20:11:33.3550,-0.02,-0.27,0.06
2020-08-12 20:11:33.4540,0.37,-0.1,0.13
2020-08-12 20:11:33.5520,0.11,-0.05,0.04
2020-08-12 20:11:33.6530,0.03,-0.01,0.0
2020-08-12 20:11:33.7510,-0.02,-0.0,0.05
2020-08-12 20:11:33.8510,-0.02,0.02,0.02
2020-08-12 20:11:33.9500,-0.01,0.02,-0.02
2020-08-12 20:11:34.0490,-0.04,0.02,0.08
2020-08-12 20:11:34.1490,-0.05,-0.08,-0.03
2020-08-12 20:11:34.2480,-0.28,-0.42,0.02
2020-08-12 20:11:34.3470,-0.48,-0.24,0.12
2020-08-12 20:11:34.4470,-0.48,0.08,0.06
2020-08-12 20:11:34.5460,-0.61,0.26,0.09
2020-08-12 20:11:34.6450,-0.24,-0.06,-0.12
2020-08-12 20:11:34.7450,0.14,-0.27,0.0
2020-08-12 20:11:34.8440,0.37,-0.2,-0.05
2020-08-12 20:11:34.9430,0.64,-0.1,0.03
2020-08-12 20:11:35.0420,0.98,-0.09,0.16
2020-08-12 20:11:35.1420,0.3,-0.29,0.12
2020-08-12 20:11:35.2410,-0.18,0.05,0.07
2020-08-12 20:11:35.3390,-0.05,0.04,0.03
2020-08-12 20:11:35.4380,0.01,-0.01,0.01
2020-08-12 20:11:35.5380,0.01,0.0,0.01
2020-08-12 20:11:35.6380,0.01,0.01,-0.01
2020-08-12 20:11:35.7370,-0.03,0.0,0.01
2020-08-12 20:11:35.8350,-0.05,0.01,0.01
2020-08-12 20:11:35.9350,-0.05,-0.09,-0.09
2020-08-12 20:11:36.0340,-0.25,-0.32,-0.01
2020-08-12 20:11:36.1340,-0.31,-0.23,0.28
2020-08-12 20:11:36.2330,-0.67,0.02,0.08
2020-08-12 20:11:36.3320,-0.53,0.25,0.03
2020-08-12 20:11:36.4310,-0.12,-0.14,0.0
2020-08-12 20:11:36.5310,0.23,-0.21,-0.02
2020-08-12 20:11:36.6290,0.28,-0.17,0.01
2020-08-12 20:11:36.7300,0.75,-0.02,0.07
2020-08-12 20:11:36.8290,0.86,-0.02,0.11
2020-08-12 20:11:36.9280,0.6,-0.28,-0.17
2020-08-12 20:11:37.0270,0.08,0.01,-0.02
2020-08-12 20:11:37.1270,-0.0,0.01,0.07
2020-08-12 20:11:37.2260,0.01,0.02,0.02
2020-08-12 20:11:37.3250,0.02,-0.01,0.02
2020-08-12 20:11:37.4240,-0.07,0.05,0.02
2020-08-12 20:11:37.5240,-0.06,0.06,0.07
2020-08-12 20:11:37.6230,-0.03,-0.02,-0.01
2020-08-12 20:11:37.7220,-0.08,-0.08,-0.05
2020-08-12 20:11:37.8210,-0.32,-0.54,0.03
2020-08-12 20:11:37.9210,-0.32,-0.29,0.38
2020-08-12 20:11:38.0190,-0.57,0.03,0.03
2020-08-12 20:11:38.1180,-0.57,0.27,0.05
2020-08-12 20:11:38.2180,-0.02,-0.3,-0.16
2020-08-12 20:11:38.3180,0.2,-0.34,-0.09
2020-08-12 20:11:38.4170,0.72,-0.35,0.0
2020-08-12 20:11:38.5160,0.85,-0.0,0.08
2020-08-12 20:11:38.6150,-0.89,-0.15,-0.19
2020-08-12 20:11:38.7150,0.04,0.01,0.22
2020-08-12 20:11:38.8140,0.05,-0.04,0.01
2020-08-12 20:11:38.9130,-0.0,-0.01,0.06
2020-08-12 20:11:39.0120,-0.01,0.01,0.03
2020-08-12 20:11:39.1120,-0.03,-0.01,0.01
2020-08-12 20:11:39.2100,-0.01,-0.01,0.01
2020-08-12 20:11:39.3100,0.02,-0.02,-0.0
2020-08-12 20:11:39.4090,-0.01,-0.03,-0.06
2020-08-12 20:11:39.5090,-0.13,-0.19,0.02
2020-08-12 20:11:39.6070,-0.44,-0.47,-0.0
2020-08-12 20:11:39.7070,-0.03,-0.21,0.22
2020-08-12 20:11:39.8070,-0.64,0.16,0.15
2020-08-12 20:11:39.9060,-0.46,0.12,0.03
2020-08-12 20:11:40.0050,-0.03,-0.3,0.06
2020-08-12 20:11:40.1040,0.33,-0.26,0.11
2020-08-12 20:11:40.2030,0.67,-0.13,0.07
2020-08-12 20:11:40.3020,0.85,0.02,0.0
2020-08-12 20:11:40.4020,-0.15,-0.31,0.07
2020-08-12 20:11:40.5010,0.14,-0.01,0.26
2020-08-12 20:11:40.6000,0.01,-0.04,0.02
2020-08-12 20:11:40.7000,-0.02,0.0,0.04
2020-08-12 20:11:40.7990,-0.01,0.03,0.04
2020-08-12 20:11:40.8980,0.01,0.01,-0.02
2020-08-12 20:11:40.9970,0.03,-0.02,-0.05
2020-08-12 20:11:41.0970,0.01,-0.0,0.0
2020-08-12 20:11:41.1960,0.02,-0.01,-0.01
2020-08-12 20:11:41.2940,-0.05,-0.12,-0.01
2020-08-12 20:11:41.3940,-0.26,-0.62,0.02
2020-08-12 20:11:41.4940,-0.05,-0.14,0.16
2020-08-12 20:11:41.5920,-0.71,0.1,0.07
2020-08-12 20:11:41.6910,-0.5,0.17,0.0
2020-08-12 20:11:41.7910,-0.1,-0.22,0.06
2020-08-12 20:11:41.8900,0.2,-0.15,0.06
2020-08-12 20:11:41.9900,0.42,-0.11,0.07
2020-08-12 20:11:42.0880,0.63,-0.07,0.05
2020-08-12 20:11:42.1880,0.77,-0.11,-0.01
2020-08-12 20:11:42.2880,0.54,-0.44,-0.1
2020-08-12 20:11:42.3860,-0.01,0.08,0.04
2020-08-12 20:11:42.4850,0.04,-0.0,0.01
2020-08-12 20:11:42.5850,-0.0,0.0,0.01
2020-08-12 20:11:42.6840,0.0,0.01,0.01
2020-08-12 20:11:42.7830,0.0,0.01,0.03
2020-08-12 20:11:42.8830,-0.01,0.03,0.05
2020-08-12 20:11:42.9830,-0.03,-0.01,-0.01
2020-08-12 20:11:43.0810,-0.04,-0.05,0.01
2020-08-12 20:11:43.1800,-0.16,-0.31,0.02
2020-08-12 20:11:43.2800,-0.44,-0.37,0.04
2020-08-12 20:11:43.3800,-0.12,-0.12,0.13
2020-08-12 20:11:43.4780,-0.71,0.08,0.08
2020-08-12 20:11:43.5780,-0.4,0.04,-0.17
2020-08-12 20:11:43.6760,0.01,-0.21,-0.01
2020-08-12 20:11:43.7770,0.33,-0.16,-0.0
2020-08-12 20:11:43.8750,0.57,-0.17,0.06
2020-08-12 20:11:43.9740,0.83,-0.09,0.15
2020-08-12 20:11:44.0740,0.08,-0.3,0.08
2020-08-12 20:11:44.1730,0.33,-0.01,0.23
2020-08-12 20:11:44.2730,0.03,-0.02,0.08
2020-08-12 20:11:44.3710,0.09,-0.03,0.02
2020-08-12 20:11:44.4700,-0.02,0.01,0.01
2020-08-12 20:11:44.5700,-0.03,0.03,0.05
2020-08-12 20:11:44.6700,0.01,0.02,-0.02
2020-08-12 20:11:44.7680,-0.04,-0.0,0.08
2020-08-12 20:11:44.8680,-0.04,-0.1,0.02
2020-08-12 20:11:44.9670,-0.12,-0.3,0.05
2020-08-12 20:11:45.0660,-0.32,-0.48,-0.04
2020-08-12 20:11:45.1660,-0.09,-0.09,0.08
2020-08-12 20:11:45.2650,-0.46,0.25,0.1
2020-08-12 20:11:45.3640,-0.33,0.13,-0.05
2020-08-12 20:11:45.4640,0.05,-0.15,-0.01
2020-08-12 20:11:45.5630,0.3,-0.17,0.03
2020-08-12 20:11:45.6620,0.49,-0.15,-0.01
2020-08-12 20:11:45.7620,0.9,-0.07,0.13
2020-08-12 20:11:45.8600,-0.81,-0.11,-0.17
2020-08-12 20:11:45.9600,0.57,-0.03,0.1
2020-08-12 20:11:46.0590,0.19,-0.04,-0.01
2020-08-12 20:11:46.1580,0.1,-0.02,0.0
2020-08-12 20:11:46.2570,0.01,0.0,0.03
2020-08-12 20:11:46.3560,0.03,0.0,-0.01
2020-08-12 20:11:46.4560,-0.01,-0.0,-0.02
2020-08-12 20:11:46.5550,-0.09,-0.04,0.01
2020-08-12 20:11:46.6550,-0.07,-0.08,-0.04
2020-08-12 20:11:46.7530,-0.3,-0.36,-0.02
2020-08-12 20:11:46.8520,-0.56,-0.34,0.29
2020-08-12 20:11:46.9530,-0.24,0.05,0.15
2020-08-12 20:11:47.0510,-0.53,0.21,-0.01
2020-08-12 20:11:47.1500,-0.28,-0.03,-0.15
2020-08-12 20:11:47.2500,0.12,-0.19,0.01
2020-08-12 20:11:47.3500,0.63,-0.36,0.0
2020-08-12 20:11:47.4490,1.1,-0.04,0.18
2020-08-12 20:11:47.5480,-0.63,-0.05,0.13
2020-08-12 20:11:47.6470,0.46,-0.15,0.07
2020-08-12 20:11:47.7470,0.16,-0.04,0.02
2020-08-12 20:11:47.8460,0.05,0.0,0.03
2020-08-12 20:11:47.9450,-0.0,-0.0,0.03
2020-08-12 20:11:48.0440,-0.01,0.0,0.01
2020-08-12 20:11:48.1440,0.03,0.03,-0.02
2020-08-12 20:11:48.2420,-0.02,0.01,0.02
2020-08-12 20:11:48.3420,-0.04,-0.08,0.03
2020-08-12 20:11:48.4410,-0.26,-0.31,0.08
2020-08-12 20:11:48.5400,-0.28,-0.28,-0.03
2020-08-12 20:11:48.6400,-0.39,0.05,-0.04
2020-08-12 20:11:48.7380,-0.59,0.23,0.13
2020-08-12 20:11:48.8380,-0.12,-0.13,-0.09
2020-08-12 20:11:48.9380,0.19,-0.26,-0.01
2020-08-12 20:11:49.0360,0.33,-0.11,0.03
2020-08-12 20:11:49.1360,0.7,-0.11,0.08
2020-08-12 20:11:49.2350,0.92,-0.12,0.11
2020-08-12 20:11:49.3350,0.55,-0.35,-0.05
2020-08-12 20:11:49.4330,0.05,0.05,0.07
2020-08-12 20:11:49.5320,0.04,-0.02,0.0
2020-08-12 20:11:49.6320,0.02,-0.01,0.01
2020-08-12 20:11:49.7310,0.0,0.02,0.03
2020-08-12 20:11:49.8300,0.05,-0.02,-0.04
2020-08-12 20:11:49.9300,0.01,-0.01,-0.02
2020-08-12 20:11:50.0290,-0.02,-0.01,0.02
2020-08-12 20:11:50.1290,0.01,-0.05,0.0
2020-08-12 20:11:50.2270,-0.19,-0.29,-0.04
2020-08-12 20:11:50.3260,-0.34,-0.45,0.08
2020-08-12 20:11:50.4270,-0.69,0.04,0.16
2020-08-12 20:11:50.5250,-0.55,0.24,0.04
2020-08-12 20:11:50.6250,-0.16,-0.01,-0.03
2020-08-12 20:11:50.7240,0.14,-0.27,0.07
2020-08-12 20:11:50.8230,0.44,-0.17,0.12
2020-08-12 20:11:50.9220,0.57,-0.06,0.02
2020-08-12 20:11:51.0220,0.84,0.03,0.07
2020-08-12 20:11:51.1210,0.44,-0.46,-0.06
2020-08-12 20:11:51.2210,-0.02,0.04,0.06
2020-08-12 20:11:51.3190,0.01,0.02,0.09
2020-08-12 20:11:51.4180,0.03,-0.03,0.0
2020-08-12 20:11:51.5180,0.01,-0.0,0.03
2020-08-12 20:11:51.6180,0.02,-0.0,0.0
2020-08-12 20:11:51.7170,-0.04,0.02,0.01
2020-08-12 20:11:51.8150,0.01,0.02,0.03
2020-08-12 20:11:51.9150,0.01,-0.01,-0.04
2020-08-12 20:11:52.0140,-0.15,-0.36,0.1
2020-08-12 20:11:52.1130,-0.31,-0.36,-0.13
2020-08-12 20:11:52.2130,-0.03,-0.35,0.11
2020-08-12 20:11:52.3120,-0.93,0.21,0.05
2020-08-12 20:11:52.4110,-0.51,0.13,0.02
2020-08-12 20:11:52.5100,0.05,-0.28,0.01
2020-08-12 20:11:52.6090,0.42,-0.26,0.11
2020-08-12 20:11:52.7090,0.86,-0.1,0.07
2020-08-12 20:11:52.8090,0.84,-0.08,0.06
2020-08-12 20:11:52.9070,0.6,-0.26,0.03
2020-08-12 20:11:53.0070,-0.11,0.03,0.04
2020-08-12 20:11:53.1050,-0.03,0.03,0.06
2020-08-12 20:11:53.2060,-0.07,0.06,0.08
2020-08-12 20:11:53.3040,-0.03,-0.0,0.04
2020-08-12 20:11:53.4040,0.03,0.01,-0.01
2020-08-12 20:11:53.5020,-0.0,0.03,-0.0
2020-08-12 20:11:53.6020,-0.02,-0.0,0.03
2020-08-12 20:11:53.7020,0.02,-0.05,-0.01
2020-08-12 20:11:53.8010,-0.27,-0.42,-0.07
2020-08-12 20:11:53.9000,-0.43,-0.18,0.16
2020-08-12 20:11:53.9990,-0.65,0.1,0.17
2020-08-12 20:11:54.0990,-0.38,0.17,0.02
2020-08-12 20:11:54.1970,-0.18,0.0,-0.03
2020-08-12 20:11:54.2970,0.15,-0.13,-0.02
2020-08-12 20:11:54.3970,0.39,-0.17,0.03
2020-08-12 20:11:54.4950,0.72,-0.04,0.06
2020-08-12 20:11:54.5940,0.7,-0.07,0.13
2020-08-12 20:11:54.6940,0.28,-0.23,-0.17
2020-08-12 20:11:54.7940,0.24,-0.03,0.12
2020-08-12 20:11:54.8920,0.06,-0.01,0.02
2020-08-12 20:11:54.9920,0.04,-0.01,-0.04
2020-08-12 20:11:55.0910,0.01,0.0,0.02
2020-08-12 20:11:55.1900,-0.04,0.01,0.02
2020-08-12 20:11:55.2890,-0.04,-0.0,-0.0
2020-08-12 20:11:55.3890,0.05,-0.02,-0.03
2020-08-12 20:11:55.4880,-0.05,-0.07,0.01
2020-08-12 20:11:55.5870,-0.24,-0.36,0.07
2020-08-12 20:11:55.6860,-0.6,-0.48,0.18
2020-08-12 20:11:55.7860,-0.24,-0.01,0.06
2020-08-12 20:11:55.8840,-0.67,0.29,0.1
2020-08-12 20:11:55.9840,-0.37,0.1,-0.04
2020-08-12 20:11:56.0830,0.14,-0.23,0.01
2020-08-12 20:11:56.1820,0.46,-0.25,0.02
2020-08-12 20:11:56.2820,0.71,-0.12,0.07
2020-08-12 20:11:56.3810,0.78,-0.03,0.12
2020-08-12 20:11:56.4800,0.23,-0.22,0.04
2020-08-12 20:11:56.5790,0.01,0.01,-0.04
2020-08-12 20:11:56.6790,0.03,0.0,0.05
2020-08-12 20:11:56.7780,0.05,-0.01,0.02
2020-08-12 20:11:56.8780,-0.01,0.01,0.02
2020-08-12 20:11:56.9770,0.02,0.01,0.01
2020-08-12 20:11:57.0770,-0.02,0.05,-0.03
2020-08-12 20:11:57.1750,-0.0,-0.03,-0.02
2020-08-12 20:11:57.2750,-0.05,-0.08,-0.06
2020-08-12 20:11:57.3740,-0.19,-0.38,-0.07
2020-08-12 20:11:57.4740,-0.39,-0.37,0.05
2020-08-12 20:11:57.5730,-0.17,-0.06,0.21
2020-08-12 20:11:57.6720,-0.72,0.29,0.08
2020-08-12 20:11:57.7710,-0.21,-0.09,-0.19
2020-08-12 20:11:57.8710,0.19,-0.22,-0.04
2020-08-12 20:11:57.9700,0.55,-0.37,0.05
2020-08-12 20:11:58.0690,0.8,-0.12,0.05
2020-08-12 20:11:58.1670,-0.92,-0.06,-0.44
2020-08-12 20:11:58.2670,0.01,-0.05,-0.04
2020-08-12 20:11:58.3660,0.22,-0.14,-0.04
2020-08-12 20:11:58.4650,-0.06,0.03,0.04
2020-08-12 20:11:58.5640,-0.02,0.02,0.04
2020-08-12 20:11:58.6640,-0.02,0.01,0.04
2020-08-12 20:11:58.7630,0.05,-0.02,-0.06
2020-08-12 20:11:58.8630,0.0,0.02,-0.02
2020-08-12 20:11:58.9620,0.01,-0.01,-0.0
2020-08-12 20:11:59.0610,-0.0,-0.05,-0.01
2020-08-12 20:11:59.1610,-0.18,-0.27,-0.04
2020-08-12 20:11:59.2600,-0.49,-0.47,0.07
2020-08-12 20:11:59.3580,-0.26,0.04,0.22
2020-08-12 20:11:59.4590,-0.56,0.22,0.01
2020-08-12 20:11:59.5570,-0.16,-0.06,-0.16
2020-08-12 20:11:59.6560,0.23,-0.23,0.01
2020-08-12 20:11:59.7570,0.35,-0.17,0.01
2020-08-12 20:11:59.8550,0.63,-0.05,0.03
2020-08-12 20:11:59.9550,0.78,-0.0,0.2
2020-08-12 20:12:00.0530,0.22,-0.4,-0.24
2020-08-12 20:12:00.1530,0.2,0.0,0.23
2020-08-12 20:12:00.2530,-0.0,-0.04,0.02
2020-08-12 20:12:00.3520,0.01,-0.0,0.02
2020-08-12 20:12:00.4500,0.01,0.02,0.03
2020-08-12 20:12:00.5500,-0.02,-0.01,0.0
2020-08-12 20:12:00.6500,-0.04,-0.01,0.03
2020-08-12 20:12:00.7480,-0.01,0.01,0.01
2020-08-12 20:12:00.8480,-0.04,-0.01,0.07
2020-08-12 20:12:00.9460,-0.16,-0.17,0.02
2020-08-12 20:12:01.0460,-0.54,-0.44,0.03
2020-08-12 20:12:01.1460,0.04,-0.09,-0.03
2020-08-12 20:12:01.2450,-0.7,0.19,0.14
2020-08-12 20:12:01.3440,-0.45,0.13,-0.04
2020-08-12 20:12:01.4440,-0.14,-0.19,0.07
2020-08-12 20:12:01.5420,0.18,-0.19,-0.02
2020-08-12 20:12:01.6410,0.26,-0.14,-0.05
2020-08-12 20:12:01.7410,0.76,-0.04,0.07
2020-08-12 20:12:01.8410,0.05,-0.53,0.18
2020-08-12 20:12:01.9400,0.09,0.04,-0.07
2020-08-12 20:12:02.0390,-0.08,0.01,-0.07
2020-08-12 20:12:02.1370,0.07,-0.02,0.03
2020-08-12 20:12:02.2380,-0.06,0.02,0.02
2020-08-12 20:12:02.3360,-0.02,0.01,0.06
2020-08-12 20:12:02.4360,0.02,-0.01,-0.03
2020-08-12 20:12:02.5350,0.01,0.02,-0.04
2020-08-12 20:12:02.6340,0.02,-0.0,-0.01
2020-08-12 20:12:02.7340,0.04,-0.07,-0.09
2020-08-12 20:12:02.8330,-0.14,-0.39,-0.03
2020-08-12 20:12:02.9310,-0.47,-0.22,0.12
2020-08-12 20:12:03.0320,-0.46,0.06,0.11
2020-08-12 20:12:03.1300,-0.64,0.23,0.17
2020-08-12 20:12:03.2300,-0.1,-0.16,-0.05
2020-08-12 20:12:03.3290,0.19,-0.22,0.01
2020-08-12 20:12:03.4280,0.41,-0.24,0.02
2020-08-12 20:12:03.5270,0.9,-0.09,-0.02
2020-08-12 20:12:03.6270,0.56,-0.18,-0.01
2020-08-12 20:12:03.7260,0.47,-0.31,0.04
2020-08-12 20:12:03.8250,-0.06,0.04,0.05
2020-08-12 20:12:03.9250,-0.02,0.0,0.05
2020-08-12 20:12:04.0230,0.03,-0.01,-0.01
2020-08-12 20:12:04.1230,-0.03,-0.02,0.01
2020-08-12 20:12:04.2230,-0.02,0.03,0.01
2020-08-12 20:12:04.3220,-0.01,0.04,-0.02
2020-08-12 20:12:04.4200,-0.02,-0.0,0.01
2020-08-12 20:12:04.5200,-0.08,-0.07,-0.0
2020-08-12 20:12:04.6190,-0.27,-0.44,0.01
2020-08-12 20:12:04.7190,-0.44,-0.17,0.26
2020-08-12 20:12:04.8170,-0.58,0.05,0.09
2020-08-12 20:12:04.9170,-0.47,0.22,0.07
2020-08-12 20:12:05.0160,0.02,-0.24,-0.08
2020-08-12 20:12:05.1160,0.35,-0.2,0.0
2020-08-12 20:12:05.2150,0.41,-0.12,0.02
2020-08-12 20:12:05.3140,0.66,-0.06,0.03
2020-08-12 20:12:05.4130,0.81,-0.07,0.06
2020-08-12 20:12:05.5130,0.23,-0.29,-0.07
2020-08-12 20:12:05.6110,0.1,-0.08,0.07
2020-08-12 20:12:05.7120,0.01,-0.01,-0.0
2020-08-12 20:12:05.8110,-0.04,0.03,0.02
2020-08-12 20:12:05.9090,-0.05,-0.0,0.02
2020-08-12 20:12:06.0080,-0.04,0.02,0.02
2020-08-12 20:12:06.1090,-0.03,0.02,0.0
2020-08-12 20:12:06.2080,0.02,-0.02,-0.03
2020-08-12 20:12:06.3060,0.05,-0.1,-0.06
2020-08-12 20:12:06.4060,-0.16,-0.24,0.03
2020-08-12 20:12:06.5050,-0.56,-0.36,-0.03
2020-08-12 20:12:06.6050,-0.03,-0.02,0.15
2020-08-12 20:12:06.7030,-0.72,0.09,0.1
2020-08-12 20:12:06.8020,-0.29,0.1,-0.05
2020-08-12 20:12:06.9030,0.14,-0.35,0.04
2020-08-12 20:12:07.0010,0.38,-0.24,0.08
2020-08-12 20:12:07.1000,0.68,-0.09,-0.02
2020-08-12 20:12:07.2000,0.87,-0.0,0.01
2020-08-12 20:12:07.3000,-0.26,-0.29,0.25
2020-08-12 20:12:07.3980,-0.03,0.02,0.27
2020-08-12 20:12:07.4980,-0.04,-0.07,-0.05
2020-08-12 20:12:07.5970,-0.0,-0.02,0.02
2020-08-12 20:12:07.6960,-0.03,0.02,0.03
2020-08-12 20:12:07.7960,-0.01,-0.02,-0.02
2020-08-12 20:12:07.8940,0.04,-0.02,-0.01
2020-08-12 20:12:07.9930,0.02,0.01,0.01
2020-08-12 20:12:08.0940,0.0,-0.04,0.02
2020-08-12 20:12:08.1930,-0.09,-0.12,-0.01
2020-08-12 20:12:08.2920,-0.42,-0.73,-0.1
2020-08-12 20:12:08.3910,-0.13,-0.33,0.29
2020-08-12 20:12:08.4910,-0.7,0.03,0.13
2020-08-12 20:12:08.5890,-0.36,0.26,0.09
2020-08-12 20:12:08.6880,-0.08,0.02,-0.06
2020-08-12 20:12:08.7880,0.19,-0.15,-0.02
2020-08-12 20:12:08.8880,0.31,-0.24,0.04
2020-08-12 20:12:08.9860,0.65,-0.09,0.08
2020-08-12 20:12:09.0860,0.68,-0.04,0.01
2020-08-12 20:12:09.1860,0.27,-0.32,0.09
2020-08-12 20:12:09.2850,-0.01,0.02,0.1
2020-08-12 20:12:09.3830,0.08,-0.07,-0.07
2020-08-12 20:12:09.4820,-0.02,-0.02,-0.0
2020-08-12 20:12:09.5820,-0.02,0.02,0.03
2020-08-12 20:12:09.6810,-0.0,-0.03,-0.04
2020-08-12 20:12:09.7800,-0.03,0.0,0.03
2020-08-12 20:12:09.8800,-0.02,0.01,0.01
2020-08-12 20:12:09.9790,-0.09,-0.0,0.04
2020-08-12 20:12:10.0790,-0.15,-0.15,-0.07
2020-08-12 20:12:10.1770,-0.32,-0.47,0.07
2020-08-12 20:12:10.2770,-0.26,-0.22,0.21
2020-08-12 20:12:10.3760,-0.48,-0.06,0.11
2020-08-12 20:12:10.4750,-0.5,0.23,0.06
2020-08-12 20:12:10.5740,0.01,-0.19,-0.13
2020-08-12 20:12:10.6740,0.13,-0.19,-0.05
2020-08-12 20:12:10.7730,0.31,-0.14,0.03
2020-08-12 20:12:10.8730,0.45,-0.12,0.03
2020-08-12 20:12:10.9710,0.86,-0.05,0.02
2020-08-12 20:12:11.0710,-0.92,0.11,-0.12
2020-08-12 20:12:11.1700,0.26,-0.05,0.14
2020-08-12 20:12:11.2690,-0.16,-0.01,0.03
2020-08-12 20:12:11.3690,-0.04,-0.0,0.06
2020-08-12 20:12:11.4670,0.01,0.0,0.02
2020-08-12 20:12:11.5670,-0.01,0.01,0.02
2020-08-12 20:12:11.6670,-0.05,0.01,0.02
2020-08-12 20:12:11.7650,0.03,0.01,-0.0
2020-08-12 20:12:11.8640,0.04,0.01,-0.02
2020-08-12 20:12:11.9650,-0.05,-0.04,-0.01
2020-08-12 20:12:12.0630,-0.15,-0.21,0.05
2020-08-12 20:12:12.1620,-0.35,-0.56,0.01
2020-08-12 20:12:12.2620,0.08,-0.24,0.12
2020-08-12 20:12:12.3610,-0.84,0.22,0.03
2020-08-12 20:12:12.4610,-0.53,0.1,0.01
2020-08-12 20:12:12.5600,0.04,-0.24,0.06
2020-08-12 20:12:12.6590,0.37,-0.21,0.01
2020-08-12 20:12:12.7590,0.5,-0.15,0.04
2020-08-12 20:12:12.8570,0.8,-0.0,0.11
2020-08-12 20:12:12.9570,-1.0,-0.04,-0.23
2020-08-12 20:12:13.0550,0.39,-0.11,-0.11
2020-08-12 20:12:13.1550,-0.04,-0.07,-0.06
2020-08-12 20:12:13.2540,0.02,-0.02,-0.02
2020-08-12 20:12:13.3540,0.06,-0.01,0.03
2020-08-12 20:12:13.4530,-0.01,-0.03,-0.02
2020-08-12 20:12:13.5520,-0.02,0.03,0.02
2020-08-12 20:12:13.6510,0.07,0.03,0.0
2020-08-12 20:12:13.7510,0.09,0.02,0.06
2020-08-12 20:12:13.8500,-0.03,-0.07,-0.01
2020-08-12 20:12:13.9490,-0.13,-0.21,0.01
2020-08-12 20:12:14.0490,-0.35,-0.22,0.01
2020-08-12 20:12:14.1480,-0.1,-0.33,0.2
2020-08-12 20:12:14.2470,-0.7,0.07,0.08
2020-08-12 20:12:14.3470,-0.51,0.11,0.09
2020-08-12 20:12:14.4460,-0.08,-0.09,-0.02
2020-08-12 20:12:14.5440,0.29,-0.2,-0.04
2020-08-12 20:12:14.6440,0.44,-0.13,0.08
2020-08-12 20:12:14.7430,0.73,-0.06,0.09
2020-08-12 20:12:14.8420,0.22,-0.3,-0.02
2020-08-12 20:12:14.9410,0.36,-0.19,0.06
2020-08-12 20:12:15.0400,-0.13,-0.01,-0.0
2020-08-12 20:12:15.1400,-0.03,-0.02,0.03
2020-08-12 20:12:15.2390,0.07,-0.0,-0.02
2020-08-12 20:12:15.3390,-0.01,-0.01,-0.01
2020-08-12 20:12:15.4370,0.01,0.03,-0.0
2020-08-12 20:12:15.5380,-0.02,0.03,-0.0
2020-08-12 20:12:15.6370,0.0,-0.04,0.03
2020-08-12 20:12:15.7350,-0.04,-0.03,0.04
2020-08-12 20:12:15.8360,-0.11,-0.19,0.0
2020-08-12 20:12:15.9340,-0.36,-0.48,-0.06
2020-08-12 20:12:16.0340,0.03,-0.34,0.19
2020-08-12 20:12:16.1330,-1.0,0.17,0.09
2020-08-12 20:12:16.2320,-0.47,0.16,0.06
2020-08-12 20:12:16.3310,-0.04,-0.25,0.06
2020-08-12 20:12:16.4300,0.37,-0.25,0.07
2020-08-12 20:12:16.5300,0.68,-0.17,0.02
2020-08-12 20:12:16.6290,0.98,0.0,0.05
2020-08-12 20:12:16.7280,-0.44,-0.24,-0.03
2020-08-12 20:12:16.8270,0.3,-0.09,0.12
2020-08-12 20:12:16.9270,0.1,-0.02,0.05
2020-08-12 20:12:17.0250,-0.05,0.05,0.08
2020-08-12 20:12:17.1260,-0.13,0.03,0.08
2020-08-12 20:12:17.2240,-0.05,0.01,0.01
2020-08-12 20:12:17.3230,-0.06,0.02,0.04
2020-08-12 20:12:17.4220,0.02,-0.04,-0.01
2020-08-12 20:12:17.5220,-0.13,-0.1,0.01
2020-08-12 20:12:17.6220,-0.41,-0.71,-0.0
2020-08-12 20:12:17.7200,-0.13,-0.26,0.23
2020-08-12 20:12:17.8200,-0.95,0.24,0.05
2020-08-12 20:12:17.9190,-0.57,0.18,0.08
2020-08-12 20:12:18.0180,0.13,-0.45,0.03
2020-08-12 20:12:18.1170,0.39,-0.28,0.07
2020-08-12 20:12:18.2160,0.61,-0.11,0.01
2020-08-12 20:12:18.3160,0.81,-0.0,0.09
2020-08-12 20:12:18.4160,-0.53,-0.17,-0.15
2020-08-12 20:12:18.5140,0.31,-0.06,0.13
2020-08-12 20:12:18.6150,0.13,-0.05,-0.01
2020-08-12 20:12:18.7130,0.01,-0.01,0.05
2020-08-12 20:12:18.8130,-0.09,0.03,0.04
2020-08-12 20:12:18.9110,-0.1,0.05,0.05
2020-08-12 20:12:19.0110,-0.13,0.05,0.06
2020-08-12 20:12:19.1100,-0.16,-0.01,0.1
2020-08-12 20:12:19.2090,-0.08,-0.04,0.05
2020-08-12 20:12:19.3090,-0.27,-0.55,-0.01
2020-08-12 20:12:19.4080,-0.09,-0.24,0.35
2020-08-12 20:12:19.5070,-0.8,0.17,0.08
2020-08-12 20:12:19.6070,-0.48,0.2,-0.01
2020-08-12 20:12:19.7050,-0.09,-0.08,0.03
2020-08-12 20:12:19.8050,0.28,-0.21,0.1
2020-08-12 20:12:19.9050,0.44,-0.16,0.05
2020-08-12 20:12:20.0030,0.75,-0.05,0.02
2020-08-12 20:12:20.1020,0.53,-0.14,-0.06
2020-08-12 20:12:20.2020,0.41,-0.26,0.08
2020-08-12 20:12:20.3020,-0.07,0.03,0.03
2020-08-12 20:12:20.4010,-0.11,0.04,0.07
2020-08-12 20:12:20.4990,-0.03,0.02,0.05
2020-08-12 20:12:20.5990,-0.03,0.01,0.02
2020-08-12 20:12:20.6980,-0.01,-0.0,-0.02
2020-08-12 20:12:20.7980,-0.0,0.03,-0.0
2020-08-12 20:12:20.8970,-0.04,-0.01,-0.01
2020-08-12 20:12:20.9960,-0.12,-0.15,0.04
2020-08-12 20:12:21.0950,-0.31,-0.45,0.06
2020-08-12 20:12:21.1940,-0.35,-0.1,0.33
2020-08-12 20:12:21.2930,-0.73,0.04,0.11
2020-08-12 20:12:21.3920,-0.58,0.21,0.11
2020-08-12 20:12:21.4930,-0.06,-0.23,0.08
2020-08-12 20:12:21.5910,0.25,-0.26,0.02
2020-08-12 20:12:21.6900,0.7,-0.32,0.0
2020-08-12 20:12:21.7910,0.93,-0.0,-0.01
2020-08-12 20:12:21.8900,-1.12,0.05,-0.2
2020-08-12 20:12:21.9880,0.17,-0.15,0.11
2020-08-12 20:12:22.0880,0.05,-0.07,-0.08
2020-08-12 20:12:22.1870,0.0,-0.01,0.06
2020-08-12 20:12:22.2860,-0.01,0.0,0.04
2020-08-12 20:12:22.3860,-0.02,-0.0,0.0
2020-08-12 20:12:22.4850,-0.01,-0.0,0.01
2020-08-12 20:12:22.5850,0.02,0.02,-0.06
2020-08-12 20:12:22.6830,-0.0,-0.02,-0.0
2020-08-12 20:12:22.7830,-0.01,-0.15,-0.01
2020-08-12 20:12:22.8820,-0.3,-0.29,0.08
2020-08-12 20:12:22.9820,-0.07,-0.08,0.24
2020-08-12 20:12:23.0800,-0.75,0.04,0.11
2020-08-12 20:12:23.1790,-0.46,0.02,-0.07
2020-08-12 20:12:23.2780,-0.14,-0.15,0.03
2020-08-12 20:12:23.3780,0.08,-0.15,-0.01
2020-08-12 20:12:23.4780,0.45,-0.21,0.05
2020-08-12 20:12:23.5770,0.78,-0.06,0.12
2020-08-12 20:12:23.6750,0.71,-0.08,0.01
2020-08-12 20:12:23.7760,0.57,-0.43,0.25
2020-08-12 20:12:23.8740,-0.15,0.09,0.03
2020-08-12 20:12:23.9730,-0.01,0.0,0.01
2020-08-12 20:12:24.0730,0.03,-0.01,-0.0
2020-08-12 20:12:24.1720,0.0,-0.01,0.03
2020-08-12 20:12:24.2720,0.02,0.01,0.0
2020-08-12 20:12:24.3700,-0.03,0.0,-0.0
2020-08-12 20:12:24.4690,-0.03,-0.04,-0.01
2020-08-12 20:12:24.5700,-0.05,-0.08,-0.04
2020-08-12 20:12:24.6680,-0.22,-0.3,0.01
2020-08-12 20:12:24.7680,-0.5,-0.16,0.08
2020-08-12 20:12:24.8670,-0.65,0.06,-0.06
2020-08-12 20:12:24.9670,-0.66,0.1,0.21
2020-08-12 20:12:25.0660,-0.17,-0.14,0.09
2020-08-12 20:12:25.1640,0.17,-0.13,0.09
2020-08-12 20:12:25.2630,0.39,-0.23,0.05
2020-08-12 20:12:25.3630,0.82,-0.15,-0.08
2020-08-12 20:12:25.4630,1.16,-0.1,0.04
2020-08-12 20:12:25.5620,0.33,-0.09,-0.16
2020-08-12 20:12:25.6600,0.14,-0.02,-0.1
2020-08-12 20:12:25.7600,0.11,0.0,0.03
2020-08-12 20:12:25.8590,0.05,-0.02,-0.02
2020-08-12 20:12:25.9580,0.01,0.0,0.01
2020-08-12 20:12:26.0580,0.02,0.01,-0.01
2020-08-12 20:12:26.1570,0.03,-0.0,0.0
2020-08-12 20:12:26.2570,0.02,-0.06,-0.01
2020-08-12 20:12:26.3560,-0.08,-0.19,0.0
2020-08-12 20:12:26.4550,-0.49,-0.48,0.11
2020-08-12 20:12:26.5540,0.02,-0.07,0.08
2020-08-12 20:12:26.6530,-0.65,0.13,0.13
2020-08-12 20:12:26.7530,-0.32,0.03,-0.07
2020-08-12 20:12:26.8510,0.02,-0.17,0.01
2020-08-12 20:12:26.9520,0.17,-0.1,-0.02
2020-08-12 20:12:27.0510,0.43,-0.13,-0.05
2020-08-12 20:12:27.1500,0.78,-0.06,0.1
2020-08-12 20:12:27.2490,-0.34,-0.41,-0.34
2020-08-12 20:12:27.3490,0.22,0.01,-0.07
2020-08-12 20:12:27.4470,0.07,-0.06,-0.01
2020-08-12 20:12:27.5470,0.04,-0.05,-0.02
2020-08-12 20:12:27.6460,-0.04,-0.01,0.03
2020-08-12 20:12:27.7460,-0.01,0.01,0.01
2020-08-12 20:12:27.8450,-0.0,-0.01,0.01
2020-08-12 20:12:27.9430,0.02,-0.02,-0.0
2020-08-12 20:12:28.0440,-0.02,-0.06,-0.03
2020-08-12 20:12:28.1430,-0.22,-0.38,0.05
2020-08-12 20:12:28.2410,-0.6,-0.36,0.12
2020-08-12 20:12:28.3420,-0.29,0.04,0.19
2020-08-12 20:12:28.4390,-0.66,0.21,0.08
2020-08-12 20:12:28.5400,-0.13,-0.04,-0.13
2020-08-12 20:12:28.6390,0.25,-0.28,0.01
2020-08-12 20:12:28.7370,0.39,-0.24,0.09
2020-08-12 20:12:28.8380,0.9,-0.01,-0.0
2020-08-12 20:12:28.9370,0.37,-0.3,-0.02
2020-08-12 20:12:29.0350,0.18,-0.05,-0.15
2020-08-12 20:12:29.1340,0.1,-0.02,-0.05
2020-08-12 20:12:29.2340,-0.02,0.0,0.03
2020-08-12 20:12:29.3340,0.03,-0.0,0.02
2020-08-12 20:12:29.4320,-0.02,-0.0,0.02
2020-08-12 20:12:29.5310,-0.06,0.01,0.0
2020-08-12 20:12:29.6320,-0.06,-0.0,0.03
2020-08-12 20:12:29.7300,-0.04,-0.05,-0.04
2020-08-12 20:12:29.8290,-0.24,-0.37,0.01
2020-08-12 20:12:29.9280,-0.65,-0.42,0.11
2020-08-12 20:12:30.0280,-0.32,0.07,0.06
2020-08-12 20:12:30.1280,-0.66,0.23,0.12
2020-08-12 20:12:30.2270,-0.17,-0.07,-0.14
2020-08-12 20:12:30.3260,0.34,-0.3,0.02
2020-08-12 20:12:30.4250,0.46,-0.19,0.11
2020-08-12 20:12:30.5250,0.69,0.0,0.02
2020-08-12 20:12:30.6240,0.77,-0.11,0.01
2020-08-12 20:12:30.7230,0.53,-0.25,-0.06
2020-08-12 20:12:30.8210,-0.02,0.07,0.06
2020-08-12 20:12:30.9210,-0.02,0.0,0.01
2020-08-12 20:12:31.0200,0.04,0.0,-0.01
2020-08-12 20:12:31.1190,-0.03,-0.02,-0.01
2020-08-12 20:12:31.2200,-0.0,0.0,0.01
2020-08-12 20:12:31.3180,0.01,0.03,0.0
2020-08-12 20:12:31.4180,-0.02,-0.05,-0.0
2020-08-12 20:12:31.5170,-0.18,-0.2,-0.04
2020-08-12 20:12:31.6160,-0.64,-0.61,0.11
2020-08-12 20:12:31.7160,-0.04,-0.11,0.13
2020-08-12 20:12:31.8140,-0.71,0.15,0.09
2020-08-12 20:12:31.9140,-0.43,0.08,-0.06
2020-08-12 20:12:32.0140,0.17,-0.26,0.07
2020-08-12 20:12:32.1120,0.36,-0.25,0.08
2020-08-12 20:12:32.2120,0.82,-0.03,0.07
2020-08-12 20:12:32.3100,0.72,-0.13,0.02
2020-08-12 20:12:32.4100,0.42,-0.33,-0.13
2020-08-12 20:12:32.5100,0.06,0.02,0.04
2020-08-12 20:12:32.6080,-0.08,0.02,0.06
2020-08-12 20:12:32.7070,0.03,-0.02,-0.0
2020-08-12 20:12:32.8080,-0.04,-0.0,0.04
2020-08-12 20:12:32.9070,0.02,0.02,-0.02
2020-08-12 20:12:33.0050,-0.01,-0.01,-0.0
2020-08-12 20:12:33.1050,-0.03,-0.03,-0.03
2020-08-12 20:12:33.2040,-0.1,-0.2,-0.01
2020-08-12 20:12:33.3040,-0.42,-0.5,0.08
2020-08-12 20:12:33.4020,-0.2,-0.02,0.21
2020-08-12 20:12:33.5020,-0.64,0.24,0.13
2020-08-12 20:12:33.6010,-0.27,-0.0,-0.08
2020-08-12 20:12:33.7010,0.05,-0.17,0.01
2020-08-12 20:12:33.7990,0.28,-0.16,0.03
2020-08-12 20:12:33.8990,0.62,-0.18,0.05
2020-08-12 20:12:33.9980,0.84,-0.01,0.04
2020-08-12 20:12:34.0980,-1.33,-0.04,-0.52
2020-08-12 20:12:34.1960,0.31,-0.08,0.08
2020-08-12 20:12:34.2950,0.14,-0.04,0.04
2020-08-12 20:12:34.3960,0.11,-0.01,-0.02
2020-08-12 20:12:34.4950,0.04,-0.02,-0.01
2020-08-12 20:12:34.5940,-0.0,0.0,0.0
2020-08-12 20:12:34.6940,0.0,0.01,-0.0
2020-08-12 20:12:34.7920,-0.0,0.01,0.0
2020-08-12 20:12:34.8910,-0.01,-0.05,0.02
2020-08-12 20:12:34.9910,-0.18,-0.45,0.03
2020-08-12 20:12:35.0900,-0.62,-0.35,0.07
2020-08-12 20:12:35.1900,-0.66,0.05,0.02
2020-08-12 20:12:35.2890,-0.72,0.21,0.15
2020-08-12 20:12:35.3870,-0.09,-0.17,0.05
2020-08-12 20:12:35.4870,0.33,-0.22,0.03
2020-08-12 20:12:35.5870,0.44,-0.15,0.05
2020-08-12 20:12:35.6860,0.78,-0.05,0.09
2020-08-12 20:12:35.7850,0.55,-0.11,0.04
2020-08-12 20:12:35.8830,0.45,-0.27,0.21
2020-08-12 20:12:35.9840,-0.1,-0.02,-0.01
2020-08-12 20:12:36.0820,-0.07,0.03,0.03
2020-08-12 20:12:36.1810,0.0,-0.02,0.02
2020-08-12 20:12:36.2800,-0.04,0.02,0.01
2020-08-12 20:12:36.3800,-0.01,0.01,0.01
2020-08-12 20:12:36.4800,0.02,0.01,-0.01
2020-08-12 20:12:36.5790,-0.01,-0.06,0.01
2020-08-12 20:12:36.6780,-0.11,-0.36,0.06
2020-08-12 20:12:36.7780,-0.64,-0.4,0.14
2020-08-12 20:12:36.8770,-0.66,0.0,0.07
2020-08-12 20:12:36.9760,-0.65,0.19,0.11
2020-08-12 20:12:37.0750,-0.08,-0.14,-0.03
2020-08-12 20:12:37.1750,0.22,-0.26,0.04
2020-08-12 20:12:37.2740,0.48,-0.14,0.02
2020-08-12 20:12:37.3730,0.8,-0.08,-0.02
2020-08-12 20:12:37.4720,-0.1,-0.56,-0.14
2020-08-12 20:12:37.5720,0.25,-0.0,0.03
2020-08-12 20:12:37.6710,-0.05,-0.06,-0.02
2020-08-12 20:12:37.7700,-0.05,0.01,0.03
2020-08-12 20:12:37.8690,-0.01,0.01,-0.0
2020-08-12 20:12:37.9690,0.02,0.01,-0.0
2020-08-12 20:12:38.0680,0.0,-0.0,0.01
2020-08-12 20:12:38.1660,0.01,-0.01,-0.04
2020-08-12 20:12:38.2670,0.05,-0.06,-0.08
2020-08-12 20:12:38.3660,-0.2,-0.4,-0.08
2020-08-12 20:12:38.4650,-0.27,-0.16,0.21
2020-08-12 20:12:38.5630,-0.72,0.14,0.0
2020-08-12 20:12:38.6630,-0.48,0.14,0.0
2020-08-12 20:12:38.7630,-0.05,-0.12,-0.01
2020-08-12 20:12:38.8620,0.18,-0.13,-0.04
2020-08-12 20:12:38.9610,0.33,-0.12,-0.02
2020-08-12 20:12:39.0600,0.62,-0.02,0.08
2020-08-12 20:12:39.1600,0.68,-0.06,0.05
2020-08-12 20:12:39.2590,0.34,-0.27,0.09
2020-08-12 20:12:39.3580,-0.01,0.05,0.03
2020-08-12 20:12:39.4580,-0.02,0.0,0.02
2020-08-12 20:12:39.5570,-0.02,0.01,-0.0
2020-08-12 20:12:39.6560,0.01,-0.02,-0.0
2020-08-12 20:12:39.7550,0.0,0.02,-0.01
2020-08-12 20:12:39.8540,0.0,0.02,-0.01
2020-08-12 20:12:39.9540,0.04,-0.0,-0.02
2020-08-12 20:12:40.0530,-0.09,-0.05,-0.05
2020-08-12 20:12:40.1510,-0.21,-0.35,-0.04
2020-08-12 20:12:40.2520,-0.41,-0.24,0.17
2020-08-12 20:12:40.3510,-0.75,0.08,0.05
2020-08-12 20:12:40.4500,-0.59,0.12,0.08
2020-08-12 20:12:40.5490,-0.1,-0.09,0.12
2020-08-12 20:12:40.6480,0.36,-0.23,0.11
2020-08-12 20:12:40.7480,0.58,-0.2,0.01
2020-08-12 20:12:40.8470,0.82,-0.06,-0.02
2020-08-12 20:12:40.9460,-0.69,-0.25,-0.46
2020-08-12 20:12:41.0450,0.02,0.03,-0.01
2020-08-12 20:12:41.1450,0.09,-0.08,-0.06
2020-08-12 20:12:41.2440,-0.01,-0.03,0.06
2020-08-12 20:12:41.3430,0.03,-0.01,0.03
2020-08-12 20:12:41.4430,0.03,-0.0,-0.04
2020-08-12 20:12:41.5410,-0.0,0.01,0.01
2020-08-12 20:12:41.6410,-0.03,-0.0,-0.03
2020-08-12 20:12:41.7390,-0.04,-0.02,0.01
2020-08-12 20:12:41.8390,-0.07,-0.22,0.02
2020-08-12 20:12:41.9390,-0.37,-0.38,0.07
2020-08-12 20:12:42.0380,-0.26,-0.08,0.18
2020-08-12 20:12:42.1370,-0.61,0.18,0.09
2020-08-12 20:12:42.2360,-0.18,-0.04,-0.05
2020-08-12 20:12:42.3360,0.09,-0.13,0.02
2020-08-12 20:12:42.4340,0.25,-0.18,0.04
2020-08-12 20:12:42.5330,0.49,-0.06,0.08
2020-08-12 20:12:42.6340,0.7,0.02,-0.07
2020-08-12 20:12:42.7320,-1.2,-0.05,-0.45
2020-08-12 20:12:42.8320,0.1,0.11,0.13
2020-08-12 20:12:42.9310,0.07,-0.07,-0.03
2020-08-12 20:12:43.0300,0.02,0.0,-0.01
2020-08-12 20:12:43.1300,0.07,-0.03,-0.02
2020-08-12 20:12:43.2290,0.02,0.0,-0.02
2020-08-12 20:12:43.3280,0.0,0.02,-0.01
2020-08-12 20:12:43.4280,0.03,-0.01,0.0
2020-08-12 20:12:43.5270,-0.02,-0.04,0.05
2020-08-12 20:12:43.6250,-0.13,-0.4,0.06
2020-08-12 20:12:43.7250,-0.57,-0.26,0.08
2020-08-12 20:12:43.8250,-0.08,0.02,0.16
2020-08-12 20:12:43.9240,-0.62,0.21,0.1
2020-08-12 20:12:44.0230,-0.25,0.07,-0.05
2020-08-12 20:12:44.1220,0.14,-0.22,0.03
2020-08-12 20:12:44.2220,0.34,-0.18,0.04
2020-08-12 20:12:44.3210,0.53,-0.08,-0.05
2020-08-12 20:12:44.4200,0.78,-0.04,0.08
2020-08-12 20:12:44.5190,-0.28,-0.25,-0.07
2020-08-12 20:12:44.6190,0.36,-0.03,0.13
2020-08-12 20:12:44.7180,0.13,-0.02,0.04
2020-08-12 20:12:44.8170,0.06,-0.01,-0.01
2020-08-12 20:12:44.9160,0.04,-0.03,-0.0
2020-08-12 20:12:45.0160,-0.01,-0.01,-0.01
2020-08-12 20:12:45.1150,-0.0,-0.03,-0.01
2020-08-12 20:12:45.2140,-0.04,0.0,0.0
2020-08-12 20:12:45.3130,-0.05,-0.04,-0.03
2020-08-12 20:12:45.4120,-0.13,-0.25,0.02
2020-08-12 20:12:45.5110,-0.41,-0.28,0.15
2020-08-12 20:12:45.6110,-0.3,-0.01,0.04
2020-08-12 20:12:45.7110,-0.66,0.19,0.09
2020-08-12 20:12:45.8100,-0.2,-0.18,-0.05
2020-08-12 20:12:45.9090,0.24,-0.19,0.02
2020-08-12 20:12:46.0080,0.3,-0.1,0.02
2020-08-12 20:12:46.1070,0.56,-0.16,0.03
2020-08-12 20:12:46.2070,0.91,0.01,0.06
2020-08-12 20:12:46.3060,-0.13,-0.4,0.09
2020-08-12 20:12:46.4050,0.17,0.1,0.29
2020-08-12 20:12:46.5040,0.04,-0.05,0.02
2020-08-12 20:12:46.6040,0.02,-0.02,-0.01
2020-08-12 20:12:46.7030,-0.01,0.02,0.02
2020-08-12 20:12:46.8020,-0.02,-0.01,0.01
2020-08-12 20:12:46.9020,-0.04,0.01,0.02
2020-08-12 20:12:47.0000,-0.07,0.02,0.01
2020-08-12 20:12:47.1000,-0.09,0.01,0.04
2020-08-12 20:12:47.1990,-0.11,-0.06,0.02
2020-08-12 20:12:47.2980,-0.41,-0.6,0.04
2020-08-12 20:12:47.3980,0.09,-0.01,0.22
2020-08-12 20:12:47.4970,-0.64,0.17,0.09
2020-08-12 20:12:47.5960,-0.25,0.05,0.04
2020-08-12 20:12:47.6950,-0.05,-0.14,0.12
2020-08-12 20:12:47.7950,0.11,-0.09,0.1
2020-08-12 20:12:47.8940,0.23,-0.11,0.05
2020-08-12 20:12:47.9920,0.48,-0.09,-0.06
2020-08-12 20:12:48.0920,0.7,-0.04,-0.03
2020-08-12 20:12:48.1920,-0.85,-0.06,0.08
2020-08-12 20:12:48.2910,0.16,-0.07,0.09
2020-08-12 20:12:48.3900,-0.0,-0.06,0.01
2020-08-12 20:12:48.4890,-0.06,0.0,0.06
2020-08-12 20:12:48.5880,0.0,-0.01,0.04
2020-08-12 20:12:48.6880,-0.04,0.0,-0.0
2020-08-12 20:12:48.7870,-0.08,0.04,0.05
2020-08-12 20:12:48.8860,-0.01,0.02,-0.01
2020-08-12 20:12:48.9850,0.02,-0.0,0.03
2020-08-12 20:12:49.0840,0.0,-0.08,-0.02
2020-08-12 20:12:49.1840,-0.18,-0.34,-0.09
2020-08-12 20:12:49.2830,-0.62,-0.14,0.05
2020-08-12 20:12:49.3830,-0.21,-0.03,0.18
2020-08-12 20:12:49.4820,-0.68,0.31,0.11
2020-08-12 20:12:49.5810,-0.05,-0.2,0.01
2020-08-12 20:12:49.6800,0.1,-0.25,0.01
2020-08-12 20:12:49.7800,0.37,-0.16,0.02
2020-08-12 20:12:49.8790,0.48,-0.11,-0.06
2020-08-12 20:12:49.9780,0.8,-0.01,0.04
2020-08-12 20:12:50.0770,-0.19,-0.33,0.02
2020-08-12 20:12:50.1760,0.11,0.03,0.23
2020-08-12 20:12:50.2760,0.18,-0.15,-0.03
2020-08-12 20:12:50.3750,-0.03,0.01,0.04
2020-08-12 20:12:50.4750,0.02,-0.01,0.03
2020-08-12 20:12:50.5740,0.02,-0.03,-0.02
2020-08-12 20:12:50.6730,0.01,0.02,0.0
2020-08-12 20:12:50.7720,0.03,0.04,-0.03
2020-08-12 20:12:50.8720,0.08,-0.03,-0.01
2020-08-12 20:12:50.9710,-0.02,-0.04,0.03
2020-08-12 20:12:51.0690,-0.33,-0.49,0.07
2020-08-12 20:12:51.1690,0.01,-0.25,0.22
2020-08-12 20:12:51.2690,-0.63,0.19,0.06
2020-08-12 20:12:51.3680,-0.38,0.06,-0.01
2020-08-12 20:12:51.4670,-0.18,-0.13,-0.01
2020-08-12 20:12:51.5660,0.16,-0.15,0.05
2020-08-12 20:12:51.6660,0.37,-0.09,0.06
2020-08-12 20:12:51.7650,0.49,-0.07,-0.04
2020-08-12 20:12:51.8640,0.91,-0.13,0.1
2020-08-12 20:12:51.9630,0.36,-0.21,-0.11
2020-08-12 20:12:52.0630,0.03,-0.01,0.07
2020-08-12 20:12:52.1620,-0.04,-0.0,0.03
2020-08-12 20:12:52.2600,-0.02,0.01,-0.03
2020-08-12 20:12:52.3600,0.01,0.0,0.02
2020-08-12 20:12:52.4590,-0.07,0.02,0.03
2020-08-12 20:12:52.5590,-0.04,0.01,0.02
2020-08-12 20:12:52.6580,0.02,-0.02,0.01
2020-08-12 20:12:52.7570,0.03,-0.03,0.02
2020-08-12 20:12:52.8560,-0.05,-0.08,-0.01
2020-08-12 20:12:52.9560,-0.34,-0.48,0.12
2020-08-12 20:12:53.0550,-0.12,-0.25,0.3
2020-08-12 20:12:53.1540,-0.7,0.05,0.09
2020-08-12 20:12:53.2540,-0.47,0.18,0.04
2020-08-12 20:12:53.3530,-0.14,-0.17,0.07
2020-08-12 20:12:53.4520,0.18,-0.16,0.04
2020-08-12 20:12:53.5510,0.42,-0.12,-0.0
2020-08-12 20:12:53.6500,0.57,-0.1,-0.02
2020-08-12 20:12:53.7500,0.83,0.02,0.1
2020-08-12 20:12:53.8490,-0.14,-0.29,-0.09
2020-08-12 20:12:53.9480,0.31,-0.01,0.11
2020-08-12 20:12:54.0480,0.13,-0.06,-0.06
2020-08-12 20:12:54.1460,-0.02,-0.01,0.04
2020-08-12 20:12:54.2450,0.0,0.01,0.04
2020-08-12 20:12:54.3450,0.02,-0.02,-0.02
2020-08-12 20:12:54.4450,0.0,0.01,0.02
2020-08-12 20:12:54.5440,-0.04,0.03,-0.01
2020-08-12 20:12:54.6430,0.04,-0.02,-0.01
2020-08-12 20:12:54.7410,-0.05,-0.05,-0.03
2020-08-12 20:12:54.8410,-0.11,-0.27,0.06
2020-08-12 20:12:54.9410,-0.23,-0.38,-0.0
2020-08-12 20:12:55.0400,-0.08,-0.13,0.09
2020-08-12 20:12:55.1390,-0.66,0.13,0.12
2020-08-12 20:12:55.2390,-0.41,0.05,-0.02
2020-08-12 20:12:55.3380,0.01,-0.17,0.02
2020-08-12 20:12:55.4360,0.29,-0.2,0.03
2020-08-12 20:12:55.5360,0.5,-0.08,-0.01
2020-08-12 20:12:55.6360,0.66,-0.05,-0.0
2020-08-12 20:12:55.7350,0.14,-0.22,0.03
2020-08-12 20:12:55.8340,0.22,-0.18,-0.07
2020-08-12 20:12:55.9330,-0.16,0.05,0.11
2020-08-12 20:12:56.0330,0.01,0.01,0.03
2020-08-12 20:12:56.1320,0.01,-0.0,-0.01
2020-08-12 20:12:56.2310,0.02,0.01,0.02
2020-08-12 20:12:56.3300,0.0,0.02,-0.01
2020-08-12 20:12:56.4290,0.03,0.02,-0.0
2020-08-12 20:12:56.5280,0.02,-0.01,-0.0
2020-08-12 20:12:56.6270,-0.05,0.0,0.04
2020-08-12 20:12:56.7270,0.01,0.17,0.03
2020-08-12 20:12:56.8270,-0.13,-0.06,-0.02
2020-08-12 20:12:56.9250,0.11,0.03,-0.03
2020-08-12 20:12:57.0250,-0.46,-0.0,0.0
2020-08-12 20:12:57.1240,-0.14,-0.02,-0.0
2020-08-12 20:12:57.2230,0.21,0.03,-0.03
2020-08-12 20:12:57.3230,0.24,0.07,0.02
2020-08-12 20:12:57.4220,-0.04,0.02,-0.1
2020-08-12 20:12:57.5210,-0.05,-0.06,0.06
2020-08-12 20:12:57.6210,-0.03,0.01,-0.01
2020-08-12 20:12:57.7190,-0.05,0.0,0.02
2020-08-12 20:12:57.8190,-0.01,-0.02,0.0
2020-08-12 20:12:57.9190,0.02,0.0,-0.04
2020-08-12 20:12:58.0180,0.03,0.01,0.01
2020-08-12 20:12:58.1160,-0.01,0.0,0.02
2020-08-12 20:12:58.2150,-0.1,0.01,-0.01
2020-08-12 20:12:58.3150,0.07,-0.0,-0.01
2020-08-12 20:12:58.4140,-0.01,0.02,-0.0
2020-08-12 20:12:58.5130,-0.01,0.01,0.01
2020-08-12 20:12:58.6120,-0.0,0.0,0.02
2020-08-12 20:12:58.7120,0.05,-0.0,-0.02
2020-08-12 20:12:58.8110,0.0,-0.0,-0.01
2020-08-12 20:12:58.9110,-0.03,0.0,-0.01
2020-08-12 20:12:59.0100,-0.01,0.01,0.01
2020-08-12 20:12:59.1090,-0.0,0.01,-0.0
2020-08-12 20:12:59.2080,0.01,0.01,0.01
2020-08-12 20:12:59.3080,-0.0,0.0,0.01
2020-08-12 20:12:59.4070,-0.01,0.0,-0.0
2020-08-12 20:12:59.5060,0.02,-0.0,0.02
2020-08-12 20:12:59.6050,0.03,0.0,-0.03
