time,ax,ay,az
2020-08-13 11:43:02.3760,0.0,-0.01,0.02
2020-08-13 11:43:02.4750,0.02,-0.01,-0.01
2020-08-13 11:43:02.5730,0.02,0.0,-0.03
2020-08-13 11:43:02.6730,-0.01,-0.0,0.01
2020-08-13 11:43:02.7720,-0.03,0.01,-0.01
2020-08-13 11:43:02.8710,0.02,0.0,0.01
2020-08-13 11:43:02.9700,-0.06,0.0,-0.0
2020-08-13 11:43:03.0710,-0.06,0.03,0.01
2020-08-13 11:43:03.1690,0.02,-0.01,-0.01
2020-08-13 11:43:03.2680,0.01,0.01,-0.0
2020-08-13 11:43:03.3670,0.03,-0.0,-0.01
2020-08-13 11:43:03.4670,-0.17,0.09,0.02
2020-08-13 11:43:03.5660,-0.06,0.02,0.04
2020-08-13 11:43:03.6650,-0.02,0.02,0.0
2020-08-13 11:43:03.7640,0.05,-0.04,-0.08
2020-08-13 11:43:03.8640,-0.0,0.0,0.0
2020-08-13 11:43:03.9630,0.04,0.03,0.04
2020-08-13 11:43:04.0620,0.05,0.03,-0.01
2020-08-13 11:43:04.1620,-0.01,-0.0,0.01
2020-08-13 11:43:04.2610,0.01,-0.01,-0.01
2020-08-13 11:43:04.3600,0.0,-0.01,0.03
2020-08-13 11:43:04.4590,0.01,0.0,-0.01
2020-08-13 11:43:04.5590,-0.02,0.02,0.0
2020-08-13 11:43:04.6580,-0.03,0.02,0.02
2020-08-13 11:43:04.7570,0.01,0.0,-0.01
2020-08-13 11:43:04.8560,-0.01,0.01,-0.0
2020-08-13 11:43:04.9560,-0.01,0.02,0.01
2020-08-13 11:43:05.0550,-0.0,-0.01,-0.01
2020-08-13 11:43:05.1540,-0.01,0.0,0.01
2020-08-13 11:43:05.2530,0.01,-0.0,-0.01
2020-08-13 11:43:05.3530,-0.03,-0.0,0.01
2020-08-13 11:43:05.4520,0.03,0.03,0.02
2020-08-13 11:43:05.5510,0.01,0.02,-0.02
2020-08-13 11:43:05.6500,-0.03,0.01,0.0
2020-08-13 11:43:05.7510,-0.01,0.03,-0.0
2020-08-13 11:43:05.8490,-0.01,0.01,0.01
2020-08-13 11:43:05.9480,-0.04,0.02,0.03
2020-08-13 11:43:06.0470,-0.03,-0.01,0.01
2020-08-13 11:43:06.1470,-0.0,-0.01,-0.01
2020-08-13 11:43:06.2460,0.02,-0.01,-0.03
2020-08-13 11:43:06.3450,0.03,0.01,-0.06
2020-08-13 11:43:06.4440,-0.02,0.01,-0.0
2020-08-13 11:43:06.5440,-0.01,0.0,-0.01
2020-08-13 11:43:06.6430,-0.05,-0.01,0.03
2020-08-13 11:43:06.7430,-0.1,-0.01,0.03
2020-08-13 11:43:06.8410,-0.01,-0.26,0.43
2020-08-13 11:43:06.9410,-0.81,0.13,0.13
2020-08-13 11:43:07.0400,-0.4,-0.01,-0.08
2020-08-13 11:43:07.1400,0.06,-0.15,-0.04
2020-08-13 11:43:07.2380,0.28,-0.05,-0.01
2020-08-13 11:43:07.3380,0.48,-0.01,-0.03
2020-08-13 11:43:07.4370,0.43,0.05,0.0
2020-08-13 11:43:07.5370,-0.78,-0.14,-0.18
2020-08-13 11:43:07.6350,0.43,-0.13,0.29
2020-08-13 11:43:07.7350,-0.03,0.01,0.01
2020-08-13 11:43:07.8340,-0.05,0.03,0.06
2020-08-13 11:43:07.9340,-0.03,0.01,0.03
2020-08-13 11:43:08.0320,0.0,0.01,-0.05
2020-08-13 11:43:08.1320,0.08,-0.03,-0.14
2020-08-13 11:43:08.2310,-0.03,0.04,0.07
2020-08-13 11:43:08.3310,-0.11,-0.03,0.0
2020-08-13 11:43:08.4290,-0.09,-0.08,0.05
2020-08-13 11:43:08.5290,-0.2,-0.38,0.01
2020-08-13 11:43:08.6280,-0.59,-0.37,0.21
2020-08-13 11:43:08.7280,-0.23,-0.04,0.09
2020-08-13 11:43:08.8260,-0.8,0.27,0.13
2020-08-13 11:43:08.9260,-0.34,-0.08,-0.04
2020-08-13 11:43:09.0250,0.04,-0.29,0.03
2020-08-13 11:43:09.1250,0.37,-0.38,-0.02
2020-08-13 11:43:09.2240,0.56,-0.13,-0.09
2020-08-13 11:43:09.3230,0.88,0.01,0.08
2020-08-13 11:43:09.4220,-0.61,-0.28,-0.16
2020-08-13 11:43:09.5220,0.39,-0.3,-0.03
2020-08-13 11:43:09.6210,-0.21,-0.01,-0.06
2020-08-13 11:43:09.7200,-0.19,0.05,0.05
2020-08-13 11:43:09.8190,-0.01,0.0,0.03
2020-08-13 11:43:09.9190,-0.1,0.08,0.08
2020-08-13 11:43:10.0170,0.07,-0.09,-0.1
2020-08-13 11:43:10.1170,-0.01,-0.03,-0.02
2020-08-13 11:43:10.2160,-0.09,-0.05,0.07
2020-08-13 11:43:10.3160,-0.08,-0.18,0.02
2020-08-13 11:43:10.4150,-0.32,-0.47,0.04
2020-08-13 11:43:10.5140,-0.3,-0.22,0.61
2020-08-13 11:43:10.6130,-0.87,0.09,0.3
2020-08-13 11:43:10.7130,-0.63,0.22,0.13
2020-08-13 11:43:10.8120,-0.08,-0.18,0.0
2020-08-13 11:43:10.9110,0.18,-0.4,-0.0
2020-08-13 11:43:11.0100,0.51,-0.4,-0.16
2020-08-13 11:43:11.1100,1.02,-0.11,-0.12
2020-08-13 11:43:11.2090,0.83,-0.01,0.09
2020-08-13 11:43:11.3090,0.38,-0.28,-0.2
2020-08-13 11:43:11.4070,-0.17,0.08,0.06
2020-08-13 11:43:11.5070,-0.02,0.01,0.05
2020-08-13 11:43:11.6060,0.02,-0.03,-0.04
2020-08-13 11:43:11.7050,-0.04,0.05,0.04
2020-08-13 11:43:11.8040,0.01,-0.03,-0.05
2020-08-13 11:43:11.9040,-0.06,0.01,0.02
2020-08-13 11:43:12.0030,-0.05,-0.04,-0.03
2020-08-13 11:43:12.1030,-0.1,-0.08,0.04
2020-08-13 11:43:12.2010,-0.22,-0.24,0.1
2020-08-13 11:43:12.3010,-0.44,-0.5,0.14
2020-08-13 11:43:12.4000,-0.12,-0.03,0.25
2020-08-13 11:43:12.5000,-0.66,0.19,0.11
2020-08-13 11:43:12.5980,-0.22,-0.05,-0.1
2020-08-13 11:43:12.6980,0.18,-0.41,0.03
2020-08-13 11:43:12.7970,0.53,-0.27,-0.01
2020-08-13 11:43:12.8970,0.59,-0.12,-0.04
2020-08-13 11:43:12.9950,0.88,-0.03,-0.04
2020-08-13 11:43:13.0950,-0.99,-0.15,-0.27
2020-08-13 11:43:13.1940,0.43,-0.3,-0.13
2020-08-13 11:43:13.2940,0.13,-0.13,-0.18
2020-08-13 11:43:13.3920,-0.01,0.04,0.07
2020-08-13 11:43:13.4920,-0.07,0.08,0.05
2020-08-13 11:43:13.5910,0.05,-0.05,-0.11
2020-08-13 11:43:13.6910,-0.04,-0.0,0.02
2020-08-13 11:43:13.7890,-0.07,0.01,0.02
2020-08-13 11:43:13.8890,-0.03,0.0,-0.01
2020-08-13 11:43:13.9880,-0.06,-0.12,-0.07
2020-08-13 11:43:14.0880,-0.22,-0.42,0.08
2020-08-13 11:43:14.1860,-0.39,-0.33,0.27
2020-08-13 11:43:14.2860,-0.14,-0.07,0.19
2020-08-13 11:43:14.3850,-0.58,0.14,0.06
2020-08-13 11:43:14.4860,-0.16,-0.12,0.04
2020-08-13 11:43:14.5830,0.08,-0.21,-0.02
2020-08-13 11:43:14.6840,0.43,-0.34,-0.03
2020-08-13 11:43:14.7820,0.64,-0.14,-0.09
2020-08-13 11:43:14.8820,0.77,0.01,-0.06
2020-08-13 11:43:14.9800,-1.21,-0.17,-0.09
2020-08-13 11:43:15.0800,0.09,-0.18,0.12
2020-08-13 11:43:15.1790,-0.04,0.0,-0.08
2020-08-13 11:43:15.2790,-0.03,0.03,0.03
2020-08-13 11:43:15.3780,-0.09,0.05,0.1
2020-08-13 11:43:15.4770,-0.05,-0.02,-0.04
2020-08-13 11:43:15.5760,-0.02,-0.03,0.01
2020-08-13 11:43:15.6760,-0.08,0.01,0.03
2020-08-13 11:43:15.7750,-0.03,-0.03,0.01
2020-08-13 11:43:15.8740,-0.05,-0.09,-0.04
2020-08-13 11:43:15.9730,-0.3,-0.4,0.09
2020-08-13 11:43:16.0730,-0.61,-0.44,0.24
2020-08-13 11:43:16.1720,-0.11,-0.0,0.27
2020-08-13 11:43:16.2710,-0.54,0.26,0.11
2020-08-13 11:43:16.3700,-0.37,0.01,0.02
2020-08-13 11:43:16.4700,0.15,-0.37,0.08
2020-08-13 11:43:16.5690,0.37,-0.33,0.01
2020-08-13 11:43:16.6680,0.6,-0.2,0.03
2020-08-13 11:43:16.7670,0.74,-0.03,-0.07
2020-08-13 11:43:16.8670,-0.8,-0.34,0.21
2020-08-13 11:43:16.9660,0.46,-0.21,0.45
2020-08-13 11:43:17.0660,-0.3,0.08,0.11
2020-08-13 11:43:17.1640,0.03,-0.01,-0.06
2020-08-13 11:43:17.2640,-0.0,0.0,0.07
2020-08-13 11:43:17.3630,-0.06,0.08,0.07
2020-08-13 11:43:17.4620,0.03,-0.04,-0.06
2020-08-13 11:43:17.5610,-0.03,-0.02,0.03
2020-08-13 11:43:17.6610,-0.0,-0.08,-0.05
2020-08-13 11:43:17.7600,-0.05,-0.14,-0.02
2020-08-13 11:43:17.8600,-0.4,-0.49,0.1
2020-08-13 11:43:17.9580,-0.31,-0.27,0.18
2020-08-13 11:43:18.0590,-0.53,0.04,0.1
2020-08-13 11:43:18.1570,-0.49,0.19,0.09
2020-08-13 11:43:18.2560,-0.08,-0.23,0.04
2020-08-13 11:43:18.3550,0.1,-0.27,-0.02
2020-08-13 11:43:18.4550,0.35,-0.27,-0.04
2020-08-13 11:43:18.5540,0.62,-0.07,-0.04
2020-08-13 11:43:18.6540,0.81,-0.03,0.01
2020-08-13 11:43:18.7520,-0.19,-0.32,-0.07
2020-08-13 11:43:18.8520,0.58,0.05,0.11
2020-08-13 11:43:18.9510,0.2,0.0,-0.06
2020-08-13 11:43:19.0510,0.02,0.0,0.0
2020-08-13 11:43:19.1490,-0.03,0.0,0.07
2020-08-13 11:43:19.2490,0.06,-0.03,-0.13
2020-08-13 11:43:19.3480,-0.05,-0.01,-0.01
2020-08-13 11:43:19.4480,-0.06,-0.03,-0.01
2020-08-13 11:43:19.5460,-0.07,-0.05,0.03
2020-08-13 11:43:19.6460,-0.12,-0.25,0.0
2020-08-13 11:43:19.7450,-0.45,-0.73,0.05
2020-08-13 11:43:19.8440,-0.28,-0.02,0.35
2020-08-13 11:43:19.9440,-0.94,0.24,0.15
2020-08-13 11:43:20.0430,-0.49,0.23,0.08
2020-08-13 11:43:20.1420,0.08,-0.2,0.01
2020-08-13 11:43:20.2410,0.26,-0.21,0.0
2020-08-13 11:43:20.3410,0.45,-0.24,-0.06
2020-08-13 11:43:20.4400,0.66,-0.07,-0.04
2020-08-13 11:43:20.5400,0.79,0.02,-0.09
2020-08-13 11:43:20.6380,0.26,-0.32,-0.43
2020-08-13 11:43:20.7380,0.18,0.08,-0.06
2020-08-13 11:43:20.8370,0.21,-0.07,-0.02
2020-08-13 11:43:20.9360,0.06,-0.03,-0.04
2020-08-13 11:43:21.0350,-0.02,0.03,0.02
2020-08-13 11:43:21.1350,0.05,-0.01,-0.04
2020-08-13 11:43:21.2340,-0.05,0.09,0.07
2020-08-13 11:43:21.3340,0.04,-0.09,-0.08
2020-08-13 11:43:21.4320,-0.05,-0.11,0.02
2020-08-13 11:43:21.5320,-0.12,-0.12,-0.04
2020-08-13 11:43:21.6310,-0.38,-0.7,-0.02
2020-08-13 11:43:21.7300,-0.03,-0.19,0.13
2020-08-13 11:43:21.8290,-0.83,0.27,0.21
2020-08-13 11:43:21.9290,-0.42,0.22,0.09
2020-08-13 11:43:22.0280,-0.1,-0.25,0.02
2020-08-13 11:43:22.1280,0.3,-0.36,0.03
2020-08-13 11:43:22.2260,0.5,-0.22,-0.02
2020-08-13 11:43:22.3260,0.82,-0.12,-0.03
2020-08-13 11:43:22.4250,0.56,-0.24,0.34
2020-08-13 11:43:22.5250,0.35,-0.11,-0.1
2020-08-13 11:43:22.6230,-0.2,0.04,-0.04
2020-08-13 11:43:22.7230,-0.11,0.02,0.01
2020-08-13 11:43:22.8220,-0.0,0.02,-0.0
2020-08-13 11:43:22.9210,-0.02,-0.01,-0.01
2020-08-13 11:43:23.0210,0.0,0.02,0.02
2020-08-13 11:43:23.1200,-0.05,0.01,0.01
2020-08-13 11:43:23.2200,0.02,-0.06,-0.09
2020-08-13 11:43:23.3180,-0.1,-0.08,0.07
2020-08-13 11:43:23.4180,-0.15,-0.33,0.02
2020-08-13 11:43:23.5170,-0.3,-0.29,-0.17
2020-08-13 11:43:23.6160,-0.09,-0.2,0.08
2020-08-13 11:43:23.7150,-0.89,0.21,0.14
2020-08-13 11:43:23.8150,-0.62,0.18,0.08
2020-08-13 11:43:23.9140,-0.03,-0.24,0.03
2020-08-13 11:43:24.0130,0.23,-0.29,0.03
2020-08-13 11:43:24.1120,0.61,-0.2,-0.05
2020-08-13 11:43:24.2120,0.83,-0.05,-0.1
2020-08-13 11:43:24.3110,-1.13,-0.2,-0.04
2020-08-13 11:43:24.4100,0.15,-0.05,0.13
2020-08-13 11:43:24.5100,-0.24,0.02,0.01
2020-08-13 11:43:24.6090,-0.15,0.02,0.01
2020-08-13 11:43:24.7080,0.03,-0.01,-0.06
2020-08-13 11:43:24.8070,-0.07,0.01,0.03
2020-08-13 11:43:24.9060,-0.03,-0.01,0.05
2020-08-13 11:43:25.0060,-0.02,0.01,-0.01
2020-08-13 11:43:25.1050,-0.03,-0.03,0.03
2020-08-13 11:43:25.2040,-0.05,-0.12,-0.08
2020-08-13 11:43:25.3030,-0.28,-0.64,0.03
2020-08-13 11:43:25.4030,-0.33,-0.14,0.44
2020-08-13 11:43:25.5020,-0.71,0.16,0.24
2020-08-13 11:43:25.6010,-0.53,0.18,0.07
2020-08-13 11:43:25.7010,-0.13,-0.22,-0.01
2020-08-13 11:43:25.8000,0.14,-0.26,0.04
2020-08-13 11:43:25.9000,0.34,-0.33,-0.06
2020-08-13 11:43:25.9980,0.77,-0.15,-0.08
2020-08-13 11:43:26.0970,0.84,0.01,-0.01
2020-08-13 11:43:26.1970,-0.81,-0.37,0.38
2020-08-13 11:43:26.2960,0.19,-0.06,0.23
2020-08-13 11:43:26.3960,0.06,-0.03,-0.06
2020-08-13 11:43:26.4950,-0.04,0.01,0.02
2020-08-13 11:43:26.5940,-0.0,-0.01,0.01
2020-08-13 11:43:26.6930,0.03,-0.0,-0.03
2020-08-13 11:43:26.7930,-0.01,-0.01,-0.01
2020-08-13 11:43:26.8910,-0.03,-0.01,-0.03
2020-08-13 11:43:26.9910,-0.0,-0.08,0.04
2020-08-13 11:43:27.0900,-0.15,-0.31,0.02
2020-08-13 11:43:27.1890,-0.62,-0.49,-0.04
2020-08-13 11:43:27.2880,-0.26,-0.11,0.19
2020-08-13 11:43:27.3880,-0.82,0.2,0.09
2020-08-13 11:43:27.4870,-0.46,0.34,0.07
2020-08-13 11:43:27.5870,0.06,-0.32,0.06
2020-08-13 11:43:27.6860,0.46,-0.38,0.06
2020-08-13 11:43:27.7850,0.52,-0.17,-0.04
2020-08-13 11:43:27.8850,0.79,-0.06,-0.1
2020-08-13 11:43:27.9830,-1.23,-0.13,-0.23
2020-08-13 11:43:28.0830,0.21,-0.17,0.33
2020-08-13 11:43:28.1820,-0.11,0.02,-0.02
2020-08-13 11:43:28.2810,-0.15,0.02,-0.01
2020-08-13 11:43:28.3800,-0.06,0.03,0.06
2020-08-13 11:43:28.4800,-0.04,0.02,0.05
2020-08-13 11:43:28.5790,-0.06,-0.01,0.0
2020-08-13 11:43:28.6780,-0.03,-0.04,0.05
2020-08-13 11:43:28.7780,0.08,-0.11,-0.05
2020-08-13 11:43:28.8770,-0.1,-0.18,0.03
2020-08-13 11:43:28.9760,-0.66,-0.57,0.11
2020-08-13 11:43:29.0750,-0.08,-0.1,0.14
2020-08-13 11:43:29.1750,-0.74,0.27,0.18
2020-08-13 11:43:29.2740,-0.51,0.22,0.06
2020-08-13 11:43:29.3740,-0.02,-0.28,0.07
2020-08-13 11:43:29.4720,0.33,-0.26,0.06
2020-08-13 11:43:29.5720,0.48,-0.21,-0.07
2020-08-13 11:43:29.6710,0.76,-0.02,-0.06
2020-08-13 11:43:29.7710,0.59,-0.22,0.02
2020-08-13 11:43:29.8690,0.56,-0.13,0.01
2020-08-13 11:43:29.9690,-0.07,0.01,-0.09
2020-08-13 11:43:30.0680,0.01,0.02,0.1
2020-08-13 11:43:30.1680,-0.02,0.0,0.03
2020-08-13 11:43:30.2660,0.0,0.0,0.0
2020-08-13 11:43:30.3660,0.01,-0.01,-0.03
2020-08-13 11:43:30.4650,-0.05,-0.01,0.01
2020-08-13 11:43:30.5650,-0.01,-0.07,0.01
2020-08-13 11:43:30.6630,-0.04,-0.13,-0.04
2020-08-13 11:43:30.7630,-0.21,-0.64,-0.01
2020-08-13 11:43:30.8620,-0.42,-0.16,0.29
2020-08-13 11:43:30.9610,-0.88,0.13,0.02
2020-08-13 11:43:31.0600,-0.54,0.14,0.03
2020-08-13 11:43:31.1600,-0.06,-0.26,0.07
2020-08-13 11:43:31.2590,0.17,-0.26,0.07
2020-08-13 11:43:31.3590,0.58,-0.24,0.09
2020-08-13 11:43:31.4570,0.7,-0.07,-0.05
2020-08-13 11:43:31.5570,0.59,-0.06,-0.04
2020-08-13 11:43:31.6560,0.55,-0.17,-0.37
2020-08-13 11:43:31.7560,0.06,-0.1,-0.16
2020-08-13 11:43:31.8540,0.14,-0.03,-0.01
2020-08-13 11:43:31.9540,-0.01,0.04,0.09
2020-08-13 11:43:32.0530,-0.0,0.02,-0.02
2020-08-13 11:43:32.1530,0.02,-0.02,-0.01
2020-08-13 11:43:32.2520,-0.09,-0.0,0.1
2020-08-13 11:43:32.3510,-0.05,-0.04,0.06
2020-08-13 11:43:32.4500,-0.09,-0.07,0.02
2020-08-13 11:43:32.5500,-0.12,-0.31,0.07
2020-08-13 11:43:32.6490,-0.45,-0.37,0.02
2020-08-13 11:43:32.7480,-0.12,-0.14,0.04
2020-08-13 11:43:32.8470,-0.66,0.19,0.23
2020-08-13 11:43:32.9460,-0.28,-0.08,0.02
2020-08-13 11:43:33.0460,0.08,-0.26,0.01
2020-08-13 11:43:33.1450,0.4,-0.29,0.05
2020-08-13 11:43:33.2450,0.63,-0.18,-0.09
2020-08-13 11:43:33.3430,0.94,-0.07,0.01
2020-08-13 11:43:33.4430,-1.11,-0.19,0.19
2020-08-13 11:43:33.5420,0.02,0.04,0.28
2020-08-13 11:43:33.6410,-0.11,0.01,-0.03
2020-08-13 11:43:33.7400,-0.03,0.01,0.02
2020-08-13 11:43:33.8400,-0.03,0.02,0.0
2020-08-13 11:43:33.9390,0.01,-0.03,0.01
2020-08-13 11:43:34.0380,-0.04,-0.0,0.01
2020-08-13 11:43:34.1380,0.01,-0.0,-0.01
2020-08-13 11:43:34.2370,-0.02,-0.03,0.01
2020-08-13 11:43:34.3360,-0.1,-0.1,0.01
2020-08-13 11:43:34.4350,-0.2,-0.45,0.03
2020-08-13 11:43:34.5350,-0.71,-0.32,0.35
2020-08-13 11:43:34.6340,-0.16,0.05,0.33
2020-08-13 11:43:34.7330,-0.54,0.21,0.16
2020-08-13 11:43:34.8320,-0.24,-0.12,0.02
2020-08-13 11:43:34.9320,0.14,-0.25,0.03
2020-08-13 11:43:35.0310,0.44,-0.31,0.01
2020-08-13 11:43:35.1300,0.61,-0.15,-0.07
2020-08-13 11:43:35.2290,0.81,-0.01,-0.09
2020-08-13 11:43:35.3280,-0.2,-0.41,0.13
2020-08-13 11:43:35.4280,0.51,-0.21,0.31
2020-08-13 11:43:35.5270,0.08,0.01,0.01
2020-08-13 11:43:35.6260,0.02,-0.01,-0.03
2020-08-13 11:43:35.7260,-0.01,0.01,0.04
2020-08-13 11:43:35.8250,0.02,0.01,0.0
2020-08-13 11:43:35.9240,-0.04,0.03,0.01
2020-08-13 11:43:36.0230,-0.06,-0.02,-0.01
2020-08-13 11:43:36.1230,-0.02,-0.08,0.01
2020-08-13 11:43:36.2220,-0.13,-0.21,-0.09
2020-08-13 11:43:36.3210,-0.64,-0.73,0.1
2020-08-13 11:43:36.4210,-0.1,-0.2,0.16
2020-08-13 11:43:36.5200,-0.9,0.33,0.13
2020-08-13 11:43:36.6190,-0.56,0.21,0.1
2020-08-13 11:43:36.7180,0.09,-0.26,0.0
2020-08-13 11:43:36.8180,0.26,-0.24,0.04
2020-08-13 11:43:36.9170,0.51,-0.21,-0.1
2020-08-13 11:43:37.0160,0.7,-0.06,-0.14
2020-08-13 11:43:37.1160,0.52,-0.26,0.34
2020-08-13 11:43:37.2140,0.43,-0.12,-0.16
2020-08-13 11:43:37.3140,-0.01,-0.0,-0.1
2020-08-13 11:43:37.4130,0.03,0.02,0.05
2020-08-13 11:43:37.5130,-0.05,0.03,0.01
2020-08-13 11:43:37.6110,0.0,0.01,-0.02
2020-08-13 11:43:37.7110,-0.04,-0.02,-0.01
2020-08-13 11:43:37.8110,-0.04,0.01,0.01
2020-08-13 11:43:37.9090,0.02,-0.03,-0.05
2020-08-13 11:43:38.0080,-0.04,-0.19,-0.05
2020-08-13 11:43:38.1080,-0.22,-0.47,0.01
2020-08-13 11:43:38.2080,-0.52,-0.22,0.44
2020-08-13 11:43:38.3060,0.02,0.05,0.32
2020-08-13 11:43:38.4060,-0.55,0.26,0.07
2020-08-13 11:43:38.5050,-0.27,-0.22,-0.06
2020-08-13 11:43:38.6050,0.09,-0.25,-0.02
2020-08-13 11:43:38.7030,0.45,-0.4,0.01
2020-08-13 11:43:38.8030,0.82,-0.14,-0.09
2020-08-13 11:43:38.9020,1.02,-0.02,-0.07
2020-08-13 11:43:39.0010,-0.31,-0.57,0.38
2020-08-13 11:43:39.1000,0.13,0.06,0.2
2020-08-13 11:43:39.2000,-0.08,0.03,0.03
2020-08-13 11:43:39.2990,0.0,-0.01,-0.04
2020-08-13 11:43:39.3990,-0.03,0.01,-0.01
2020-08-13 11:43:39.4970,0.08,-0.03,-0.1
2020-08-13 11:43:39.5970,-0.07,-0.01,0.04
2020-08-13 11:43:39.6960,-0.07,0.01,0.07
2020-08-13 11:43:39.7960,-0.01,-0.09,-0.08
2020-08-13 11:43:39.8940,-0.15,-0.35,0.05
2020-08-13 11:43:39.9940,-0.59,-0.52,0.14
2020-08-13 11:43:40.0930,-0.12,-0.01,0.2
2020-08-13 11:43:40.1930,-0.57,0.16,0.14
2020-08-13 11:43:40.2920,-0.31,-0.05,0.02
2020-08-13 11:43:40.3910,0.17,-0.28,0.01
2020-08-13 11:43:40.4900,0.28,-0.21,-0.02
2020-08-13 11:43:40.5900,0.63,-0.18,-0.0
2020-08-13 11:43:40.6880,0.72,-0.03,-0.04
2020-08-13 11:43:40.7880,-0.79,-0.21,-0.11
2020-08-13 11:43:40.8870,0.21,-0.2,0.17
2020-08-13 11:43:40.9870,-0.27,0.05,0.03
2020-08-13 11:43:41.0850,-0.07,0.0,0.05
2020-08-13 11:43:41.1850,0.0,0.0,-0.03
2020-08-13 11:43:41.2840,0.02,-0.0,-0.01
2020-08-13 11:43:41.3830,0.01,0.01,-0.02
2020-08-13 11:43:41.4830,-0.06,0.01,-0.01
2020-08-13 11:43:41.5820,-0.05,-0.04,-0.0
2020-08-13 11:43:41.6810,-0.06,-0.12,-0.05
2020-08-13 11:43:41.7800,-0.28,-0.49,0.02
2020-08-13 11:43:41.8800,-0.61,-0.45,0.57
2020-08-13 11:43:41.9790,-1.0,0.08,0.23
2020-08-13 11:43:42.0790,-0.6,0.23,0.07
2020-08-13 11:43:42.1770,-0.04,-0.22,-0.01
2020-08-13 11:43:42.2770,0.22,-0.29,0.04
2020-08-13 11:43:42.3760,0.55,-0.3,0.02
2020-08-13 11:43:42.4750,0.79,-0.15,-0.06
2020-08-13 11:43:42.5740,0.8,-0.03,-0.01
2020-08-13 11:43:42.6740,0.37,-0.28,-0.25
2020-08-13 11:43:42.7730,0.28,-0.2,-0.05
2020-08-13 11:43:42.8720,0.07,-0.01,0.03
2020-08-13 11:43:42.9720,0.0,-0.04,-0.03
2020-08-13 11:43:43.0700,-0.06,0.02,0.03
2020-08-13 11:43:43.1700,-0.03,0.02,0.06
2020-08-13 11:43:43.2700,-0.03,0.03,0.03
2020-08-13 11:43:43.3690,-0.01,-0.05,-0.03
2020-08-13 11:43:43.4670,-0.08,-0.15,0.03
2020-08-13 11:43:43.5680,-0.27,-0.66,0.09
2020-08-13 11:43:43.6660,-0.46,-0.24,0.53
2020-08-13 11:43:43.7660,-0.26,0.11,0.33
2020-08-13 11:43:43.8650,-0.55,0.25,0.1
2020-08-13 11:43:43.9650,-0.1,-0.26,0.04
2020-08-13 11:43:44.0630,0.31,-0.29,0.02
2020-08-13 11:43:44.1640,0.5,-0.3,-0.08
2020-08-13 11:43:44.2620,0.78,-0.1,-0.09
2020-08-13 11:43:44.3610,0.98,-0.04,-0.0
2020-08-13 11:43:44.4600,0.53,-0.36,-0.42
2020-08-13 11:43:44.5600,0.24,-0.08,0.01
2020-08-13 11:43:44.6590,0.04,0.01,0.06
2020-08-13 11:43:44.7580,-0.04,-0.0,-0.05
2020-08-13 11:43:44.8580,-0.0,0.0,0.03
2020-08-13 11:43:44.9570,0.0,-0.0,-0.01
2020-08-13 11:43:45.0560,-0.05,0.01,0.01
2020-08-13 11:43:45.1550,-0.07,-0.03,0.01
2020-08-13 11:43:45.2540,0.01,-0.12,-0.16
2020-08-13 11:43:45.3530,-0.13,-0.38,-0.12
2020-08-13 11:43:45.4530,-0.79,-0.35,0.49
2020-08-13 11:43:45.5520,-0.03,-0.09,0.25
2020-08-13 11:43:45.6520,-0.55,0.23,0.05
2020-08-13 11:43:45.7510,-0.28,-0.08,-0.08
2020-08-13 11:43:45.8510,0.15,-0.28,-0.0
2020-08-13 11:43:45.9490,0.45,-0.23,0.04
2020-08-13 11:43:46.0490,0.62,-0.15,0.0
2020-08-13 11:43:46.1480,0.78,-0.05,-0.02
2020-08-13 11:43:46.2470,-0.79,-0.26,0.18
2020-08-13 11:43:46.3460,0.21,-0.06,0.35
2020-08-13 11:43:46.4450,-0.09,0.01,-0.01
2020-08-13 11:43:46.5450,-0.01,-0.02,-0.03
2020-08-13 11:43:46.6440,0.03,-0.03,0.0
2020-08-13 11:43:46.7430,0.05,-0.0,-0.03
2020-08-13 11:43:46.8430,-0.07,0.04,-0.02
2020-08-13 11:43:46.9420,-0.01,0.02,0.03
2020-08-13 11:43:47.0410,-0.03,-0.14,0.01
2020-08-13 11:43:47.1400,-0.13,-0.3,0.04
2020-08-13 11:43:47.2390,-0.77,-0.39,0.19
2020-08-13 11:43:47.3390,0.03,-0.08,0.22
2020-08-13 11:43:47.4380,-0.54,0.22,0.09
2020-08-13 11:43:47.5380,-0.25,-0.01,-0.08
2020-08-13 11:43:47.6370,0.2,-0.26,0.03
2020-08-13 11:43:47.7360,0.41,-0.24,0.07
2020-08-13 11:43:47.8350,0.62,-0.19,-0.07
2020-08-13 11:43:47.9340,0.95,-0.06,-0.05
2020-08-13 11:43:48.0340,-0.13,-0.27,-0.02
2020-08-13 11:43:48.1330,0.37,-0.07,0.2
2020-08-13 11:43:48.2320,0.09,-0.02,-0.04
2020-08-13 11:43:48.3320,-0.03,-0.0,-0.0
2020-08-13 11:43:48.4310,-0.06,0.04,0.09
2020-08-13 11:43:48.5300,-0.01,0.01,-0.0
2020-08-13 11:43:48.6290,-0.04,0.01,0.01
2020-08-13 11:43:48.7290,-0.04,-0.03,0.0
2020-08-13 11:43:48.8280,-0.06,-0.08,-0.02
2020-08-13 11:43:48.9270,-0.34,-0.21,0.13
2020-08-13 11:43:49.0260,-0.6,-0.89,0.01
2020-08-13 11:43:49.1250,-0.15,-0.11,-0.04
2020-08-13 11:43:49.2250,-0.62,0.32,0.2
2020-08-13 11:43:49.3240,-0.36,0.14,-0.01
2020-08-13 11:43:49.4240,0.09,-0.22,-0.02
2020-08-13 11:43:49.5220,0.3,-0.2,0.02
2020-08-13 11:43:49.6220,0.55,-0.2,-0.02
2020-08-13 11:43:49.7210,0.68,-0.03,-0.07
2020-08-13 11:43:49.8210,-0.3,-0.31,-0.15
2020-08-13 11:43:49.9190,0.21,-0.09,0.04
2020-08-13 11:43:50.0190,-0.27,0.04,-0.08
2020-08-13 11:43:50.1180,-0.07,0.04,0.04
2020-08-13 11:43:50.2170,0.0,0.02,0.01
2020-08-13 11:43:50.3170,0.02,-0.02,-0.03
2020-08-13 11:43:50.4160,-0.03,0.03,0.05
2020-08-13 11:43:50.5160,-0.04,0.03,-0.0
2020-08-13 11:43:50.6140,-0.06,-0.06,-0.05
2020-08-13 11:43:50.7140,-0.19,-0.2,0.06
2020-08-13 11:43:50.8130,-0.36,-0.56,0.07
2020-08-13 11:43:50.9130,-0.27,-0.25,0.24
2020-08-13 11:43:51.0110,-0.96,0.19,0.08
2020-08-13 11:43:51.1110,-0.56,0.24,0.09
2020-08-13 11:43:51.2100,0.03,-0.29,0.04
2020-08-13 11:43:51.3100,0.28,-0.28,0.02
2020-08-13 11:43:51.4080,0.53,-0.27,-0.01
2020-08-13 11:43:51.5080,0.88,-0.08,-0.09
2020-08-13 11:43:51.6070,0.35,-0.18,0.12
2020-08-13 11:43:51.7070,0.46,-0.05,-0.17
2020-08-13 11:43:51.8050,-0.23,0.03,-0.01
2020-08-13 11:43:51.9050,0.05,-0.02,-0.0
2020-08-13 11:43:52.0040,0.01,-0.03,-0.03
2020-08-13 11:43:52.1030,0.03,0.03,0.03
2020-08-13 11:43:52.2030,-0.01,0.04,0.02
2020-08-13 11:43:52.3020,-0.02,0.01,-0.05
2020-08-13 11:43:52.4010,-0.08,-0.03,0.01
2020-08-13 11:43:52.5000,-0.09,-0.15,-0.02
2020-08-13 11:43:52.6000,-0.13,-0.75,-0.09
2020-08-13 11:43:52.6990,0.02,-0.34,0.08
2020-08-13 11:43:52.7990,-0.74,0.14,0.25
2020-08-13 11:43:52.8970,-0.54,0.22,0.14
2020-08-13 11:43:52.9970,-0.05,-0.2,-0.0
2020-08-13 11:43:53.0960,0.19,-0.28,0.06
2020-08-13 11:43:53.1960,0.34,-0.21,-0.03
2020-08-13 11:43:53.2940,0.87,-0.18,-0.02
2020-08-13 11:43:53.3940,0.84,-0.04,0.04
2020-08-13 11:43:53.4930,0.4,-0.28,-0.31
2020-08-13 11:43:53.5920,0.29,-0.03,-0.17
2020-08-13 11:43:53.6920,0.17,-0.01,0.05
2020-08-13 11:43:53.7910,-0.04,-0.01,0.02
2020-08-13 11:43:53.8900,0.0,-0.0,-0.03
2020-08-13 11:43:53.9890,-0.04,0.01,0.04
2020-08-13 11:43:54.0880,-0.01,0.02,-0.03
2020-08-13 11:43:54.1880,-0.08,-0.03,0.01
2020-08-13 11:43:54.2870,-0.08,-0.15,-0.13
2020-08-13 11:43:54.3860,-0.18,-0.54,0.03
2020-08-13 11:43:54.4860,-0.51,-0.28,0.36
2020-08-13 11:43:54.5850,-0.73,0.17,0.2
2020-08-13 11:43:54.6840,-0.57,0.22,0.03
2020-08-13 11:43:54.7830,-0.16,-0.18,0.02
2020-08-13 11:43:54.8830,0.16,-0.32,0.02
2020-08-13 11:43:54.9820,0.47,-0.28,0.01
2020-08-13 11:43:55.0810,0.68,-0.12,-0.09
2020-08-13 11:43:55.1800,0.78,-0.05,-0.01
2020-08-13 11:43:55.2800,-0.1,-0.38,-0.0
2020-08-13 11:43:55.3790,0.37,0.01,0.06
2020-08-13 11:43:55.4790,0.22,-0.03,-0.03
2020-08-13 11:43:55.5770,-0.0,0.0,0.02
2020-08-13 11:43:55.6770,-0.0,0.01,0.03
2020-08-13 11:43:55.7760,0.01,-0.01,0.01
2020-08-13 11:43:55.8750,-0.03,0.01,0.02
2020-08-13 11:43:55.9750,-0.03,0.01,-0.04
2020-08-13 11:43:56.0740,-0.06,-0.08,-0.04
2020-08-13 11:43:56.1730,-0.15,-0.17,-0.01
2020-08-13 11:43:56.2720,-0.39,-0.59,0.03
2020-08-13 11:43:56.3720,-0.01,-0.08,0.14
2020-08-13 11:43:56.4710,-0.61,0.2,0.16
2020-08-13 11:43:56.5700,-0.58,0.14,0.02
2020-08-13 11:43:56.6690,0.01,-0.31,0.05
2020-08-13 11:43:56.7690,0.35,-0.24,0.06
2020-08-13 11:43:56.8680,0.49,-0.14,0.01
2020-08-13 11:43:56.9670,0.72,-0.08,-0.08
2020-08-13 11:43:57.0670,0.43,-0.19,0.07
2020-08-13 11:43:57.1650,0.4,-0.19,-0.34
2020-08-13 11:43:57.2650,0.07,-0.01,0.05
2020-08-13 11:43:57.3640,0.04,0.01,0.08
2020-08-13 11:43:57.4630,-0.02,0.02,-0.04
2020-08-13 11:43:57.5630,-0.04,0.02,0.02
2020-08-13 11:43:57.6620,-0.02,0.04,0.03
2020-08-13 11:43:57.7620,0.01,-0.01,-0.02
2020-08-13 11:43:57.8600,-0.05,0.0,0.01
2020-08-13 11:43:57.9600,-0.1,-0.08,-0.01
2020-08-13 11:43:58.0590,-0.21,-0.48,0.0
2020-08-13 11:43:58.1580,-0.8,-0.29,0.29
2020-08-13 11:43:58.2570,-0.06,0.1,0.31
2020-08-13 11:43:58.3570,-0.46,0.19,0.06
2020-08-13 11:43:58.4560,-0.27,-0.13,0.06
2020-08-13 11:43:58.5560,0.11,-0.24,0.03
2020-08-13 11:43:58.6540,0.37,-0.27,0.05
2020-08-13 11:43:58.7540,0.46,-0.18,-0.03
2020-08-13 11:43:58.8530,0.72,-0.07,-0.11
2020-08-13 11:43:58.9520,-0.91,-0.25,-0.05
2020-08-13 11:43:59.0520,0.46,-0.51,0.07
2020-08-13 11:43:59.1510,-0.3,0.07,-0.02
2020-08-13 11:43:59.2500,-0.03,0.01,0.05
2020-08-13 11:43:59.3500,0.0,0.02,0.0
2020-08-13 11:43:59.4480,-0.0,0.01,-0.01
2020-08-13 11:43:59.5480,0.0,-0.02,-0.01
2020-08-13 11:43:59.6470,-0.04,0.01,0.01
2020-08-13 11:43:59.7470,-0.02,-0.05,0.03
2020-08-13 11:43:59.8450,-0.07,-0.13,-0.04
2020-08-13 11:43:59.9450,-0.22,-0.4,0.03
2020-08-13 11:44:00.0440,-0.43,-0.27,0.27
2020-08-13 11:44:00.1440,-0.39,-0.04,0.21
2020-08-13 11:44:00.2430,-0.6,0.12,0.07
2020-08-13 11:44:00.3420,-0.31,-0.09,0.07
2020-08-13 11:44:00.4410,0.27,-0.21,-0.0
2020-08-13 11:44:00.5400,0.45,-0.16,0.07
2020-08-13 11:44:00.6390,0.48,-0.1,-0.01
2020-08-13 11:44:00.7390,0.73,-0.06,0.02
2020-08-13 11:44:00.8380,0.03,-0.24,0.03
2020-08-13 11:44:00.9380,0.34,-0.05,-0.23
2020-08-13 11:44:01.0370,0.04,-0.01,-0.07
2020-08-13 11:44:01.1360,0.04,0.03,0.11
2020-08-13 11:44:01.2350,-0.03,0.03,0.03
2020-08-13 11:44:01.3350,-0.02,-0.01,-0.02
2020-08-13 11:44:01.4340,-0.02,-0.01,-0.0
2020-08-13 11:44:01.5330,0.01,-0.03,-0.0
2020-08-13 11:44:01.6320,-0.14,0.04,0.1
2020-08-13 11:44:01.7310,-0.15,-0.11,-0.09
2020-08-13 11:44:01.8310,-0.27,-0.38,0.07
2020-08-13 11:44:01.9310,-0.57,-0.37,0.23
2020-08-13 11:44:02.0300,-0.36,0.01,0.2
2020-08-13 11:44:02.1280,-0.57,0.21,0.06
2020-08-13 11:44:02.2280,-0.27,-0.0,0.02
2020-08-13 11:44:02.3270,0.16,-0.18,0.07
2020-08-13 11:44:02.4260,0.3,-0.19,0.11
2020-08-13 11:44:02.5260,0.43,-0.15,-0.04
2020-08-13 11:44:02.6250,0.7,-0.08,-0.08
2020-08-13 11:44:02.7240,0.45,-0.08,0.02
2020-08-13 11:44:02.8240,0.28,-0.24,-0.2
2020-08-13 11:44:02.9230,-0.14,0.02,-0.08
2020-08-13 11:44:03.0220,-0.15,0.05,0.1
2020-08-13 11:44:03.1210,0.03,-0.02,-0.03
2020-08-13 11:44:03.2200,-0.01,0.0,0.02
2020-08-13 11:44:03.3200,0.0,0.0,0.01
2020-08-13 11:44:03.4190,-0.04,0.04,0.02
2020-08-13 11:44:03.5180,-0.01,-0.03,-0.01
2020-08-13 11:44:03.6170,0.0,-0.13,-0.02
2020-08-13 11:44:03.7170,-0.19,-0.43,0.09
2020-08-13 11:44:03.8160,-0.78,-0.34,0.24
2020-08-13 11:44:03.9160,-0.14,0.0,0.2
2020-08-13 11:44:04.0150,-0.47,0.17,0.08
2020-08-13 11:44:04.1140,-0.23,-0.06,-0.02
2020-08-13 11:44:04.2130,0.19,-0.25,0.01
2020-08-13 11:44:04.3130,0.45,-0.23,0.05
2020-08-13 11:44:04.4110,0.59,-0.15,-0.04
2020-08-13 11:44:04.5110,0.73,-0.03,-0.04
2020-08-13 11:44:04.6100,-1.32,0.01,-0.2
2020-08-13 11:44:04.7100,0.15,-0.17,0.13
2020-08-13 11:44:04.8080,0.07,-0.04,-0.09
2020-08-13 11:44:04.9080,0.03,0.03,0.02
2020-08-13 11:44:05.0070,-0.03,0.02,0.02
2020-08-13 11:44:05.1060,-0.0,0.01,-0.0
2020-08-13 11:44:05.2050,-0.02,0.01,0.02
2020-08-13 11:44:05.3050,-0.06,0.0,-0.01
2020-08-13 11:44:05.4040,-0.03,-0.05,0.03
2020-08-13 11:44:05.5040,-0.03,-0.12,0.0
2020-08-13 11:44:05.6030,-0.25,-0.52,0.05
2020-08-13 11:44:05.7020,-0.16,-0.15,0.19
2020-08-13 11:44:05.8010,-0.92,0.26,-0.03
2020-08-13 11:44:05.9000,-0.62,0.05,0.25
2020-08-13 11:44:06.0000,0.07,-0.2,0.31
2020-08-13 11:44:06.0990,0.24,-0.22,0.25
2020-08-13 11:44:06.1990,0.44,-0.13,0.02
2020-08-13 11:44:06.2970,0.63,-0.09,-0.13
2020-08-13 11:44:06.3970,0.73,-0.06,-0.17
2020-08-13 11:44:06.4960,0.26,-0.3,-0.08
2020-08-13 11:44:06.5960,0.3,-0.03,0.04
2020-08-13 11:44:06.6940,0.12,-0.02,0.02
2020-08-13 11:44:06.7940,0.0,-0.02,-0.02
2020-08-13 11:44:06.8930,-0.02,0.0,0.03
2020-08-13 11:44:06.9930,0.0,0.0,0.02
2020-08-13 11:44:07.0910,-0.01,0.02,-0.02
2020-08-13 11:44:07.1910,0.0,-0.03,-0.05
2020-08-13 11:44:07.2910,-0.06,-0.16,-0.0
2020-08-13 11:44:07.3890,-0.27,-0.47,0.1
2020-08-13 11:44:07.4890,-0.71,-0.38,0.61
2020-08-13 11:44:07.5880,-0.78,-0.01,0.17
2020-08-13 11:44:07.6870,-0.63,0.26,0.17
2020-08-13 11:44:07.7860,-0.04,-0.24,0.04
2020-08-13 11:44:07.8850,0.21,-0.27,0.01
2020-08-13 11:44:07.9850,0.43,-0.3,-0.02
2020-08-13 11:44:08.0840,0.91,-0.14,-0.03
2020-08-13 11:44:08.1830,0.95,-0.03,-0.09
2020-08-13 11:44:08.2830,0.3,-0.26,-0.41
2020-08-13 11:44:08.3820,0.27,-0.14,-0.03
2020-08-13 11:44:08.4810,0.06,0.01,0.08
2020-08-13 11:44:08.5810,-0.03,0.01,-0.01
2020-08-13 11:44:08.6790,-0.0,0.02,0.02
2020-08-13 11:44:08.7790,0.01,-0.0,-0.01
2020-08-13 11:44:08.8780,-0.08,0.03,0.03
2020-08-13 11:44:08.9770,-0.12,0.02,0.08
2020-08-13 11:44:09.0770,-0.06,-0.16,-0.01
2020-08-13 11:44:09.1760,-0.18,-0.25,0.01
2020-08-13 11:44:09.2750,-0.67,-0.56,0.12
2020-08-13 11:44:09.3740,-0.11,-0.15,0.2
2020-08-13 11:44:09.4740,-0.65,0.25,0.22
2020-08-13 11:44:09.5730,-0.41,0.03,-0.03
2020-08-13 11:44:09.6730,0.2,-0.38,-0.0
2020-08-13 11:44:09.7710,0.45,-0.37,0.03
2020-08-13 11:44:09.8710,0.65,-0.19,-0.05
2020-08-13 11:44:09.9700,0.77,-0.01,-0.06
2020-08-13 11:44:10.0700,-1.3,-0.32,-0.0
2020-08-13 11:44:10.1690,0.36,-0.19,0.28
2020-08-13 11:44:10.2680,0.09,-0.01,-0.01
2020-08-13 11:44:10.3670,0.02,0.0,0.02
2020-08-13 11:44:10.4670,0.03,0.03,0.0
2020-08-13 11:44:10.5650,0.02,-0.02,0.01
2020-08-13 11:44:10.6650,-0.08,0.08,0.06
2020-08-13 11:44:10.7640,-0.03,-0.05,-0.07
2020-08-13 11:44:10.8640,-0.1,-0.11,0.02
2020-08-13 11:44:10.9620,-0.15,-0.25,-0.06
2020-08-13 11:44:11.0620,-0.75,-0.51,0.1
2020-08-13 11:44:11.1610,-0.06,-0.13,0.13
2020-08-13 11:44:11.2600,-0.73,0.26,0.17
2020-08-13 11:44:11.3600,-0.38,-0.02,-0.05
2020-08-13 11:44:11.4590,0.21,-0.3,-0.04
2020-08-13 11:44:11.5590,0.42,-0.33,0.0
2020-08-13 11:44:11.6570,0.87,-0.19,-0.03
2020-08-13 11:44:11.7570,0.88,0.01,-0.07
2020-08-13 11:44:11.8560,-0.13,-0.36,-0.24
2020-08-13 11:44:11.9560,0.27,0.06,0.01
2020-08-13 11:44:12.0540,0.18,-0.06,-0.05
2020-08-13 11:44:12.1540,0.03,-0.01,-0.02
2020-08-13 11:44:12.2530,0.01,-0.02,-0.02
2020-08-13 11:44:12.3530,-0.01,0.0,0.03
2020-08-13 11:44:12.4510,-0.01,-0.01,-0.01
2020-08-13 11:44:12.5510,-0.04,-0.03,-0.01
2020-08-13 11:44:12.6500,-0.05,-0.1,-0.03
2020-08-13 11:44:12.7490,-0.14,-0.18,-0.0
2020-08-13 11:44:12.8480,-0.52,-0.49,0.08
2020-08-13 11:44:12.9480,-0.23,-0.09,0.09
2020-08-13 11:44:13.0470,-0.85,0.16,0.18
2020-08-13 11:44:13.1470,-0.49,0.11,0.07
2020-08-13 11:44:13.2450,0.02,-0.3,0.05
2020-08-13 11:44:13.3450,0.27,-0.28,0.04
2020-08-13 11:44:13.4440,0.65,-0.25,-0.01
2020-08-13 11:44:13.5440,0.98,-0.05,-0.07
2020-08-13 11:44:13.6420,-1.02,-0.31,0.13
2020-08-13 11:44:13.7420,0.15,-0.01,0.37
2020-08-13 11:44:13.8410,-0.09,0.0,-0.01
2020-08-13 11:44:13.9410,-0.02,0.03,0.01
2020-08-13 11:44:14.0390,0.01,0.01,0.01
2020-08-13 11:44:14.1400,0.01,-0.02,-0.03
2020-08-13 11:44:14.2380,-0.04,0.01,0.03
2020-08-13 11:44:14.3380,-0.05,-0.01,0.03
2020-08-13 11:44:14.4370,-0.01,-0.13,-0.09
2020-08-13 11:44:14.5360,-0.13,-0.28,-0.01
2020-08-13 11:44:14.6360,-0.8,-0.57,0.22
2020-08-13 11:44:14.7340,-0.16,-0.09,0.27
2020-08-13 11:44:14.8340,-0.52,0.28,0.1
2020-08-13 11:44:14.9330,-0.19,-0.06,0.0
2020-08-13 11:44:15.0330,0.2,-0.38,0.05
2020-08-13 11:44:15.1310,0.48,-0.32,0.0
2020-08-13 11:44:15.2310,0.58,-0.12,-0.12
2020-08-13 11:44:15.3300,0.93,-0.03,-0.11
2020-08-13 11:44:15.4300,-0.61,-0.47,0.46
2020-08-13 11:44:15.5280,0.16,-0.05,0.39
2020-08-13 11:44:15.6280,-0.16,-0.01,-0.0
2020-08-13 11:44:15.7270,-0.01,-0.0,-0.07
2020-08-13 11:44:15.8270,0.01,-0.01,0.09
2020-08-13 11:44:15.9250,-0.02,0.01,-0.01
2020-08-13 11:44:16.0250,-0.03,0.02,0.01
2020-08-13 11:44:16.1240,-0.08,0.02,0.01
2020-08-13 11:44:16.2240,-0.08,-0.09,-0.03
2020-08-13 11:44:16.3220,-0.22,-0.39,-0.05
2020-08-13 11:44:16.4220,-0.82,-0.25,0.32
2020-08-13 11:44:16.5210,-0.35,0.04,0.22
2020-08-13 11:44:16.6200,-0.45,0.26,0.06
2020-08-13 11:44:16.7200,-0.26,-0.04,0.07
2020-08-13 11:44:16.8190,0.1,-0.33,0.1
2020-08-13 11:44:16.9180,0.51,-0.31,0.03
2020-08-13 11:44:17.0170,0.64,-0.17,-0.15
2020-08-13 11:44:17.1170,0.86,0.0,-0.05
2020-08-13 11:44:17.2170,-1.15,-0.47,0.18
2020-08-13 11:44:17.3150,0.21,-0.14,0.28
2020-08-13 11:44:17.4150,0.06,-0.05,-0.07
2020-08-13 11:44:17.5140,-0.08,0.03,-0.01
2020-08-13 11:44:17.6130,-0.02,0.01,0.04
2020-08-13 11:44:17.7120,-0.03,0.01,0.0
2020-08-13 11:44:17.8120,-0.01,-0.02,-0.01
2020-08-13 11:44:17.9110,-0.03,-0.0,0.02
2020-08-13 11:44:18.0100,-0.09,-0.07,0.02
2020-08-13 11:44:18.1090,-0.1,-0.1,-0.03
2020-08-13 11:44:18.2090,-0.34,-0.59,-0.01
2020-08-13 11:44:18.3080,-0.3,-0.12,0.28
2020-08-13 11:44:18.4080,-0.84,0.23,0.18
2020-08-13 11:44:18.5060,-0.54,0.15,0.06
2020-08-13 11:44:18.6050,-0.13,-0.27,0.04
2020-08-13 11:44:18.7050,0.29,-0.31,0.09
2020-08-13 11:44:18.8040,0.52,-0.22,-0.02
2020-08-13 11:44:18.9030,0.85,-0.06,-0.07
2020-08-13 11:44:19.0030,0.54,-0.13,0.05
2020-08-13 11:44:19.1020,0.58,-0.28,-0.41
2020-08-13 11:44:19.2010,0.06,-0.06,-0.03
2020-08-13 11:44:19.3010,0.12,0.0,0.04
2020-08-13 11:44:19.3990,-0.03,0.0,0.04
2020-08-13 11:44:19.4990,0.0,0.0,-0.05
2020-08-13 11:44:19.5980,-0.01,0.02,0.02
2020-08-13 11:44:19.6980,-0.01,-0.0,-0.03
2020-08-13 11:44:19.7970,-0.02,-0.09,0.01
2020-08-13 11:44:19.8960,-0.18,-0.23,-0.02
2020-08-13 11:44:19.9950,-0.29,-0.65,-0.06
2020-08-13 11:44:20.0940,-0.1,-0.24,0.17
2020-08-13 11:44:20.1940,-0.95,0.21,0.12
2020-08-13 11:44:20.2930,-0.61,0.27,0.09
2020-08-13 11:44:20.3920,-0.09,-0.24,0.11
2020-08-13 11:44:20.4920,0.24,-0.35,0.02
2020-08-13 11:44:20.5910,0.39,-0.21,-0.08
2020-08-13 11:44:20.6900,0.75,-0.09,-0.05
2020-08-13 11:44:20.7890,0.78,-0.04,0.02
2020-08-13 11:44:20.8880,0.54,-0.2,-0.31
2020-08-13 11:44:20.9880,0.18,0.01,-0.28
2020-08-13 11:44:21.0870,0.13,-0.01,0.04
2020-08-13 11:44:21.1860,-0.04,-0.0,0.01
2020-08-13 11:44:21.2860,0.03,-0.02,-0.04
2020-08-13 11:44:21.3850,0.01,0.01,-0.01
2020-08-13 11:44:21.4840,-0.04,-0.01,0.02
2020-08-13 11:44:21.5830,-0.03,-0.05,-0.0
2020-08-13 11:44:21.6830,-0.08,-0.1,0.05
2020-08-13 11:44:21.7820,-0.22,-0.38,-0.05
2020-08-13 11:44:21.8810,-0.45,-0.57,0.3
2020-08-13 11:44:21.9800,-0.53,0.11,0.12
2020-08-13 11:44:22.0800,-0.6,0.24,0.04
2020-08-13 11:44:22.1790,-0.09,-0.2,0.0
2020-08-13 11:44:22.2780,0.28,-0.27,0.04
2020-08-13 11:44:22.3780,0.65,-0.36,-0.02
2020-08-13 11:44:22.4770,0.68,-0.1,-0.09
2020-08-13 11:44:22.5760,0.65,-0.0,-0.11
2020-08-13 11:44:22.6750,-0.67,-0.39,0.2
2020-08-13 11:44:22.7750,0.27,-0.1,0.18
2020-08-13 11:44:22.8740,-0.02,-0.05,-0.03
2020-08-13 11:44:22.9730,-0.03,-0.02,0.01
2020-08-13 11:44:23.0720,0.01,0.01,0.03
2020-08-13 11:44:23.1720,0.05,-0.0,-0.04
2020-08-13 11:44:23.2700,-0.04,0.02,0.02
2020-08-13 11:44:23.3700,-0.05,-0.03,0.01
2020-08-13 11:44:23.4690,-0.15,-0.12,-0.05
2020-08-13 11:44:23.5690,-0.24,-0.22,-0.01
2020-08-13 11:44:23.6680,-0.84,-0.41,0.11
2020-08-13 11:44:23.7670,-0.12,-0.04,0.26
2020-08-13 11:44:23.8660,-0.52,0.24,0.11
2020-08-13 11:44:23.9660,-0.3,-0.03,-0.04
2020-08-13 11:44:24.0650,0.27,-0.23,0.07
2020-08-13 11:44:24.1640,0.37,-0.22,0.03
2020-08-13 11:44:24.2630,0.7,-0.2,0.02
2020-08-13 11:44:24.3630,0.83,-0.03,-0.07
2020-08-13 11:44:24.4620,-0.57,-0.43,0.13
2020-08-13 11:44:24.5610,0.38,-0.15,0.23
2020-08-13 11:44:24.6600,0.06,-0.01,0.0
2020-08-13 11:44:24.7600,-0.02,-0.01,-0.04
2020-08-13 11:44:24.8590,-0.02,0.01,0.02
2020-08-13 11:44:24.9580,-0.02,0.03,0.02
2020-08-13 11:44:25.0570,-0.06,0.04,-0.01
2020-08-13 11:44:25.1570,-0.14,0.03,0.09
2020-08-13 11:44:25.2560,-0.14,-0.09,-0.05
2020-08-13 11:44:25.3560,-0.16,-0.24,-0.0
2020-08-13 11:44:25.4550,-0.54,-0.4,0.13
2020-08-13 11:44:25.5540,-0.24,-0.1,0.21
2020-08-13 11:44:25.6530,-0.53,0.22,0.12
2020-08-13 11:44:25.7530,-0.29,0.01,-0.08
2020-08-13 11:44:25.8510,0.09,-0.29,0.01
2020-08-13 11:44:25.9510,0.46,-0.28,0.04
2020-08-13 11:44:26.0500,0.61,-0.14,-0.01
2020-08-13 11:44:26.1500,0.8,-0.03,-0.06
2020-08-13 11:44:26.2480,-1.23,-0.22,-0.2
2020-08-13 11:44:26.3480,0.05,-0.17,0.31
2020-08-13 11:44:26.4470,-0.15,0.0,-0.08
2020-08-13 11:44:26.5470,-0.01,-0.01,-0.05
2020-08-13 11:44:26.6450,-0.01,0.02,0.02
2020-08-13 11:44:26.7450,-0.08,0.06,0.05
2020-08-13 11:44:26.8440,0.0,-0.02,-0.05
2020-08-13 11:44:26.9440,-0.06,0.01,0.04
2020-08-13 11:44:27.0420,-0.06,-0.05,-0.0
2020-08-13 11:44:27.1420,-0.08,-0.12,-0.04
2020-08-13 11:44:27.2410,-0.36,-0.55,0.03
2020-08-13 11:44:27.3410,-0.61,-0.29,0.51
2020-08-13 11:44:27.4390,-0.89,0.09,0.19
2020-08-13 11:44:27.5390,-0.59,0.29,0.05
2020-08-13 11:44:27.6380,-0.13,-0.27,0.0
2020-08-13 11:44:27.7380,0.17,-0.46,0.02
2020-08-13 11:44:27.8370,0.57,-0.3,-0.05
2020-08-13 11:44:27.9360,0.7,-0.1,-0.08
2020-08-13 11:44:28.0350,0.79,0.0,-0.05
2020-08-13 11:44:28.1340,0.2,-0.17,-0.42
2020-08-13 11:44:28.2340,0.43,0.03,-0.17
2020-08-13 11:44:28.3330,0.23,-0.0,0.02
2020-08-13 11:44:28.4320,0.04,-0.01,-0.04
2020-08-13 11:44:28.5310,-0.01,0.03,-0.03
2020-08-13 11:44:28.6310,-0.04,0.03,-0.02
2020-08-13 11:44:28.7300,0.01,0.01,-0.01
2020-08-13 11:44:28.8290,-0.02,-0.01,0.02
2020-08-13 11:44:28.9280,0.03,-0.09,-0.15
2020-08-13 11:44:29.0280,-0.27,-0.27,0.1
2020-08-13 11:44:29.1270,-0.69,-0.47,0.24
2020-08-13 11:44:29.2260,-0.15,-0.08,0.1
2020-08-13 11:44:29.3250,-0.48,0.17,0.15
2020-08-13 11:44:29.4250,-0.24,-0.06,-0.02
2020-08-13 11:44:29.5250,0.04,-0.22,0.0
2020-08-13 11:44:29.6230,0.36,-0.31,0.01
2020-08-13 11:44:29.7230,0.65,-0.17,0.0
2020-08-13 11:44:29.8220,1.0,-0.07,-0.05
2020-08-13 11:44:29.9220,-0.89,-0.31,-0.01
2020-08-13 11:44:30.0200,0.37,-0.1,0.19
2020-08-13 11:44:30.1200,0.03,-0.02,-0.02
2020-08-13 11:44:30.2190,0.1,-0.05,-0.07
2020-08-13 11:44:30.3180,-0.02,0.03,0.03
2020-08-13 11:44:30.4170,0.04,-0.01,-0.02
2020-08-13 11:44:30.5170,-0.01,0.0,-0.03
2020-08-13 11:44:30.6160,-0.08,-0.02,0.04
2020-08-13 11:44:30.7150,-0.02,-0.1,0.02
2020-08-13 11:44:30.8150,-0.16,-0.32,-0.02
2020-08-13 11:44:30.9140,-0.43,-0.67,0.0
2020-08-13 11:44:31.0130,0.16,-0.08,0.24
2020-08-13 11:44:31.1120,-0.81,0.23,0.19
2020-08-13 11:44:31.2120,-0.4,-0.08,-0.01
2020-08-13 11:44:31.3110,0.15,-0.31,0.07
2020-08-13 11:44:31.4100,0.35,-0.33,0.18
2020-08-13 11:44:31.5090,0.68,-0.12,-0.04
2020-08-13 11:44:31.6090,0.8,-0.0,-0.08
2020-08-13 11:44:31.7080,-1.47,-0.08,-0.26
2020-08-13 11:44:31.8070,0.27,-0.19,0.35
2020-08-13 11:44:31.9070,0.0,-0.01,-0.09
2020-08-13 11:44:32.0050,0.01,0.01,0.01
2020-08-13 11:44:32.1050,0.04,0.0,0.0
2020-08-13 11:44:32.2040,0.02,-0.01,-0.03
2020-08-13 11:44:32.3030,-0.04,0.01,0.06
2020-08-13 11:44:32.4020,-0.07,-0.04,-0.01
2020-08-13 11:44:32.5020,-0.08,-0.06,-0.01
2020-08-13 11:44:32.6010,-0.17,-0.24,0.02
2020-08-13 11:44:32.7000,-0.6,-0.6,0.03
2020-08-13 11:44:32.8000,-0.04,-0.06,0.09
2020-08-13 11:44:32.8990,-0.67,0.25,0.22
2020-08-13 11:44:32.9980,-0.41,0.04,0.03
2020-08-13 11:44:33.0970,0.12,-0.26,-0.0
2020-08-13 11:44:33.1960,0.34,-0.39,0.04
2020-08-13 11:44:33.2960,0.78,-0.22,-0.04
2020-08-13 11:44:33.3950,0.92,-0.0,-0.03
2020-08-13 11:44:33.4950,-0.07,-0.45,0.04
2020-08-13 11:44:33.5940,0.34,-0.04,0.06
2020-08-13 11:44:33.6940,0.03,-0.0,0.03
2020-08-13 11:44:33.7920,0.01,-0.02,-0.05
2020-08-13 11:44:33.8910,-0.04,0.04,0.04
2020-08-13 11:44:33.9910,0.01,0.01,0.02
2020-08-13 11:44:34.0900,-0.04,-0.01,0.01
2020-08-13 11:44:34.1890,-0.04,-0.04,0.04
2020-08-13 11:44:34.2890,-0.03,-0.14,-0.01
2020-08-13 11:44:34.3880,-0.17,-0.3,0.03
2020-08-13 11:44:34.4870,-0.76,-0.43,0.2
2020-08-13 11:44:34.5860,-0.06,-0.11,0.2
2020-08-13 11:44:34.6860,-0.46,0.25,0.09
2020-08-13 11:44:34.7850,-0.16,0.05,-0.1
2020-08-13 11:44:34.8840,0.05,-0.24,0.02
2020-08-13 11:44:34.9840,0.3,-0.29,0.03
2020-08-13 11:44:35.0820,0.58,-0.15,-0.04
2020-08-13 11:44:35.1820,0.67,0.01,-0.14
2020-08-13 11:44:35.2810,0.04,-0.21,0.28
2020-08-13 11:44:35.3810,0.22,-0.05,-0.16
2020-08-13 11:44:35.4790,-0.28,0.08,0.01
2020-08-13 11:44:35.5790,-0.14,0.06,0.07
2020-08-13 11:44:35.6780,0.03,0.0,-0.05
2020-08-13 11:44:35.7780,-0.01,-0.03,-0.06
2020-08-13 11:44:35.8760,0.0,-0.0,-0.01
2020-08-13 11:44:35.9760,-0.0,-0.01,0.0
2020-08-13 11:44:36.0750,-0.02,-0.05,-0.12
2020-08-13 11:44:36.1750,-0.07,-0.11,-0.02
2020-08-13 11:44:36.2730,-0.59,-0.64,0.22
2020-08-13 11:44:36.3730,-0.37,-0.06,0.27
2020-08-13 11:44:36.4720,-1.02,0.08,-0.02
2020-08-13 11:44:36.5720,-0.58,0.17,0.11
2020-08-13 11:44:36.6710,-0.14,-0.31,0.02
2020-08-13 11:44:36.7700,0.24,-0.38,0.04
2020-08-13 11:44:36.8690,0.6,-0.23,-0.03
2020-08-13 11:44:36.9690,0.87,-0.1,-0.01
2020-08-13 11:44:37.0680,0.64,-0.22,0.16
2020-08-13 11:44:37.1670,0.57,-0.27,-0.33
2020-08-13 11:44:37.2670,0.04,-0.03,-0.03
2020-08-13 11:44:37.3650,0.03,-0.01,0.0
2020-08-13 11:44:37.4650,0.0,-0.03,-0.03
2020-08-13 11:44:37.5640,0.01,0.0,0.02
2020-08-13 11:44:37.6630,-0.02,0.02,0.01
2020-08-13 11:44:37.7620,-0.03,-0.02,-0.01
2020-08-13 11:44:37.8620,-0.06,-0.03,0.03
2020-08-13 11:44:37.9620,-0.05,-0.11,-0.03
2020-08-13 11:44:38.0600,-0.25,-0.43,0.04
2020-08-13 11:44:38.1600,-0.44,-0.37,0.06
2020-08-13 11:44:38.2590,-0.1,-0.05,0.13
2020-08-13 11:44:38.3580,-0.48,0.22,0.24
2020-08-13 11:44:38.4570,-0.37,0.03,-0.02
2020-08-13 11:44:38.5570,0.23,-0.3,-0.01
2020-08-13 11:44:38.6560,0.43,-0.33,0.05
2020-08-13 11:44:38.7560,0.62,-0.22,-0.09
2020-08-13 11:44:38.8540,0.85,-0.03,-0.04
2020-08-13 11:44:38.9540,-1.48,-0.07,-0.11
2020-08-13 11:44:39.0530,0.14,-0.08,0.14
2020-08-13 11:44:39.1520,-0.03,-0.04,-0.11
2020-08-13 11:44:39.2510,0.02,-0.01,0.02
2020-08-13 11:44:39.3510,-0.03,0.03,0.06
2020-08-13 11:44:39.4500,-0.1,0.04,0.03
2020-08-13 11:44:39.5490,-0.01,-0.01,-0.03
2020-08-13 11:44:39.6480,-0.02,-0.02,-0.0
2020-08-13 11:44:39.7480,-0.0,-0.06,-0.06
2020-08-13 11:44:39.8470,-0.02,-0.18,-0.09
2020-08-13 11:44:39.9470,-0.32,-0.62,0.08
2020-08-13 11:44:40.0450,-0.0,-0.37,0.1
2020-08-13 11:44:40.1450,-0.75,0.16,0.18
2020-08-13 11:44:40.2440,-0.53,0.2,0.02
2020-08-13 11:44:40.3440,-0.02,-0.33,-0.03
2020-08-13 11:44:40.4420,0.3,-0.19,-0.02
2020-08-13 11:44:40.5420,0.45,-0.2,-0.02
2020-08-13 11:44:40.6410,0.79,-0.12,-0.04
2020-08-13 11:44:40.7410,0.8,-0.08,-0.09
2020-08-13 11:44:40.8390,0.37,-0.27,-0.28
2020-08-13 11:44:40.9390,0.17,-0.05,-0.1
2020-08-13 11:44:41.0380,0.17,-0.03,-0.0
2020-08-13 11:44:41.1370,0.02,-0.01,-0.01
2020-08-13 11:44:41.2370,0.01,0.0,-0.01
2020-08-13 11:44:41.3360,0.01,-0.02,0.03
2020-08-13 11:44:41.4360,-0.05,-0.02,0.03
2020-08-13 11:44:41.5340,-0.04,-0.04,0.01
2020-08-13 11:44:41.6340,-0.1,-0.11,-0.03
2020-08-13 11:44:41.7330,-0.17,-0.48,-0.05
2020-08-13 11:44:41.8320,-0.78,-0.34,0.62
2020-08-13 11:44:41.9310,-0.33,0.03,0.29
2020-08-13 11:44:42.0310,-0.5,0.21,0.04
2020-08-13 11:44:42.1300,-0.08,-0.12,0.04
2020-08-13 11:44:42.2290,0.17,-0.23,0.02
2020-08-13 11:44:42.3280,0.41,-0.33,-0.03
2020-08-13 11:44:42.4280,0.71,-0.13,-0.06
2020-08-13 11:44:42.5270,0.72,-0.02,-0.08
2020-08-13 11:44:42.6260,-0.38,-0.51,0.12
2020-08-13 11:44:42.7250,0.38,-0.14,0.2
2020-08-13 11:44:42.8250,-0.04,-0.01,0.03
2020-08-13 11:44:42.9240,-0.05,-0.01,-0.05
2020-08-13 11:44:43.0240,0.0,0.0,0.03
2020-08-13 11:44:43.1220,0.03,-0.01,-0.0
2020-08-13 11:44:43.2220,-0.01,-0.02,-0.01
2020-08-13 11:44:43.3210,-0.05,0.0,0.02
2020-08-13 11:44:43.4200,-0.1,-0.08,0.02
2020-08-13 11:44:43.5190,-0.07,-0.1,-0.01
2020-08-13 11:44:43.6190,-0.4,-0.72,0.15
2020-08-13 11:44:43.7180,-0.21,-0.38,0.21
2020-08-13 11:44:43.8170,-0.83,0.14,0.0
2020-08-13 11:44:43.9170,-0.54,0.29,0.04
2020-08-13 11:44:44.0160,-0.14,-0.27,0.06
2020-08-13 11:44:44.1160,0.3,-0.35,0.14
2020-08-13 11:44:44.2140,0.56,-0.37,-0.02
2020-08-13 11:44:44.3140,0.76,-0.12,-0.07
2020-08-13 11:44:44.4130,0.71,-0.02,-0.0
2020-08-13 11:44:44.5120,-0.21,-0.3,-0.11
2020-08-13 11:44:44.6110,0.37,-0.18,0.2
2020-08-13 11:44:44.7110,0.04,-0.03,0.03
2020-08-13 11:44:44.8100,-0.02,0.03,-0.03
2020-08-13 11:44:44.9090,0.07,-0.02,-0.04
2020-08-13 11:44:45.0090,0.01,-0.0,0.0
2020-08-13 11:44:45.1080,-0.01,0.0,-0.01
2020-08-13 11:44:45.2080,-0.05,-0.01,0.01
2020-08-13 11:44:45.3060,-0.07,-0.11,-0.08
2020-08-13 11:44:45.4050,-0.16,-0.17,0.01
2020-08-13 11:44:45.5050,-0.41,-0.68,-0.07
2020-08-13 11:44:45.6040,0.12,-0.1,-0.02
2020-08-13 11:44:45.7030,-0.68,0.18,0.25
2020-08-13 11:44:45.8030,-0.58,0.13,0.05
2020-08-13 11:44:45.9020,0.05,-0.3,0.02
2020-08-13 11:44:46.0010,0.29,-0.34,-0.03
2020-08-13 11:44:46.1000,0.61,-0.26,-0.05
2020-08-13 11:44:46.2000,0.76,-0.06,-0.08
2020-08-13 11:44:46.2990,0.45,-0.19,0.02
2020-08-13 11:44:46.3980,0.35,-0.29,-0.38
2020-08-13 11:44:46.4970,-0.02,-0.02,-0.08
2020-08-13 11:44:46.5960,-0.05,0.03,0.17
2020-08-13 11:44:46.6960,-0.01,-0.0,0.0
2020-08-13 11:44:46.7950,-0.02,0.0,0.0
2020-08-13 11:44:46.8940,0.01,-0.02,-0.06
2020-08-13 11:44:46.9930,-0.08,0.02,0.03
2020-08-13 11:44:47.0930,-0.06,-0.03,-0.01
2020-08-13 11:44:47.1930,-0.1,-0.06,-0.02
2020-08-13 11:44:47.2910,-0.28,-0.43,-0.02
2020-08-13 11:44:47.3910,-0.6,-0.3,0.42
2020-08-13 11:44:47.4900,-0.02,-0.01,0.22
2020-08-13 11:44:47.5900,-0.48,0.23,0.18
2020-08-13 11:44:47.6880,-0.22,-0.12,-0.04
2020-08-13 11:44:47.7880,0.17,-0.22,-0.06
2020-08-13 11:44:47.8870,0.39,-0.22,0.01
2020-08-13 11:44:47.9860,0.6,-0.19,-0.05
2020-08-13 11:44:48.0850,0.91,-0.02,-0.07
2020-08-13 11:44:48.1850,-0.61,-0.36,0.16
2020-08-13 11:44:48.2840,0.43,-0.24,0.46
2020-08-13 11:44:48.3830,0.07,-0.02,-0.04
2020-08-13 11:44:48.4830,0.05,-0.05,-0.05
2020-08-13 11:44:48.5820,0.02,0.02,0.03
2020-08-13 11:44:48.6810,0.04,-0.0,-0.01
2020-08-13 11:44:48.7800,-0.02,-0.0,-0.01
2020-08-13 11:44:48.8790,-0.06,0.01,-0.0
2020-08-13 11:44:48.9790,-0.06,-0.02,0.07
2020-08-13 11:44:49.0780,-0.09,-0.23,-0.07
2020-08-13 11:44:49.1780,-0.28,-0.48,0.1
2020-08-13 11:44:49.2770,-0.31,-0.18,0.21
2020-08-13 11:44:49.3760,-0.85,0.17,0.11
2020-08-13 11:44:49.4750,-0.53,0.23,0.03
2020-08-13 11:44:49.5750,-0.04,-0.28,-0.04
2020-08-13 11:44:49.6740,0.26,-0.23,0.08
2020-08-13 11:44:49.7730,0.34,-0.17,0.02
2020-08-13 11:44:49.8720,0.64,-0.15,-0.07
2020-08-13 11:44:49.9720,0.65,0.0,-0.03
2020-08-13 11:44:50.0700,-0.54,-0.38,-0.05
2020-08-13 11:44:50.1700,0.41,-0.0,0.18
2020-08-13 11:44:50.2690,0.26,-0.05,-0.08
2020-08-13 11:44:50.3680,0.01,-0.06,-0.01
2020-08-13 11:44:50.4670,-0.02,-0.02,0.02
2020-08-13 11:44:50.5670,-0.02,0.0,0.05
2020-08-13 11:44:50.6660,0.0,0.01,-0.03
2020-08-13 11:44:50.7660,-0.04,0.04,0.03
2020-08-13 11:44:50.8650,-0.04,-0.05,0.03
2020-08-13 11:44:50.9650,-0.05,-0.15,0.0
2020-08-13 11:44:51.0630,-0.31,-0.46,0.09
2020-08-13 11:44:51.1630,-0.4,-0.22,0.36
2020-08-13 11:44:51.2620,-0.84,-0.08,0.07
2020-08-13 11:44:51.3610,-0.59,0.15,0.19
2020-08-13 11:44:51.4600,-0.04,-0.18,0.02
2020-08-13 11:44:51.5600,0.06,-0.34,0.0
2020-08-13 11:44:51.6590,0.6,-0.5,0.03
2020-08-13 11:44:51.7590,0.91,-0.11,-0.09
2020-08-13 11:44:51.8570,0.72,-0.1,-0.01
2020-08-13 11:44:51.9560,0.56,-0.22,-0.22
2020-08-13 11:44:52.0560,-0.03,-0.03,-0.13
2020-08-13 11:44:52.1550,0.01,0.04,0.1
2020-08-13 11:44:52.2540,-0.06,0.01,0.01
2020-08-13 11:44:52.3540,0.04,-0.01,-0.05
2020-08-13 11:44:52.4530,-0.0,-0.01,0.0
2020-08-13 11:44:52.5530,-0.0,0.01,-0.0
2020-08-13 11:44:52.6510,-0.03,-0.02,0.02
2020-08-13 11:44:52.7510,-0.03,-0.09,-0.02
2020-08-13 11:44:52.8500,-0.19,-0.34,-0.07
2020-08-13 11:44:52.9490,-0.48,-0.57,0.22
2020-08-13 11:44:53.0490,-0.14,0.02,0.05
2020-08-13 11:44:53.1480,-0.5,0.19,0.04
2020-08-13 11:44:53.2480,-0.24,-0.05,-0.01
2020-08-13 11:44:53.3460,0.16,-0.25,-0.01
2020-08-13 11:44:53.4450,0.37,-0.25,0.03
2020-08-13 11:44:53.5450,0.57,-0.17,-0.04
2020-08-13 11:44:53.6440,0.67,-0.02,-0.11
2020-08-13 11:44:53.7440,-0.01,-0.2,0.02
2020-08-13 11:44:53.8420,0.51,-0.19,-0.25
2020-08-13 11:44:53.9420,-0.1,0.03,-0.04
2020-08-13 11:44:54.0410,-0.01,0.02,0.09
2020-08-13 11:44:54.1400,-0.04,-0.01,-0.02
2020-08-13 11:44:54.2390,0.01,0.02,-0.01
2020-08-13 11:44:54.3390,-0.04,0.01,0.02
2020-08-13 11:44:54.4380,0.06,-0.03,-0.11
2020-08-13 11:44:54.5380,-0.01,-0.02,-0.05
2020-08-13 11:44:54.6360,-0.0,-0.11,-0.07
2020-08-13 11:44:54.7370,-0.16,-0.3,0.0
2020-08-13 11:44:54.8350,-0.65,-0.36,0.2
2020-08-13 11:44:54.9340,-0.19,-0.09,0.22
2020-08-13 11:44:55.0330,-0.61,0.18,0.13
2020-08-13 11:44:55.1330,-0.19,-0.11,-0.07
2020-08-13 11:44:55.2330,0.11,-0.22,-0.0
2020-08-13 11:44:55.3310,0.43,-0.31,0.09
2020-08-13 11:44:55.4310,0.77,-0.24,0.13
2020-08-13 11:44:55.5300,0.73,-0.02,-0.08
2020-08-13 11:44:55.6300,-1.32,-0.3,-0.11
2020-08-13 11:44:55.7280,0.13,-0.07,0.39
2020-08-13 11:44:55.8280,-0.1,0.01,-0.0
2020-08-13 11:44:55.9270,-0.01,-0.02,-0.05
2020-08-13 11:44:56.0270,0.02,0.0,-0.0
2020-08-13 11:44:56.1250,0.03,-0.0,-0.02
2020-08-13 11:44:56.2250,-0.02,0.02,-0.01
2020-08-13 11:44:56.3240,0.01,-0.0,-0.02
2020-08-13 11:44:56.4230,-0.06,-0.04,0.01
2020-08-13 11:44:56.5220,-0.09,-0.1,-0.26
2020-08-13 11:44:56.6220,-0.11,-0.62,0.07
2020-08-13 11:44:56.7210,-0.46,-0.14,0.27
2020-08-13 11:44:56.8210,-0.79,0.14,0.22
2020-08-13 11:44:56.9190,-0.55,0.11,0.06
2020-08-13 11:44:57.0190,-0.02,-0.32,-0.01
2020-08-13 11:44:57.1180,0.28,-0.24,-0.02
2020-08-13 11:44:57.2180,0.5,-0.28,-0.05
2020-08-13 11:44:57.3160,0.92,-0.13,-0.04
2020-08-13 11:44:57.4160,0.43,-0.17,0.19
2020-08-13 11:44:57.5150,0.45,-0.27,-0.24
2020-08-13 11:44:57.6150,0.01,0.01,-0.04
2020-08-13 11:44:57.7130,0.01,0.01,0.05
2020-08-13 11:44:57.8130,-0.05,0.01,0.03
2020-08-13 11:44:57.9120,-0.03,-0.01,0.01
2020-08-13 11:44:58.0120,-0.03,0.01,0.0
2020-08-13 11:44:58.1100,-0.0,0.01,0.02
2020-08-13 11:44:58.2100,-0.04,0.0,-0.02
2020-08-13 11:44:58.3090,-0.07,-0.07,-0.06
2020-08-13 11:44:58.4090,-0.04,-0.11,-0.02
2020-08-13 11:44:58.5080,-0.23,-0.57,0.07
2020-08-13 11:44:58.6070,-0.32,-0.17,0.24
2020-08-13 11:44:58.7060,-0.85,0.07,0.03
2020-08-13 11:44:58.8060,-0.52,0.18,0.01
2020-08-13 11:44:58.9050,-0.09,-0.3,-0.02
2020-08-13 11:44:59.0040,0.27,-0.3,0.01
2020-08-13 11:44:59.1030,0.43,-0.22,-0.03
2020-08-13 11:44:59.2020,0.68,-0.05,-0.01
2020-08-13 11:44:59.3010,0.79,-0.02,-0.02
2020-08-13 11:44:59.4020,0.14,-0.35,-0.18
2020-08-13 11:44:59.5000,0.4,-0.11,0.19
2020-08-13 11:44:59.6000,0.1,-0.01,-0.01
2020-08-13 11:44:59.6990,-0.03,-0.02,-0.0
2020-08-13 11:44:59.7980,0.06,-0.02,-0.12
2020-08-13 11:44:59.8980,0.02,0.0,-0.01
2020-08-13 11:44:59.9960,0.0,0.0,-0.01
2020-08-13 11:45:00.0960,-0.02,-0.02,-0.02
2020-08-13 11:45:00.1950,-0.07,-0.1,0.01
2020-08-13 11:45:00.2950,-0.1,-0.27,-0.14
2020-08-13 11:45:00.3930,-0.47,-0.66,0.05
2020-08-13 11:45:00.4930,-0.02,-0.23,0.06
2020-08-13 11:45:00.5930,-0.6,0.24,0.24
2020-08-13 11:45:00.6910,-0.41,0.14,-0.03
2020-08-13 11:45:00.7910,0.03,-0.11,-0.04
2020-08-13 11:45:00.8900,0.29,-0.11,-0.02
2020-08-13 11:45:00.9900,0.42,-0.29,-0.06
2020-08-13 11:45:01.0880,0.81,-0.09,-0.04
2020-08-13 11:45:01.1880,-0.88,-0.21,-0.24
2020-08-13 11:45:01.2870,0.24,-0.13,0.1
2020-08-13 11:45:01.3860,-0.07,0.0,-0.1
2020-08-13 11:45:01.4860,-0.1,0.0,0.04
2020-08-13 11:45:01.5850,-0.0,0.01,0.01
2020-08-13 11:45:01.6840,0.01,0.0,-0.01
2020-08-13 11:45:01.7830,0.02,-0.02,-0.06
2020-08-13 11:45:01.8830,0.03,-0.01,0.01
2020-08-13 11:45:01.9820,-0.04,-0.09,0.03
2020-08-13 11:45:02.0820,-0.14,-0.1,0.01
2020-08-13 11:45:02.1800,-0.32,-0.57,0.01
2020-08-13 11:45:02.2790,-0.61,-0.28,0.42
2020-08-13 11:45:02.3790,-0.78,-0.04,-0.04
2020-08-13 11:45:02.4780,-0.56,0.29,0.03
2020-08-13 11:45:02.5780,-0.02,-0.25,0.04
2020-08-13 11:45:02.6760,0.3,-0.29,0.03
2020-08-13 11:45:02.7760,0.49,-0.34,-0.06
2020-08-13 11:45:02.8750,0.63,-0.08,-0.05
2020-08-13 11:45:02.9750,0.73,-0.0,-0.04
2020-08-13 11:45:03.0730,-0.12,-0.33,-0.05
2020-08-13 11:45:03.1730,0.26,0.01,0.05
2020-08-13 11:45:03.2720,0.1,-0.0,0.01
2020-08-13 11:45:03.3720,0.01,-0.03,-0.03
2020-08-13 11:45:03.4700,0.02,0.01,0.01
2020-08-13 11:45:03.5700,0.0,-0.02,0.01
2020-08-13 11:45:03.6690,-0.01,0.01,-0.0
2020-08-13 11:45:03.7680,-0.02,0.02,0.0
2020-08-13 11:45:03.8670,-0.07,-0.04,0.05
2020-08-13 11:45:03.9670,-0.1,-0.16,-0.05
2020-08-13 11:45:04.0670,-0.36,-0.6,0.02
2020-08-13 11:45:04.1650,-0.21,-0.27,0.2
2020-08-13 11:45:04.2650,-0.86,-0.09,0.09
2020-08-13 11:45:04.3640,-0.46,0.19,0.07
2020-08-13 11:45:04.4640,-0.0,-0.13,0.0
2020-08-13 11:45:04.5620,0.2,-0.18,-0.03
2020-08-13 11:45:04.6620,0.51,-0.24,-0.07
2020-08-13 11:45:04.7610,0.57,-0.19,-0.08
2020-08-13 11:45:04.8610,0.8,-0.07,-0.02
2020-08-13 11:45:04.9590,-0.17,-0.31,-0.04
2020-08-13 11:45:05.0590,0.36,-0.06,0.18
2020-08-13 11:45:05.1580,0.15,-0.03,-0.08
2020-08-13 11:45:05.2580,-0.03,-0.0,-0.01
2020-08-13 11:45:05.3560,0.09,-0.04,-0.06
2020-08-13 11:45:05.4560,0.01,0.04,0.0
2020-08-13 11:45:05.5550,-0.01,-0.01,-0.03
2020-08-13 11:45:05.6540,-0.03,0.0,0.0
2020-08-13 11:45:05.7540,0.02,-0.14,-0.0
2020-08-13 11:45:05.8530,-0.18,-0.15,-0.03
2020-08-13 11:45:05.9530,-0.62,-0.76,0.08
2020-08-13 11:45:06.0510,-0.22,-0.06,0.14
2020-08-13 11:45:06.1510,-0.66,0.24,0.22
2020-08-13 11:45:06.2500,-0.45,0.22,0.03
2020-08-13 11:45:06.3490,-0.03,-0.21,-0.02
2020-08-13 11:45:06.4480,0.23,-0.24,0.01
2020-08-13 11:45:06.5480,0.47,-0.27,-0.02
2020-08-13 11:45:06.6470,0.69,-0.11,-0.07
2020-08-13 11:45:06.7470,0.76,-0.09,0.01
2020-08-13 11:45:06.8450,0.5,-0.3,-0.29
2020-08-13 11:45:06.9450,0.16,-0.03,-0.03
2020-08-13 11:45:07.0440,0.14,-0.03,-0.02
2020-08-13 11:45:07.1440,0.0,-0.01,0.02
2020-08-13 11:45:07.2420,-0.01,0.01,0.01
2020-08-13 11:45:07.3410,-0.03,0.01,0.03
2020-08-13 11:45:07.4410,-0.02,-0.0,-0.0
2020-08-13 11:45:07.5400,-0.06,-0.02,0.03
2020-08-13 11:45:07.6390,-0.1,-0.12,-0.05
2020-08-13 11:45:07.7390,-0.17,-0.45,0.04
2020-08-13 11:45:07.8380,-0.36,-0.3,0.22
2020-08-13 11:45:07.9370,-0.11,0.03,0.26
2020-08-13 11:45:08.0360,-0.37,0.17,0.07
2020-08-13 11:45:08.1360,-0.26,-0.07,-0.05
2020-08-13 11:45:08.2350,0.17,-0.22,-0.01
2020-08-13 11:45:08.3350,0.49,-0.31,0.01
2020-08-13 11:45:08.4340,0.66,-0.13,-0.0
2020-08-13 11:45:08.5330,0.79,-0.08,-0.05
2020-08-13 11:45:08.6320,-1.63,-0.11,-0.05
2020-08-13 11:45:08.7310,0.12,-0.08,0.22
2020-08-13 11:45:08.8300,-0.17,-0.03,-0.05
2020-08-13 11:45:08.9300,0.01,-0.0,-0.01
2020-08-13 11:45:09.0290,0.02,0.01,0.03
2020-08-13 11:45:09.1290,0.05,-0.03,-0.03
2020-08-13 11:45:09.2270,0.01,-0.03,-0.02
2020-08-13 11:45:09.3270,-0.03,0.03,0.02
2020-08-13 11:45:09.4260,0.11,-0.07,-0.09
2020-08-13 11:45:09.5260,-0.03,-0.11,0.02
2020-08-13 11:45:09.6250,-0.27,-0.36,0.03
2020-08-13 11:45:09.7240,-0.7,-0.32,0.12
2020-08-13 11:45:09.8230,-0.19,-0.14,0.15
2020-08-13 11:45:09.9220,-0.63,0.29,0.16
2020-08-13 11:45:10.0210,-0.48,0.06,-0.01
2020-08-13 11:45:10.1210,0.12,-0.29,0.05
2020-08-13 11:45:10.2200,0.39,-0.22,0.04
2020-08-13 11:45:10.3200,0.58,-0.2,-0.0
2020-08-13 11:45:10.4190,0.9,-0.05,-0.03
2020-08-13 11:45:10.5180,-1.42,-0.12,-0.41
2020-08-13 11:45:10.6170,0.27,-0.2,0.39
2020-08-13 11:45:10.7160,-0.14,0.01,0.01
2020-08-13 11:45:10.8150,0.04,-0.01,-0.09
2020-08-13 11:45:10.9150,-0.05,0.01,0.06
2020-08-13 11:45:11.0140,-0.02,0.0,0.06
2020-08-13 11:45:11.1140,-0.06,0.02,0.01
2020-08-13 11:45:11.2130,-0.04,0.02,-0.02
2020-08-13 11:45:11.3120,-0.05,-0.02,0.02
2020-08-13 11:45:11.4110,-0.03,-0.12,-0.06
2020-08-13 11:45:11.5110,-0.25,-0.44,0.08
2020-08-13 11:45:11.6100,-0.81,-0.21,0.46
2020-08-13 11:45:11.7090,-0.43,-0.16,0.17
2020-08-13 11:45:11.8080,-0.64,0.27,0.11
2020-08-13 11:45:11.9080,-0.07,-0.11,0.04
2020-08-13 11:45:12.0070,0.19,-0.18,-0.01
2020-08-13 11:45:12.1070,0.36,-0.2,-0.01
2020-08-13 11:45:12.2050,0.62,-0.18,0.0
2020-08-13 11:45:12.3040,0.87,-0.01,-0.02
2020-08-13 11:45:12.4040,-1.08,-0.43,0.02
2020-08-13 11:45:12.5040,0.29,-0.24,0.38
2020-08-13 11:45:12.6020,-0.21,0.03,0.02
2020-08-13 11:45:12.7020,-0.0,-0.01,-0.04
2020-08-13 11:45:12.8010,-0.0,0.03,0.01
2020-08-13 11:45:12.9010,0.03,-0.03,-0.05
2020-08-13 11:45:12.9990,0.01,0.01,0.01
2020-08-13 11:45:13.0990,0.0,0.02,-0.02
2020-08-13 11:45:13.1980,-0.09,-0.1,-0.03
2020-08-13 11:45:13.2980,-0.26,-0.49,-0.01
2020-08-13 11:45:13.3960,-0.44,-0.47,0.39
2020-08-13 11:45:13.4960,-0.7,0.01,0.18
2020-08-13 11:45:13.5950,-0.57,0.24,0.06
2020-08-13 11:45:13.6950,-0.18,-0.24,0.01
2020-08-13 11:45:13.7930,0.26,-0.33,0.05
2020-08-13 11:45:13.8930,0.61,-0.31,0.07
2020-08-13 11:45:13.9930,0.9,-0.12,-0.03
2020-08-13 11:45:14.0910,0.7,-0.0,-0.09
2020-08-13 11:45:14.1910,0.75,-0.44,-0.33
2020-08-13 11:45:14.2900,0.21,-0.03,0.1
2020-08-13 11:45:14.3900,0.08,-0.04,0.0
2020-08-13 11:45:14.4880,0.01,0.03,0.07
2020-08-13 11:45:14.5880,0.03,-0.01,-0.03
2020-08-13 11:45:14.6870,0.01,-0.02,0.0
2020-08-13 11:45:14.7860,0.03,0.0,-0.03
2020-08-13 11:45:14.8850,-0.07,-0.03,-0.0
2020-08-13 11:45:14.9840,-0.1,-0.1,-0.02
2020-08-13 11:45:15.0840,-0.3,-0.47,0.03
2020-08-13 11:45:15.1830,-0.44,-0.4,0.44
2020-08-13 11:45:15.2830,-0.28,-0.15,0.03
2020-08-13 11:45:15.3810,-0.52,0.31,0.0
2020-08-13 11:45:15.4810,-0.38,0.17,0.01
2020-08-13 11:45:15.5800,0.03,-0.19,0.08
2020-08-13 11:45:15.6800,0.46,-0.42,0.11
2020-08-13 11:45:15.7790,0.72,-0.23,-0.04
2020-08-13 11:45:15.8780,0.91,-0.02,-0.03
2020-08-13 11:45:15.9770,0.23,-0.41,-0.42
2020-08-13 11:45:16.0770,0.16,0.07,0.12
2020-08-13 11:45:16.1760,0.0,0.01,0.01
2020-08-13 11:45:16.2760,-0.02,-0.02,-0.01
2020-08-13 11:45:16.3740,-0.0,0.03,0.02
2020-08-13 11:45:16.4740,0.0,-0.0,-0.03
2020-08-13 11:45:16.5730,-0.06,0.02,-0.0
2020-08-13 11:45:16.6720,-0.04,-0.02,-0.03
2020-08-13 11:45:16.7710,-0.12,-0.12,-0.03
2020-08-13 11:45:16.8710,-0.22,-0.31,0.07
2020-08-13 11:45:16.9700,-0.64,-0.48,0.43
2020-08-13 11:45:17.0700,0.0,-0.1,0.03
2020-08-13 11:45:17.1680,-0.71,0.34,0.04
2020-08-13 11:45:17.2680,-0.51,0.07,0.04
2020-08-13 11:45:17.3670,-0.01,-0.28,0.07
2020-08-13 11:45:17.4670,0.28,-0.32,0.14
2020-08-13 11:45:17.5650,0.61,-0.23,-0.01
2020-08-13 11:45:17.6650,1.02,-0.07,-0.01
2020-08-13 11:45:17.7640,-0.77,-0.29,-0.01
2020-08-13 11:45:17.8630,0.31,-0.19,0.22
2020-08-13 11:45:17.9630,0.1,-0.05,-0.02
2020-08-13 11:45:18.0620,-0.02,0.0,-0.02
2020-08-13 11:45:18.1610,0.07,-0.01,0.01
2020-08-13 11:45:18.2600,-0.0,0.0,0.02
2020-08-13 11:45:18.3600,0.0,0.01,-0.02
2020-08-13 11:45:18.4590,-0.0,-0.0,-0.02
2020-08-13 11:45:18.5580,-0.07,-0.09,-0.02
2020-08-13 11:45:18.6570,-0.23,-0.25,0.07
2020-08-13 11:45:18.7570,-0.71,-0.58,0.3
2020-08-13 11:45:18.8560,-0.2,-0.15,0.09
2020-08-13 11:45:18.9550,-0.48,0.24,0.03
2020-08-13 11:45:19.0540,-0.25,0.1,-0.08
2020-08-13 11:45:19.1540,0.05,-0.07,0.03
2020-08-13 11:45:19.2530,0.29,-0.19,0.07
2020-08-13 11:45:19.3520,0.52,-0.23,0.01
2020-08-13 11:45:19.4510,0.75,-0.09,-0.09
2020-08-13 11:45:19.5510,-0.59,-0.33,-0.15
2020-08-13 11:45:19.6500,-0.03,-0.06,0.16
2020-08-13 11:45:19.7490,-0.02,-0.06,-0.16
2020-08-13 11:45:19.8480,0.01,0.01,0.01
2020-08-13 11:45:19.9480,-0.01,0.03,0.03
2020-08-13 11:45:20.0470,0.04,0.01,-0.04
2020-08-13 11:45:20.1460,-0.02,-0.01,0.01
2020-08-13 11:45:20.2450,0.01,-0.01,-0.04
2020-08-13 11:45:20.3450,-0.03,-0.07,0.01
2020-08-13 11:45:20.4440,-0.14,-0.28,0.05
2020-08-13 11:45:20.5440,-0.44,-0.51,-0.05
2020-08-13 11:45:20.6420,-0.19,-0.13,0.05
2020-08-13 11:45:20.7420,-0.55,0.19,0.17
2020-08-13 11:45:20.8410,-0.49,0.21,-0.01
2020-08-13 11:45:20.9410,-0.08,-0.18,-0.08
2020-08-13 11:45:21.0390,0.22,-0.19,-0.02
2020-08-13 11:45:21.1390,0.64,-0.28,-0.01
2020-08-13 11:45:21.2380,1.06,-0.16,0.06
2020-08-13 11:45:21.3370,-0.18,-0.4,0.2
2020-08-13 11:45:21.4360,0.34,-0.05,0.14
2020-08-13 11:45:21.5360,0.1,-0.03,-0.11
2020-08-13 11:45:21.6350,0.01,-0.0,-0.03
2020-08-13 11:45:21.7350,-0.01,0.01,0.03
2020-08-13 11:45:21.8330,-0.02,-0.02,0.03
2020-08-13 11:45:21.9330,0.06,0.0,-0.0
2020-08-13 11:45:22.0320,-0.02,-0.01,-0.03
2020-08-13 11:45:22.1320,-0.02,-0.02,0.02
2020-08-13 11:45:22.2300,-0.07,-0.16,-0.07
2020-08-13 11:45:22.3300,-0.2,-0.63,0.03
2020-08-13 11:45:22.4290,-0.41,-0.23,0.27
2020-08-13 11:45:22.5290,-0.91,0.06,0.02
2020-08-13 11:45:22.6270,-0.52,0.31,0.08
2020-08-13 11:45:22.7270,0.01,-0.38,0.03
2020-08-13 11:45:22.8260,0.22,-0.22,0.03
2020-08-13 11:45:22.9260,0.35,-0.18,-0.05
2020-08-13 11:45:23.0250,0.67,-0.11,-0.07
2020-08-13 11:45:23.1240,0.98,-0.02,-0.07
2020-08-13 11:45:23.2230,0.13,-0.35,-0.3
2020-08-13 11:45:23.3230,0.12,0.0,0.11
2020-08-13 11:45:23.4210,0.1,-0.02,-0.0
2020-08-13 11:45:23.5210,-0.03,-0.01,-0.01
2020-08-13 11:45:23.6200,-0.01,0.02,-0.0
2020-08-13 11:45:23.7200,0.01,0.03,0.01
2020-08-13 11:45:23.8190,0.03,-0.02,-0.05
2020-08-13 11:45:23.9180,-0.05,-0.01,-0.0
2020-08-13 11:45:24.0170,-0.03,-0.1,0.01
2020-08-13 11:45:24.1170,-0.13,-0.2,-0.02
2020-08-13 11:45:24.2160,-0.35,-0.53,-0.06
2020-08-13 11:45:24.3150,-0.21,-0.15,0.23
2020-08-13 11:45:24.4140,-0.95,0.21,0.15
2020-08-13 11:45:24.5140,-0.56,0.16,0.17
2020-08-13 11:45:24.6130,-0.01,-0.25,0.02
2020-08-13 11:45:24.7120,0.32,-0.27,0.06
2020-08-13 11:45:24.8110,0.58,-0.26,-0.11
2020-08-13 11:45:24.9110,0.9,-0.15,-0.02
2020-08-13 11:45:25.0100,-1.24,-0.06,-0.24
2020-08-13 11:45:25.1090,0.02,-0.02,0.05
2020-08-13 11:45:25.2080,-0.28,0.05,-0.06
2020-08-13 11:45:25.3080,-0.2,0.03,0.12
2020-08-13 11:45:25.4070,0.05,-0.05,-0.07
2020-08-13 11:45:25.5060,0.02,0.0,0.0
2020-08-13 11:45:25.6060,0.0,0.01,0.01
2020-08-13 11:45:25.7040,-0.02,0.0,-0.02
2020-08-13 11:45:25.8040,-0.08,-0.04,0.02
2020-08-13 11:45:25.9030,-0.14,-0.15,-0.01
2020-08-13 11:45:26.0030,-0.38,-0.61,-0.07
2020-08-13 11:45:26.1020,-0.26,-0.3,0.3
2020-08-13 11:45:26.2010,-0.8,0.13,0.06
2020-08-13 11:45:26.3000,-0.48,0.31,0.09
2020-08-13 11:45:26.4000,-0.06,-0.24,0.01
2020-08-13 11:45:26.4990,0.27,-0.19,0.01
2020-08-13 11:45:26.5990,0.51,-0.25,-0.02
2020-08-13 11:45:26.6970,0.79,-0.15,-0.08
2020-08-13 11:45:26.7970,0.65,-0.23,0.17
2020-08-13 11:45:26.8960,0.28,-0.06,-0.13
2020-08-13 11:45:26.9950,-0.2,-0.01,-0.06
2020-08-13 11:45:27.0950,-0.03,0.03,0.07
2020-08-13 11:45:27.1930,-0.03,0.01,-0.01
2020-08-13 11:45:27.2930,0.02,0.01,-0.02
2020-08-13 11:45:27.3920,-0.06,0.07,0.08
2020-08-13 11:45:27.4920,-0.06,-0.0,-0.02
2020-08-13 11:45:27.5900,-0.04,-0.05,-0.02
2020-08-13 11:45:27.6900,-0.08,-0.15,-0.04
2020-08-13 11:45:27.7890,-0.27,-0.44,0.04
2020-08-13 11:45:27.8880,-0.39,-0.16,0.43
2020-08-13 11:45:27.9880,-0.42,-0.21,0.24
2020-08-13 11:45:28.0870,-0.61,0.21,0.08
2020-08-13 11:45:28.1860,-0.31,-0.17,0.04
2020-08-13 11:45:28.2850,0.18,-0.27,0.06
2020-08-13 11:45:28.3850,0.47,-0.3,0.09
2020-08-13 11:45:28.4840,0.85,-0.12,-0.09
2020-08-13 11:45:28.5830,1.16,-0.27,0.2
2020-08-13 11:45:28.6830,0.31,-0.15,-0.13
2020-08-13 11:45:28.7820,0.02,-0.05,-0.12
2020-08-13 11:45:28.8810,0.05,-0.01,0.03
2020-08-13 11:45:28.9800,0.06,-0.03,-0.03
2020-08-13 11:45:29.0800,0.0,-0.03,0.02
2020-08-13 11:45:29.1790,0.03,0.01,-0.01
2020-08-13 11:45:29.2790,-0.04,0.05,0.02
2020-08-13 11:45:29.3770,-0.02,-0.04,-0.05
2020-08-13 11:45:29.4770,-0.06,-0.12,-0.02
2020-08-13 11:45:29.5760,-0.18,-0.39,0.03
2020-08-13 11:45:29.6760,-0.65,-0.21,0.19
2020-08-13 11:45:29.7740,-0.07,-0.14,0.09
2020-08-13 11:45:29.8730,-0.57,0.23,0.16
2020-08-13 11:45:29.9730,-0.43,-0.01,-0.02
2020-08-13 11:45:30.0720,0.12,-0.28,0.02
2020-08-13 11:45:30.1720,0.26,-0.31,0.1
2020-08-13 11:45:30.2700,0.87,-0.27,-0.01
2020-08-13 11:45:30.3700,0.91,-0.02,-0.06
2020-08-13 11:45:30.4690,-0.12,-0.39,-0.12
2020-08-13 11:45:30.5690,0.29,-0.04,0.03
2020-08-13 11:45:30.6670,0.25,-0.07,-0.06
2020-08-13 11:45:30.7670,-0.01,-0.02,0.02
2020-08-13 11:45:30.8660,0.07,-0.01,-0.02
2020-08-13 11:45:30.9660,-0.01,0.04,0.12
2020-08-13 11:45:31.0640,-0.03,-0.0,-0.01
2020-08-13 11:45:31.1640,0.01,-0.02,-0.0
2020-08-13 11:45:31.2630,-0.09,-0.11,0.0
2020-08-13 11:45:31.3620,-0.22,-0.29,0.06
2020-08-13 11:45:31.4610,-0.68,-0.65,0.16
2020-08-13 11:45:31.5610,-0.14,-0.11,0.08
2020-08-13 11:45:31.6600,-0.56,0.31,0.08
2020-08-13 11:45:31.7600,-0.34,-0.01,-0.06
2020-08-13 11:45:31.8590,0.31,-0.36,-0.03
2020-08-13 11:45:31.9580,0.43,-0.25,0.05
2020-08-13 11:45:32.0570,0.66,-0.16,-0.02
2020-08-13 11:45:32.1560,0.9,-0.03,-0.05
2020-08-13 11:45:32.2560,-0.13,-0.32,-0.09
2020-08-13 11:45:32.3560,0.44,-0.18,0.14
2020-08-13 11:45:32.4540,0.18,-0.07,-0.09
2020-08-13 11:45:32.5530,0.01,-0.01,0.03
2020-08-13 11:45:32.6530,-0.02,0.04,0.05
2020-08-13 11:45:32.7520,-0.03,0.06,0.01
2020-08-13 11:45:32.8510,0.03,0.01,-0.05
2020-08-13 11:45:32.9510,-0.04,-0.02,-0.02
2020-08-13 11:45:33.0500,-0.09,-0.07,0.02
2020-08-13 11:45:33.1490,-0.22,-0.3,0.07
2020-08-13 11:45:33.2480,-0.58,-0.45,0.11
2020-08-13 11:45:33.3480,-0.81,0.01,0.14
2020-08-13 11:45:33.4470,-0.57,0.19,0.07
2020-08-13 11:45:33.5460,-0.31,0.01,-0.03
2020-08-13 11:45:33.6450,0.22,-0.25,0.03
2020-08-13 11:45:33.7450,0.4,-0.23,-0.01
2020-08-13 11:45:33.8440,0.52,-0.16,-0.03
2020-08-13 11:45:33.9430,0.57,-0.04,-0.05
2020-08-13 11:45:34.0430,0.31,-0.22,0.02
2020-08-13 11:45:34.1420,0.5,-0.18,-0.21
2020-08-13 11:45:34.2410,-0.05,0.03,-0.03
2020-08-13 11:45:34.3400,0.03,0.02,0.04
2020-08-13 11:45:34.4400,0.05,-0.0,-0.05
2020-08-13 11:45:34.5390,-0.05,-0.01,0.04
2020-08-13 11:45:34.6390,-0.03,0.01,-0.03
2020-08-13 11:45:34.7370,-0.05,0.03,-0.02
2020-08-13 11:45:34.8370,-0.13,-0.02,0.03
2020-08-13 11:45:34.9360,-0.15,-0.16,0.02
2020-08-13 11:45:35.0360,-0.31,-0.53,-0.02
2020-08-13 11:45:35.1340,-0.43,-0.35,0.28
2020-08-13 11:45:35.2340,-0.91,0.0,0.12
2020-08-13 11:45:35.3330,-0.58,0.21,0.12
2020-08-13 11:45:35.4330,-0.04,-0.15,0.01
2020-08-13 11:45:35.5310,0.27,-0.19,0.0
2020-08-13 11:45:35.6300,0.47,-0.34,-0.03
2020-08-13 11:45:35.7300,0.92,-0.14,0.03
2020-08-13 11:45:35.8290,0.76,-0.08,-0.01
2020-08-13 11:45:35.9280,0.4,-0.27,-0.25
2020-08-13 11:45:36.0280,0.04,-0.03,-0.03
2020-08-13 11:45:36.1270,-0.06,0.0,0.01
2020-08-13 11:45:36.2270,-0.07,0.02,0.0
2020-08-13 11:45:36.3250,0.02,-0.0,0.02
2020-08-13 11:45:36.4250,0.04,-0.0,0.03
2020-08-13 11:45:36.5240,-0.02,0.0,-0.01
2020-08-13 11:45:36.6240,-0.01,-0.01,0.01
2020-08-13 11:45:36.7220,-0.06,-0.04,-0.01
2020-08-13 11:45:36.8220,-0.16,-0.46,-0.09
2020-08-13 11:45:36.9210,-0.39,-0.3,0.09
2020-08-13 11:45:37.0200,-0.45,-0.05,0.26
2020-08-13 11:45:37.1200,-0.55,0.27,0.05
2020-08-13 11:45:37.2190,-0.31,-0.09,-0.03
2020-08-13 11:45:37.3190,0.15,-0.3,0.03
2020-08-13 11:45:37.4170,0.55,-0.27,0.02
2020-08-13 11:45:37.5170,0.62,-0.07,-0.03
2020-08-13 11:45:37.6160,0.76,0.03,-0.06
2020-08-13 11:45:37.7150,-0.95,-0.3,0.23
2020-08-13 11:45:37.8140,0.27,-0.05,0.22
2020-08-13 11:45:37.9140,-0.06,0.04,-0.06
2020-08-13 11:45:38.0130,0.01,-0.02,0.0
2020-08-13 11:45:38.1120,0.02,0.02,0.04
2020-08-13 11:45:38.2110,0.04,-0.02,-0.06
2020-08-13 11:45:38.3110,0.09,-0.08,-0.11
2020-08-13 11:45:38.4100,-0.07,0.01,-0.0
2020-08-13 11:45:38.5090,-0.02,-0.06,-0.04
2020-08-13 11:45:38.6090,-0.04,-0.2,-0.08
2020-08-13 11:45:38.7070,-0.28,-0.44,-0.02
2020-08-13 11:45:38.8070,-0.36,-0.34,0.39
2020-08-13 11:45:38.9060,-0.71,-0.03,0.13
2020-08-13 11:45:39.0050,-0.39,0.25,0.06
2020-08-13 11:45:39.1050,-0.18,-0.18,0.01
2020-08-13 11:45:39.2040,0.2,-0.2,-0.02
2020-08-13 11:45:39.3040,0.4,-0.25,-0.06
2020-08-13 11:45:39.4020,0.76,-0.22,-0.08
2020-08-13 11:45:39.5020,0.84,-0.01,-0.1
2020-08-13 11:45:39.6010,-0.11,-0.37,-0.04
2020-08-13 11:45:39.7000,0.06,0.04,0.35
2020-08-13 11:45:39.8000,-0.12,0.04,0.02
2020-08-13 11:45:39.8990,-0.06,0.01,-0.0
2020-08-13 11:45:39.9980,0.02,-0.02,-0.04
2020-08-13 11:45:40.0980,-0.06,0.01,0.07
2020-08-13 11:45:40.1960,0.01,-0.01,-0.0
2020-08-13 11:45:40.2960,0.01,-0.0,-0.01
2020-08-13 11:45:40.3950,-0.03,-0.02,-0.02
2020-08-13 11:45:40.4940,-0.04,-0.07,-0.04
2020-08-13 11:45:40.5930,-0.09,-0.22,-0.0
2020-08-13 11:45:40.6930,-0.48,-0.46,0.24
2020-08-13 11:45:40.7920,-0.5,-0.01,-0.0
2020-08-13 11:45:40.8910,-0.54,0.27,0.07
2020-08-13 11:45:40.9910,-0.01,-0.15,-0.1
2020-08-13 11:45:41.0900,0.7,-0.19,-0.08
2020-08-13 11:45:41.1890,0.59,0.01,0.01
2020-08-13 11:45:41.2880,0.61,-0.12,-0.02
2020-08-13 11:45:41.3880,0.14,0.15,-0.14
2020-08-13 11:45:41.4870,-0.08,0.05,0.09
2020-08-13 11:45:41.5870,-0.11,0.01,0.01
2020-08-13 11:45:41.6850,-0.14,0.1,0.04
2020-08-13 11:45:41.7850,0.04,-0.0,-0.07
2020-08-13 11:45:41.8840,0.03,0.0,-0.01
2020-08-13 11:45:41.9840,0.03,-0.0,0.01
2020-08-13 11:45:42.0820,0.01,0.0,-0.0
2020-08-13 11:45:42.1820,0.02,0.0,-0.01
2020-08-13 11:45:42.2810,0.02,0.02,-0.0
2020-08-13 11:45:42.3800,-0.08,-0.01,0.0
2020-08-13 11:45:42.4790,-0.02,0.02,0.21
2020-08-13 11:45:42.5790,0.06,-0.0,-0.09
2020-08-13 11:45:42.6780,0.07,0.09,-0.03
