time,ax,ay,az
2020-08-12 20:15:34.8380,0.02,0.0,-0.02
2020-08-12 20:15:34.9390,0.02,0.0,-0.01
2020-08-12 20:15:35.0380,-0.01,0.02,-0.0
2020-08-12 20:15:35.1370,-0.0,0.01,0.01
2020-08-12 20:15:35.2360,-0.02,-0.0,-0.02
2020-08-12 20:15:35.3360,-0.05,-0.01,0.02
2020-08-12 20:15:35.4350,-0.04,0.02,-0.0
2020-08-12 20:15:35.5340,0.07,-0.01,-0.03
2020-08-12 20:15:35.6340,0.05,-0.01,0.01
2020-08-12 20:15:35.7310,-0.02,-0.0,0.0
2020-08-12 20:15:35.8320,0.07,-0.02,-0.02
2020-08-12 20:15:35.9310,-0.03,0.0,0.01
2020-08-12 20:15:36.0300,0.01,0.01,0.01
2020-08-12 20:15:36.1300,0.05,0.0,-0.03
2020-08-12 20:15:36.2290,0.03,-0.02,-0.02
2020-08-12 20:15:36.3280,-0.03,-0.0,0.02
2020-08-12 20:15:36.4280,-0.13,-0.06,0.04
2020-08-12 20:15:36.5270,-0.24,-0.32,-0.13
2020-08-12 20:15:36.6260,0.14,-0.87,0.53
2020-08-12 20:15:36.7240,-0.48,-0.03,-0.12
2020-08-12 20:15:36.8230,-0.47,0.92,-0.27
2020-08-12 20:15:36.9220,-0.38,0.72,-0.17
2020-08-12 20:15:37.0220,0.01,0.12,-0.05
2020-08-12 20:15:37.1210,0.02,-0.18,-0.08
2020-08-12 20:15:37.2200,0.36,-0.44,0.17
2020-08-12 20:15:37.3200,0.27,-0.02,0.16
2020-08-12 20:15:37.4190,-0.8,-0.26,0.52
2020-08-12 20:15:37.5180,0.04,-0.12,0.2
2020-08-12 20:15:37.6170,0.06,-0.02,-0.12
2020-08-12 20:15:37.7170,0.06,-0.04,0.03
2020-08-12 20:15:37.8160,-0.01,0.02,0.0
2020-08-12 20:15:37.9150,-0.07,0.05,0.03
2020-08-12 20:15:38.0140,-0.04,-0.0,0.01
2020-08-12 20:15:38.1140,-0.03,0.03,-0.03
2020-08-12 20:15:38.2130,-0.06,0.02,0.01
2020-08-12 20:15:38.3120,-0.12,-0.08,0.01
2020-08-12 20:15:38.4110,-0.36,-0.53,-0.09
2020-08-12 20:15:38.5110,-0.18,-0.45,0.15
2020-08-12 20:15:38.6100,-0.54,-0.21,0.12
2020-08-12 20:15:38.7090,-0.19,0.06,-0.07
2020-08-12 20:15:38.8090,-0.01,0.35,-0.2
2020-08-12 20:15:38.9080,0.32,0.34,-0.12
2020-08-12 20:15:39.0070,0.36,0.28,0.04
2020-08-12 20:15:39.1060,0.26,-0.36,0.13
2020-08-12 20:15:39.2050,0.46,-0.05,0.2
2020-08-12 20:15:39.3050,0.41,-0.37,-0.09
2020-08-12 20:15:39.4040,-0.05,0.05,0.12
2020-08-12 20:15:39.5030,-0.02,0.01,-0.01
2020-08-12 20:15:39.6020,-0.0,-0.0,-0.01
2020-08-12 20:15:39.7010,0.01,-0.0,-0.02
2020-08-12 20:15:39.8010,-0.09,0.02,0.02
2020-08-12 20:15:39.9000,-0.09,-0.01,0.06
2020-08-12 20:15:39.9990,-0.09,-0.01,0.03
2020-08-12 20:15:40.0990,-0.11,-0.02,0.02
2020-08-12 20:15:40.1980,-0.31,-0.29,0.01
2020-08-12 20:15:40.2970,-0.26,-0.36,0.34
2020-08-12 20:15:40.3960,-0.45,-0.01,-0.08
2020-08-12 20:15:40.4960,-0.32,-0.07,-0.04
2020-08-12 20:15:40.5950,-0.07,-0.0,-0.05
2020-08-12 20:15:40.6940,0.14,0.23,-0.13
2020-08-12 20:15:40.7930,0.25,0.42,-0.14
2020-08-12 20:15:40.8930,0.41,0.18,-0.02
2020-08-12 20:15:40.9920,0.31,-0.21,0.25
2020-08-12 20:15:41.0910,-0.15,-0.48,-0.27
2020-08-12 20:15:41.1900,0.88,-0.15,-0.3
2020-08-12 20:15:41.2900,-0.03,0.05,-0.08
2020-08-12 20:15:41.3890,-0.03,-0.01,0.06
2020-08-12 20:15:41.4880,0.05,-0.01,-0.0
2020-08-12 20:15:41.5870,0.01,-0.02,-0.01
2020-08-12 20:15:41.6870,-0.02,0.02,0.03
2020-08-12 20:15:41.7860,0.01,0.01,-0.01
2020-08-12 20:15:41.8850,0.02,-0.03,-0.04
2020-08-12 20:15:41.9840,-0.07,-0.03,0.03
2020-08-12 20:15:42.0840,-0.2,-0.06,-0.07
2020-08-12 20:15:42.1830,-0.43,-0.64,-0.17
2020-08-12 20:15:42.2820,0.1,-0.44,0.2
2020-08-12 20:15:42.3820,-0.3,0.04,-0.01
2020-08-12 20:15:42.4810,-0.33,0.6,-0.21
2020-08-12 20:15:42.5800,-0.16,0.61,-0.13
2020-08-12 20:15:42.6790,0.35,0.23,-0.07
2020-08-12 20:15:42.7780,0.2,-0.1,-0.0
2020-08-12 20:15:42.8780,0.17,-0.2,-0.01
2020-08-12 20:15:42.9770,0.19,0.04,0.06
2020-08-12 20:15:43.0760,-0.01,-0.65,-0.12
2020-08-12 20:15:43.1750,0.02,-0.05,0.16
2020-08-12 20:15:43.2750,0.1,-0.01,-0.01
2020-08-12 20:15:43.3740,0.06,0.01,-0.04
2020-08-12 20:15:43.4730,-0.05,0.01,0.01
2020-08-12 20:15:43.5720,-0.05,0.04,0.0
2020-08-12 20:15:43.6720,-0.03,0.0,-0.01
2020-08-12 20:15:43.7710,-0.13,0.0,0.12
2020-08-12 20:15:43.8700,-0.11,0.01,0.04
2020-08-12 20:15:43.9690,-0.28,-0.15,0.1
2020-08-12 20:15:44.0690,-0.61,-0.44,0.03
2020-08-12 20:15:44.1680,-0.01,-0.23,0.11
2020-08-12 20:15:44.2670,-0.26,-0.11,-0.01
2020-08-12 20:15:44.3670,-0.22,0.17,-0.06
2020-08-12 20:15:44.4660,-0.16,0.6,-0.25
2020-08-12 20:15:44.5650,0.0,0.64,-0.27
2020-08-12 20:15:44.6640,0.37,0.06,0.02
2020-08-12 20:15:44.7640,0.18,-0.39,0.17
2020-08-12 20:15:44.8630,0.31,-0.28,0.19
2020-08-12 20:15:44.9620,-0.74,-0.33,0.23
2020-08-12 20:15:45.0610,0.03,-0.03,0.19
2020-08-12 20:15:45.1610,0.05,-0.04,-0.13
2020-08-12 20:15:45.2600,0.03,0.03,0.03
2020-08-12 20:15:45.3590,0.04,0.0,0.01
2020-08-12 20:15:45.4580,0.03,-0.01,-0.04
2020-08-12 20:15:45.5580,0.01,0.0,-0.01
2020-08-12 20:15:45.6570,0.05,-0.03,-0.03
2020-08-12 20:15:45.7560,-0.01,-0.01,0.03
2020-08-12 20:15:45.8550,-0.0,-0.01,0.0
2020-08-12 20:15:45.9540,-0.06,-0.08,-0.11
2020-08-12 20:15:46.0540,-0.39,-0.62,-0.2
2020-08-12 20:15:46.1530,0.13,-0.3,0.11
2020-08-12 20:15:46.2520,-0.32,-0.09,0.06
2020-08-12 20:15:46.3510,0.07,0.04,-0.04
2020-08-12 20:15:46.4510,-0.11,0.42,-0.22
2020-08-12 20:15:46.5500,-0.07,0.72,-0.28
2020-08-12 20:15:46.6490,0.35,0.14,0.0
2020-08-12 20:15:46.7490,0.3,-0.43,0.18
2020-08-12 20:15:46.8480,0.47,-0.07,0.12
2020-08-12 20:15:46.9470,-0.79,-0.52,-0.07
2020-08-12 20:15:47.0460,-0.25,-0.09,0.21
2020-08-12 20:15:47.1460,-0.11,0.01,0.03
2020-08-12 20:15:47.2450,-0.02,0.01,-0.0
2020-08-12 20:15:47.3440,-0.01,0.02,0.03
2020-08-12 20:15:47.4430,-0.01,0.01,-0.02
2020-08-12 20:15:47.5430,-0.04,0.02,0.02
2020-08-12 20:15:47.6420,-0.02,0.0,0.01
2020-08-12 20:15:47.7410,-0.02,0.02,-0.01
2020-08-12 20:15:47.8400,-0.06,-0.04,0.02
2020-08-12 20:15:47.9400,-0.19,-0.16,0.04
2020-08-12 20:15:48.0390,-0.31,-0.55,-0.28
2020-08-12 20:15:48.1380,-0.08,-0.27,0.17
2020-08-12 20:15:48.2370,-0.18,-0.29,0.19
2020-08-12 20:15:48.3360,0.11,0.0,0.05
2020-08-12 20:15:48.4360,-0.29,0.66,-0.26
2020-08-12 20:15:48.5350,-0.38,0.89,-0.39
2020-08-12 20:15:48.6340,0.11,0.12,-0.07
2020-08-12 20:15:48.7340,0.25,-0.54,0.13
2020-08-12 20:15:48.8330,0.76,-0.23,0.13
2020-08-12 20:15:48.9320,-0.49,-0.36,0.07
2020-08-12 20:15:49.0310,0.03,-0.19,0.07
2020-08-12 20:15:49.1300,0.07,-0.01,0.03
2020-08-12 20:15:49.2300,0.05,-0.03,-0.03
2020-08-12 20:15:49.3290,-0.01,0.02,0.01
2020-08-12 20:15:49.4280,-0.01,-0.01,0.02
2020-08-12 20:15:49.5280,-0.06,0.0,0.02
2020-08-12 20:15:49.6270,-0.04,0.01,0.01
2020-08-12 20:15:49.7260,-0.06,0.02,0.03
2020-08-12 20:15:49.8250,-0.06,-0.0,-0.02
2020-08-12 20:15:49.9240,-0.21,-0.21,-0.01
2020-08-12 20:15:50.0240,-0.79,-0.53,-0.03
2020-08-12 20:15:50.1220,0.27,-0.7,0.07
2020-08-12 20:15:50.2220,-0.34,0.14,0.0
2020-08-12 20:15:50.3220,-0.41,0.57,-0.23
2020-08-12 20:15:50.4210,-0.18,0.73,-0.29
2020-08-12 20:15:50.5200,0.32,0.07,-0.06
2020-08-12 20:15:50.6190,0.28,-0.33,0.23
2020-08-12 20:15:50.7190,0.61,-0.28,0.1
2020-08-12 20:15:50.8170,-1.15,-0.5,0.16
2020-08-12 20:15:50.9170,-0.23,-0.03,0.23
2020-08-12 20:15:51.0170,-0.1,0.01,0.02
2020-08-12 20:15:51.1160,-0.15,0.02,0.04
2020-08-12 20:15:51.2150,-0.06,0.0,0.03
2020-08-12 20:15:51.3140,-0.02,0.02,0.03
2020-08-12 20:15:51.4140,-0.02,-0.0,0.01
2020-08-12 20:15:51.5130,-0.05,0.01,-0.01
2020-08-12 20:15:51.6120,-0.06,-0.01,0.02
2020-08-12 20:15:51.7110,-0.03,-0.05,0.02
2020-08-12 20:15:51.8100,-0.2,-0.3,-0.05
2020-08-12 20:15:51.9100,-0.27,-0.4,0.31
2020-08-12 20:15:52.0080,-0.54,-0.2,0.01
2020-08-12 20:15:52.1070,-0.04,-0.21,-0.01
2020-08-12 20:15:52.2070,-0.08,0.35,-0.19
2020-08-12 20:15:52.3070,-0.27,0.97,-0.33
2020-08-12 20:15:52.4060,0.28,0.4,-0.13
2020-08-12 20:15:52.5050,0.43,-0.15,0.02
2020-08-12 20:15:52.6040,0.41,-0.45,0.19
2020-08-12 20:15:52.7030,-1.17,-0.55,0.19
2020-08-12 20:15:52.8030,-0.3,0.02,0.16
2020-08-12 20:15:52.9020,-0.05,-0.01,-0.05
2020-08-12 20:15:53.0010,0.02,-0.03,-0.01
2020-08-12 20:15:53.1010,0.02,-0.0,0.06
2020-08-12 20:15:53.2000,0.0,0.02,0.01
2020-08-12 20:15:53.2990,0.01,0.01,-0.0
2020-08-12 20:15:53.3980,0.0,-0.01,0.01
2020-08-12 20:15:53.4980,-0.02,0.0,-0.01
2020-08-12 20:15:53.5970,-0.08,-0.05,0.02
2020-08-12 20:15:53.6960,-0.47,-0.39,-0.12
2020-08-12 20:15:53.7950,-0.06,-0.48,0.2
2020-08-12 20:15:53.8950,-0.24,-0.22,0.15
2020-08-12 20:15:53.9940,-0.12,0.19,-0.05
2020-08-12 20:15:54.0930,-0.16,0.58,-0.15
2020-08-12 20:15:54.1920,-0.08,0.74,-0.26
2020-08-12 20:15:54.2920,0.42,0.17,-0.0
2020-08-12 20:15:54.3910,0.33,-0.22,0.05
2020-08-12 20:15:54.4900,0.42,-0.31,0.15
2020-08-12 20:15:54.5890,-1.21,-0.26,0.25
2020-08-12 20:15:54.6880,-0.05,-0.02,0.23
2020-08-12 20:15:54.7880,-0.04,-0.03,0.01
2020-08-12 20:15:54.8870,0.06,-0.02,0.03
2020-08-12 20:15:54.9860,-0.04,0.03,0.05
2020-08-12 20:15:55.0860,0.01,-0.01,-0.01
2020-08-12 20:15:55.1840,-0.01,0.01,0.02
2020-08-12 20:15:55.2830,0.0,0.01,0.0
2020-08-12 20:15:55.3840,-0.05,-0.03,0.04
2020-08-12 20:15:55.4820,-0.12,-0.01,0.02
2020-08-12 20:15:55.5810,-0.39,-0.39,-0.11
2020-08-12 20:15:55.6810,0.07,-0.44,0.17
2020-08-12 20:15:55.7800,-0.26,-0.24,0.07
2020-08-12 20:15:55.8790,0.03,-0.02,-0.02
2020-08-12 20:15:55.9790,-0.25,0.71,-0.3
2020-08-12 20:15:56.0770,-0.11,0.79,-0.27
2020-08-12 20:15:56.1770,0.35,0.17,-0.11
2020-08-12 20:15:56.2770,0.39,-0.29,0.1
2020-08-12 20:15:56.3760,0.41,-0.27,-0.02
2020-08-12 20:15:56.4750,-0.89,-0.48,0.23
2020-08-12 20:15:56.5740,-0.04,-0.2,0.31
2020-08-12 20:15:56.6740,-0.0,0.02,0.05
2020-08-12 20:15:56.7720,-0.01,0.01,0.03
2020-08-12 20:15:56.8720,0.03,-0.03,-0.0
2020-08-12 20:15:56.9720,0.07,-0.02,-0.02
2020-08-12 20:15:57.0700,0.01,0.0,0.02
2020-08-12 20:15:57.1700,-0.0,0.04,0.01
2020-08-12 20:15:57.2690,0.03,-0.01,0.0
2020-08-12 20:15:57.3690,-0.14,-0.08,-0.05
2020-08-12 20:15:57.4680,-0.37,-0.29,-0.06
2020-08-12 20:15:57.5660,-0.09,-0.49,0.17
2020-08-12 20:15:57.6650,-0.34,-0.34,0.23
2020-08-12 20:15:57.7650,0.01,-0.07,-0.01
2020-08-12 20:15:57.8640,-0.3,0.77,-0.28
2020-08-12 20:15:57.9630,-0.19,0.8,-0.3
2020-08-12 20:15:58.0630,0.36,0.3,-0.14
2020-08-12 20:15:58.1630,0.35,-0.25,-0.06
2020-08-12 20:15:58.2620,0.35,-0.24,0.17
2020-08-12 20:15:58.3600,-0.84,0.13,0.34
2020-08-12 20:15:58.4600,0.47,-0.19,0.04
2020-08-12 20:15:58.5600,0.15,-0.07,-0.06
2020-08-12 20:15:58.6580,-0.01,-0.02,0.04
2020-08-12 20:15:58.7580,-0.06,0.02,0.05
2020-08-12 20:15:58.8570,0.02,-0.02,0.02
2020-08-12 20:15:58.9560,0.03,0.01,-0.0
2020-08-12 20:15:59.0560,-0.01,-0.0,0.01
2020-08-12 20:15:59.1550,-0.0,0.01,0.02
2020-08-12 20:15:59.2540,-0.02,-0.04,0.0
2020-08-12 20:15:59.3540,-0.24,-0.31,-0.04
2020-08-12 20:15:59.4530,-0.37,-0.34,0.23
2020-08-12 20:15:59.5510,-0.36,-0.32,0.02
2020-08-12 20:15:59.6510,-0.34,0.22,-0.01
2020-08-12 20:15:59.7510,-0.08,0.31,-0.1
2020-08-12 20:15:59.8500,0.06,0.54,-0.31
2020-08-12 20:15:59.9480,0.28,0.13,-0.08
2020-08-12 20:16:00.0490,0.43,-0.11,0.11
2020-08-12 20:16:00.1480,0.33,-0.19,0.06
2020-08-12 20:16:00.2460,0.4,-0.12,-0.02
2020-08-12 20:16:00.3460,0.68,-0.11,-0.31
2020-08-12 20:16:00.4450,0.3,-0.02,-0.02
2020-08-12 20:16:00.5440,0.16,-0.04,0.02
2020-08-12 20:16:00.6440,0.05,-0.02,-0.01
2020-08-12 20:16:00.7420,0.02,-0.0,0.03
2020-08-12 20:16:00.8410,-0.06,0.08,0.1
2020-08-12 20:16:00.9420,-0.09,0.02,-0.0
2020-08-12 20:16:01.0400,-0.02,0.01,0.01
2020-08-12 20:16:01.1400,-0.01,-0.01,0.01
2020-08-12 20:16:01.2380,-0.05,-0.09,0.05
2020-08-12 20:16:01.3390,-0.22,-0.26,-0.19
2020-08-12 20:16:01.4380,-0.28,-0.37,0.18
2020-08-12 20:16:01.5370,-0.31,-0.39,0.04
2020-08-12 20:16:01.6360,-0.22,-0.05,0.01
2020-08-12 20:16:01.7350,-0.26,0.56,-0.19
2020-08-12 20:16:01.8340,-0.29,0.79,-0.23
2020-08-12 20:16:01.9340,0.34,0.34,-0.03
2020-08-12 20:16:02.0330,0.38,-0.21,0.07
2020-08-12 20:16:02.1320,0.57,-0.44,0.16
2020-08-12 20:16:02.2320,-1.12,0.1,0.28
2020-08-12 20:16:02.3310,0.12,-0.04,0.1
2020-08-12 20:16:02.4290,0.03,-0.02,-0.07
2020-08-12 20:16:02.5300,0.08,-0.05,-0.02
2020-08-12 20:16:02.6290,-0.01,0.02,0.01
2020-08-12 20:16:02.7270,-0.01,0.01,0.02
2020-08-12 20:16:02.8270,0.01,0.01,0.01
2020-08-12 20:16:02.9270,0.0,0.01,0.0
2020-08-12 20:16:03.0260,-0.02,-0.02,0.0
2020-08-12 20:16:03.1250,0.01,-0.02,0.01
2020-08-12 20:16:03.2250,-0.17,-0.21,0.06
2020-08-12 20:16:03.3240,-0.35,-0.24,-0.12
2020-08-12 20:16:03.4230,-0.0,-0.62,0.27
2020-08-12 20:16:03.5220,-0.38,-0.29,0.17
2020-08-12 20:16:03.6210,-0.23,0.21,-0.12
2020-08-12 20:16:03.7200,-0.11,0.39,-0.1
2020-08-12 20:16:03.8190,-0.01,0.6,-0.23
2020-08-12 20:16:03.9190,0.23,0.32,-0.05
2020-08-12 20:16:04.0190,0.35,-0.24,0.23
2020-08-12 20:16:04.1180,0.52,-0.37,0.16
2020-08-12 20:16:04.2170,-0.65,-0.56,-0.13
2020-08-12 20:16:04.3160,-0.12,0.03,0.23
2020-08-12 20:16:04.4150,0.07,-0.03,0.03
2020-08-12 20:16:04.5150,0.02,-0.03,-0.01
2020-08-12 20:16:04.6140,0.07,-0.02,-0.02
2020-08-12 20:16:04.7120,0.04,0.0,0.01
2020-08-12 20:16:04.8120,0.01,0.0,0.01
2020-08-12 20:16:04.9120,0.01,-0.01,0.0
2020-08-12 20:16:05.0100,-0.0,0.0,0.01
2020-08-12 20:16:05.1090,-0.01,0.0,0.01
2020-08-12 20:16:05.2100,-0.03,-0.01,0.03
2020-08-12 20:16:05.3090,-0.18,-0.15,0.04
2020-08-12 20:16:05.4080,-0.41,-0.41,-0.06
2020-08-12 20:16:05.5070,-0.11,-0.82,0.29
2020-08-12 20:16:05.6060,-0.46,-0.1,0.27
2020-08-12 20:16:05.7060,-0.17,0.29,-0.06
2020-08-12 20:16:05.8050,-0.23,0.73,-0.26
2020-08-12 20:16:05.9030,0.1,0.72,-0.18
2020-08-12 20:16:06.0030,0.44,-0.05,0.08
2020-08-12 20:16:06.1030,0.43,-0.63,0.25
2020-08-12 20:16:06.2020,0.23,-0.49,-0.06
2020-08-12 20:16:06.3010,0.57,-0.14,-0.02
2020-08-12 20:16:06.4000,0.08,-0.01,-0.1
2020-08-12 20:16:06.5000,0.09,-0.04,0.02
2020-08-12 20:16:06.5990,0.02,0.02,0.02
2020-08-12 20:16:06.6980,0.02,0.0,0.03
2020-08-12 20:16:06.7960,-0.02,-0.01,0.04
2020-08-12 20:16:06.8970,-0.03,-0.0,0.03
2020-08-12 20:16:06.9960,0.04,0.01,0.0
2020-08-12 20:16:07.0950,-0.0,0.01,0.02
2020-08-12 20:16:07.1950,0.02,-0.01,-0.0
2020-08-12 20:16:07.2940,-0.15,-0.18,0.03
2020-08-12 20:16:07.3930,-0.55,-0.33,-0.08
2020-08-12 20:16:07.4920,0.18,-0.7,0.26
2020-08-12 20:16:07.5910,-0.15,-0.22,0.14
2020-08-12 20:16:07.6910,-0.32,0.42,-0.24
2020-08-12 20:16:07.7900,-0.51,0.82,-0.3
2020-08-12 20:16:07.8890,0.02,0.55,-0.19
2020-08-12 20:16:07.9890,0.38,-0.29,0.2
2020-08-12 20:16:08.0870,0.49,-0.48,0.25
2020-08-12 20:16:08.1870,-0.04,-0.38,-0.06
2020-08-12 20:16:08.2860,0.66,-0.11,-0.08
2020-08-12 20:16:08.3860,0.21,-0.08,-0.13
2020-08-12 20:16:08.4850,0.0,0.01,0.06
2020-08-12 20:16:08.5840,0.04,-0.0,-0.0
2020-08-12 20:16:08.6820,0.02,0.01,-0.0
2020-08-12 20:16:08.7820,0.01,0.01,0.03
2020-08-12 20:16:08.8820,0.03,-0.01,-0.01
2020-08-12 20:16:08.9810,0.01,0.02,-0.0
2020-08-12 20:16:09.0800,-0.01,-0.01,0.01
2020-08-12 20:16:09.1800,0.01,-0.02,0.04
2020-08-12 20:16:09.2780,-0.16,-0.21,-0.0
2020-08-12 20:16:09.3780,-0.7,-0.33,0.03
2020-08-12 20:16:09.4780,0.01,-0.69,0.09
2020-08-12 20:16:09.5770,-0.12,-0.11,0.01
2020-08-12 20:16:09.6760,-0.29,0.5,-0.23
2020-08-12 20:16:09.7750,-0.19,0.79,-0.3
2020-08-12 20:16:09.8740,0.24,0.36,-0.1
2020-08-12 20:16:09.9740,0.51,-0.4,0.19
2020-08-12 20:16:10.0730,0.62,-0.41,0.35
2020-08-12 20:16:10.1710,-1.09,-0.26,0.13
2020-08-12 20:16:10.2710,0.21,-0.04,0.15
2020-08-12 20:16:10.3710,0.01,-0.01,-0.0
2020-08-12 20:16:10.4700,0.03,-0.01,-0.01
2020-08-12 20:16:10.5690,0.02,0.01,0.03
2020-08-12 20:16:10.6670,0.05,0.0,0.01
2020-08-12 20:16:10.7690,0.04,-0.01,0.01
2020-08-12 20:16:10.8660,0.02,0.01,0.01
2020-08-12 20:16:10.9660,-0.01,0.0,0.01
2020-08-12 20:16:11.0650,-0.02,-0.0,0.02
2020-08-12 20:16:11.1650,-0.09,-0.03,0.06
2020-08-12 20:16:11.2640,-0.09,-0.21,-0.16
2020-08-12 20:16:11.3630,-0.35,-0.4,0.11
2020-08-12 20:16:11.4620,0.03,-0.65,0.28
2020-08-12 20:16:11.5620,-0.26,-0.06,-0.04
2020-08-12 20:16:11.6600,-0.38,0.58,-0.28
2020-08-12 20:16:11.7600,-0.16,0.67,-0.23
2020-08-12 20:16:11.8590,0.24,0.21,-0.04
2020-08-12 20:16:11.9580,0.46,-0.33,0.22
2020-08-12 20:16:12.0570,0.63,-0.36,0.29
2020-08-12 20:16:12.1570,-0.96,-0.33,-0.17
2020-08-12 20:16:12.2550,0.12,0.09,0.07
2020-08-12 20:16:12.3560,0.23,-0.08,-0.04
2020-08-12 20:16:12.4550,0.07,-0.02,0.04
2020-08-12 20:16:12.5540,0.01,0.02,0.04
2020-08-12 20:16:12.6530,0.04,-0.0,0.02
2020-08-12 20:16:12.7520,0.01,-0.0,0.03
2020-08-12 20:16:12.8520,0.0,-0.02,0.02
2020-08-12 20:16:12.9500,0.03,0.02,0.01
2020-08-12 20:16:13.0500,-0.01,0.01,0.03
2020-08-12 20:16:13.1490,-0.01,-0.03,0.01
2020-08-12 20:16:13.2490,-0.14,-0.23,0.05
2020-08-12 20:16:13.3480,-0.54,-0.27,-0.0
2020-08-12 20:16:13.4480,0.04,-0.52,0.14
2020-08-12 20:16:13.5470,-0.21,-0.09,-0.0
2020-08-12 20:16:13.6460,-0.18,0.33,-0.18
2020-08-12 20:16:13.7450,-0.22,0.73,-0.24
2020-08-12 20:16:13.8450,0.08,0.43,-0.23
2020-08-12 20:16:13.9430,0.33,-0.16,0.11
2020-08-12 20:16:14.0430,0.45,-0.3,0.23
2020-08-12 20:16:14.1420,-0.16,-0.53,-0.49
2020-08-12 20:16:14.2410,0.76,-0.3,-0.22
2020-08-12 20:16:14.3410,0.02,0.02,0.02
2020-08-12 20:16:14.4400,-0.03,0.02,0.04
2020-08-12 20:16:14.5390,0.01,0.0,0.02
2020-08-12 20:16:14.6380,-0.0,0.0,0.03
2020-08-12 20:16:14.7380,0.01,0.02,0.02
2020-08-12 20:16:14.8360,0.05,-0.01,-0.0
2020-08-12 20:16:14.9360,0.02,-0.01,0.01
2020-08-12 20:16:15.0360,0.02,-0.02,-0.0
2020-08-12 20:16:15.1340,0.01,-0.01,0.01
2020-08-12 20:16:15.2340,-0.11,-0.08,-0.03
2020-08-12 20:16:15.3330,-0.32,-0.42,-0.2
2020-08-12 20:16:15.4320,-0.24,-0.62,0.25
2020-08-12 20:16:15.5320,-0.23,-0.45,0.12
2020-08-12 20:16:15.6310,-0.0,0.09,-0.09
2020-08-12 20:16:15.7290,-0.27,0.75,-0.31
2020-08-12 20:16:15.8290,-0.07,0.79,-0.21
2020-08-12 20:16:15.9290,0.41,0.15,0.01
2020-08-12 20:16:16.0270,0.32,-0.44,0.14
2020-08-12 20:16:16.1270,0.45,-0.33,0.13
2020-08-12 20:16:16.2260,-0.55,-0.53,-0.14
2020-08-12 20:16:16.3260,-0.09,-0.02,0.21
2020-08-12 20:16:16.4250,-0.01,-0.0,0.01
2020-08-12 20:16:16.5240,-0.0,-0.02,0.02
2020-08-12 20:16:16.6240,0.02,0.01,0.05
2020-08-12 20:16:16.7220,0.02,-0.01,0.01
2020-08-12 20:16:16.8210,0.0,0.0,0.03
2020-08-12 20:16:16.9210,-0.0,0.0,0.02
2020-08-12 20:16:17.0210,0.02,-0.01,0.02
2020-08-12 20:16:17.1190,-0.01,-0.01,0.01
2020-08-12 20:16:17.2190,-0.04,-0.01,0.02
2020-08-12 20:16:17.3180,-0.15,-0.2,0.03
2020-08-12 20:16:17.4180,-0.55,-0.41,-0.01
2020-08-12 20:16:17.5170,0.07,-0.42,0.07
2020-08-12 20:16:17.6160,-0.17,-0.07,-0.01
2020-08-12 20:16:17.7150,-0.26,0.43,-0.24
2020-08-12 20:16:17.8150,-0.21,0.71,-0.2
2020-08-12 20:16:17.9140,0.19,0.35,-0.09
2020-08-12 20:16:18.0130,0.51,-0.24,0.14
2020-08-12 20:16:18.1120,0.46,-0.34,0.22
2020-08-12 20:16:18.2110,-0.65,-0.12,-0.44
2020-08-12 20:16:18.3110,0.31,-0.12,0.04
2020-08-12 20:16:18.4100,0.04,-0.02,-0.03
2020-08-12 20:16:18.5090,0.25,-0.06,-0.05
2020-08-12 20:16:18.6080,0.08,0.0,0.05
2020-08-12 20:16:18.7080,-0.0,-0.02,-0.0
2020-08-12 20:16:18.8070,0.05,-0.0,-0.0
2020-08-12 20:16:18.9060,0.03,0.01,0.02
2020-08-12 20:16:19.0050,0.03,0.01,0.0
2020-08-12 20:16:19.1050,0.01,-0.01,0.01
2020-08-12 20:16:19.2040,0.01,-0.03,0.04
2020-08-12 20:16:19.3030,-0.18,-0.18,0.02
2020-08-12 20:16:19.4030,-0.52,-0.36,-0.07
2020-08-12 20:16:19.5020,0.1,-0.51,0.3
2020-08-12 20:16:19.6010,-0.29,-0.1,0.01
2020-08-12 20:16:19.7000,-0.31,0.36,-0.23
2020-08-12 20:16:19.8000,-0.19,0.6,-0.26
2020-08-12 20:16:19.8980,0.12,0.41,-0.1
2020-08-12 20:16:19.9980,0.44,-0.16,0.11
2020-08-12 20:16:20.0960,0.56,-0.45,0.17
2020-08-12 20:16:20.1970,-0.0,-0.3,-0.26
2020-08-12 20:16:20.2960,0.71,-0.18,-0.1
2020-08-12 20:16:20.3950,0.07,-0.01,-0.03
2020-08-12 20:16:20.4940,0.05,-0.03,0.02
2020-08-12 20:16:20.5940,0.05,-0.0,0.01
2020-08-12 20:16:20.6930,-0.0,-0.01,0.03
2020-08-12 20:16:20.7920,-0.03,0.0,0.03
2020-08-12 20:16:20.8900,0.02,0.0,0.01
2020-08-12 20:16:20.9900,0.03,0.0,-0.01
2020-08-12 20:16:21.0900,-0.01,-0.01,0.01
2020-08-12 20:16:21.1880,-0.0,-0.0,0.01
2020-08-12 20:16:21.2880,-0.09,-0.14,0.02
2020-08-12 20:16:21.3880,-0.23,-0.31,-0.14
2020-08-12 20:16:21.4870,-0.19,-0.43,0.25
2020-08-12 20:16:21.5860,-0.63,-0.24,0.09
2020-08-12 20:16:21.6850,-0.18,0.04,-0.06
2020-08-12 20:16:21.7850,-0.18,0.39,-0.19
2020-08-12 20:16:21.8840,0.06,0.78,-0.18
2020-08-12 20:16:21.9830,0.37,0.24,-0.03
2020-08-12 20:16:22.0820,0.28,-0.5,0.13
2020-08-12 20:16:22.1820,0.55,-0.16,0.12
2020-08-12 20:16:22.2810,0.04,-0.3,0.07
2020-08-12 20:16:22.3800,-0.13,0.04,0.16
2020-08-12 20:16:22.4790,-0.05,0.03,0.09
2020-08-12 20:16:22.5790,0.06,-0.01,-0.06
2020-08-12 20:16:22.6780,0.04,0.01,0.03
2020-08-12 20:16:22.7770,0.05,0.01,0.06
2020-08-12 20:16:22.8760,0.03,-0.0,0.02
2020-08-12 20:16:22.9760,0.02,-0.02,0.0
2020-08-12 20:16:23.0750,-0.0,0.01,0.02
2020-08-12 20:16:23.1740,-0.02,0.01,0.02
2020-08-12 20:16:23.2730,-0.09,-0.17,0.01
2020-08-12 20:16:23.3730,-0.21,-0.27,-0.2
2020-08-12 20:16:23.4710,-0.08,-0.64,0.31
2020-08-12 20:16:23.5710,-0.63,-0.25,0.17
2020-08-12 20:16:23.6700,-0.29,0.15,-0.07
2020-08-12 20:16:23.7700,-0.09,0.39,-0.14
2020-08-12 20:16:23.8690,0.07,0.55,-0.19
2020-08-12 20:16:23.9680,0.34,0.12,0.03
2020-08-12 20:16:24.0680,0.44,-0.36,0.29
2020-08-12 20:16:24.1670,0.49,-0.24,0.16
2020-08-12 20:16:24.2650,-0.82,-0.7,0.13
2020-08-12 20:16:24.3650,-0.12,-0.02,0.22
2020-08-12 20:16:24.4640,-0.03,-0.03,0.01
2020-08-12 20:16:24.5640,-0.01,0.02,0.04
2020-08-12 20:16:24.6630,-0.03,0.01,0.04
2020-08-12 20:16:24.7620,-0.02,-0.01,0.01
2020-08-12 20:16:24.8610,0.03,-0.02,0.01
2020-08-12 20:16:24.9600,0.04,-0.01,0.02
2020-08-12 20:16:25.0600,0.04,0.0,-0.0
2020-08-12 20:16:25.1590,-0.01,0.02,0.01
2020-08-12 20:16:25.2590,-0.1,-0.05,0.05
2020-08-12 20:16:25.3580,-0.13,-0.11,-0.05
2020-08-12 20:16:25.4560,-0.65,-0.42,0.03
2020-08-12 20:16:25.5560,0.23,-0.56,0.22
2020-08-12 20:16:25.6550,-0.27,-0.09,-0.03
2020-08-12 20:16:25.7550,-0.23,0.49,-0.2
2020-08-12 20:16:25.8540,-0.3,0.82,-0.21
2020-08-12 20:16:25.9530,0.11,0.41,-0.15
2020-08-12 20:16:26.0530,0.36,-0.1,0.02
2020-08-12 20:16:26.1520,0.47,-0.34,0.18
2020-08-12 20:16:26.2510,-0.06,-0.4,-0.46
2020-08-12 20:16:26.3500,0.63,-0.17,0.07
2020-08-12 20:16:26.4490,0.24,-0.05,-0.12
2020-08-12 20:16:26.5490,0.04,0.04,0.02
2020-08-12 20:16:26.6480,-0.04,0.01,0.04
2020-08-12 20:16:26.7470,0.03,0.02,0.01
2020-08-12 20:16:26.8470,0.05,0.0,0.02
2020-08-12 20:16:26.9460,0.0,-0.01,0.02
2020-08-12 20:16:27.0450,-0.0,-0.01,0.02
2020-08-12 20:16:27.1440,0.0,-0.01,0.02
2020-08-12 20:16:27.2430,-0.05,0.02,0.02
2020-08-12 20:16:27.3430,-0.12,-0.21,0.01
2020-08-12 20:16:27.4420,-0.43,-0.33,-0.11
2020-08-12 20:16:27.5410,-0.1,-0.44,0.17
2020-08-12 20:16:27.6410,-0.4,-0.3,0.18
2020-08-12 20:16:27.7400,-0.33,0.23,-0.17
2020-08-12 20:16:27.8380,-0.29,0.67,-0.24
2020-08-12 20:16:27.9380,-0.04,0.58,-0.22
2020-08-12 20:16:28.0380,0.5,-0.36,0.12
2020-08-12 20:16:28.1360,0.42,-0.35,0.2
2020-08-12 20:16:28.2360,0.44,-0.09,0.08
2020-08-12 20:16:28.3350,0.18,-0.18,0.0
2020-08-12 20:16:28.4340,0.16,-0.02,0.05
2020-08-12 20:16:28.5340,0.02,-0.01,0.1
2020-08-12 20:16:28.6330,-0.01,0.0,-0.01
2020-08-12 20:16:28.7320,0.04,-0.01,0.02
2020-08-12 20:16:28.8320,0.05,-0.01,0.01
2020-08-12 20:16:28.9310,0.02,-0.01,-0.0
2020-08-12 20:16:29.0300,0.02,-0.0,-0.0
2020-08-12 20:16:29.1290,-0.05,-0.0,0.06
2020-08-12 20:16:29.2290,-0.07,-0.02,0.03
2020-08-12 20:16:29.3280,-0.24,-0.38,-0.08
2020-08-12 20:16:29.4270,-0.29,-0.46,0.25
2020-08-12 20:16:29.5260,-0.24,-0.39,0.23
2020-08-12 20:16:29.6250,-0.3,0.23,-0.16
2020-08-12 20:16:29.7250,-0.46,0.73,-0.33
2020-08-12 20:16:29.8240,-0.1,0.57,-0.29
2020-08-12 20:16:29.9220,0.33,0.02,-0.02
2020-08-12 20:16:30.0230,0.38,-0.34,0.16
2020-08-12 20:16:30.1220,0.53,-0.23,0.07
2020-08-12 20:16:30.2210,-0.81,-0.16,0.11
2020-08-12 20:16:30.3200,0.1,-0.07,0.14
2020-08-12 20:16:30.4190,-0.12,0.01,-0.02
2020-08-12 20:16:30.5180,0.05,-0.04,-0.01
2020-08-12 20:16:30.6180,0.01,0.01,0.04
2020-08-12 20:16:30.7170,0.02,0.01,0.02
2020-08-12 20:16:30.8170,-0.0,0.02,0.05
2020-08-12 20:16:30.9150,0.04,-0.01,-0.01
2020-08-12 20:16:31.0150,-0.0,0.01,0.01
2020-08-12 20:16:31.1140,-0.04,-0.02,-0.01
2020-08-12 20:16:31.2140,-0.12,-0.29,0.02
2020-08-12 20:16:31.3130,-0.45,-0.31,-0.06
2020-08-12 20:16:31.4120,0.0,-0.32,0.13
2020-08-12 20:16:31.5110,-0.2,-0.38,0.17
2020-08-12 20:16:31.6100,-0.05,-0.15,0.14
2020-08-12 20:16:31.7100,-0.08,0.47,-0.22
2020-08-12 20:16:31.8090,-0.29,0.98,-0.44
2020-08-12 20:16:31.9080,0.22,0.47,-0.12
2020-08-12 20:16:32.0080,0.34,-0.61,0.31
2020-08-12 20:16:32.1070,0.6,-0.37,0.31
2020-08-12 20:16:32.2050,-0.08,-0.15,0.03
2020-08-12 20:16:32.3040,0.32,-0.13,-0.06
2020-08-12 20:16:32.4050,0.09,0.0,0.05
2020-08-12 20:16:32.5040,0.07,-0.02,0.01
2020-08-12 20:16:32.6030,0.07,-0.01,-0.01
2020-08-12 20:16:32.7020,0.01,0.02,0.03
2020-08-12 20:16:32.8020,0.01,0.0,0.03
2020-08-12 20:16:32.9010,0.04,-0.01,0.0
2020-08-12 20:16:33.0000,0.05,-0.01,-0.02
2020-08-12 20:16:33.0990,0.01,-0.05,0.03
2020-08-12 20:16:33.1990,-0.24,-0.25,-0.05
2020-08-12 20:16:33.2980,-0.56,-0.4,0.08
2020-08-12 20:16:33.3970,0.13,-0.43,-0.0
2020-08-12 20:16:33.4970,-0.3,0.08,-0.02
2020-08-12 20:16:33.5960,-0.19,0.29,-0.18
2020-08-12 20:16:33.6950,-0.01,0.42,-0.14
2020-08-12 20:16:33.7930,0.26,0.32,-0.12
2020-08-12 20:16:33.8930,0.31,0.07,0.03
2020-08-12 20:16:33.9930,0.41,-0.26,0.22
2020-08-12 20:16:34.0920,0.46,-0.11,0.06
2020-08-12 20:16:34.1910,0.13,-0.14,0.08
2020-08-12 20:16:34.2900,-0.15,0.06,0.06
2020-08-12 20:16:34.3900,0.07,-0.02,0.08
2020-08-12 20:16:34.4880,-0.01,-0.02,0.01
2020-08-12 20:16:34.5880,-0.0,0.02,0.02
2020-08-12 20:16:34.6870,0.03,0.03,0.03
2020-08-12 20:16:34.7870,0.01,0.0,0.05
2020-08-12 20:16:34.8860,0.03,0.0,0.01
2020-08-12 20:16:34.9850,0.02,-0.01,0.0
2020-08-12 20:16:35.0840,-0.04,-0.01,0.03
2020-08-12 20:16:35.1840,-0.06,-0.08,0.01
2020-08-12 20:16:35.2830,-0.26,-0.3,-0.14
2020-08-12 20:16:35.3820,-0.41,-0.43,0.24
2020-08-12 20:16:35.4820,-0.17,-0.42,-0.04
2020-08-12 20:16:35.5810,-0.27,0.23,-0.09
2020-08-12 20:16:35.6790,-0.32,0.62,-0.26
2020-08-12 20:16:35.7790,-0.08,0.53,-0.18
2020-08-12 20:16:35.8780,0.35,-0.0,0.0
2020-08-12 20:16:35.9770,0.36,-0.28,0.1
2020-08-12 20:16:36.0770,0.48,-0.26,0.26
2020-08-12 20:16:36.1760,-0.71,-0.21,0.34
2020-08-12 20:16:36.2760,-0.05,0.01,0.25
2020-08-12 20:16:36.3750,-0.01,-0.01,0.03
2020-08-12 20:16:36.4740,-0.0,0.0,0.03
2020-08-12 20:16:36.5730,0.05,0.01,0.01
2020-08-12 20:16:36.6720,0.0,0.01,0.01
2020-08-12 20:16:36.7720,-0.01,0.03,0.04
2020-08-12 20:16:36.8710,0.0,-0.01,-0.02
2020-08-12 20:16:36.9700,-0.0,-0.0,0.01
2020-08-12 20:16:37.0690,-0.02,-0.01,0.03
2020-08-12 20:16:37.1690,-0.08,-0.23,-0.01
2020-08-12 20:16:37.2680,-0.42,-0.33,-0.12
2020-08-12 20:16:37.3670,0.09,-0.54,0.27
2020-08-12 20:16:37.4670,-0.28,-0.24,0.09
2020-08-12 20:16:37.5650,-0.38,0.45,-0.23
2020-08-12 20:16:37.6650,-0.34,0.66,-0.22
2020-08-12 20:16:37.7640,0.15,0.41,-0.15
2020-08-12 20:16:37.8630,0.27,-0.07,0.15
2020-08-12 20:16:37.9630,0.21,-0.28,0.08
2020-08-12 20:16:38.0620,0.7,-0.2,0.09
2020-08-12 20:16:38.1610,-0.24,-0.52,0.03
2020-08-12 20:16:38.2600,-0.2,0.11,0.16
2020-08-12 20:16:38.3590,0.02,-0.02,-0.0
2020-08-12 20:16:38.4590,0.06,-0.02,0.03
2020-08-12 20:16:38.5580,0.03,-0.0,0.02
2020-08-12 20:16:38.6580,0.01,-0.01,0.03
2020-08-12 20:16:38.7570,0.01,0.01,0.0
2020-08-12 20:16:38.8560,0.01,0.01,0.02
2020-08-12 20:16:38.9550,-0.02,-0.0,0.02
2020-08-12 20:16:39.0540,-0.11,-0.05,-0.01
2020-08-12 20:16:39.1540,-0.22,-0.42,-0.09
2020-08-12 20:16:39.2530,0.05,-0.65,0.37
2020-08-12 20:16:39.3510,-0.35,-0.16,0.02
2020-08-12 20:16:39.4510,-0.16,0.15,-0.07
2020-08-12 20:16:39.5510,0.02,0.4,-0.11
2020-08-12 20:16:39.6500,-0.06,0.66,-0.16
2020-08-12 20:16:39.7500,0.26,0.32,0.01
2020-08-12 20:16:39.8490,0.34,-0.2,0.2
2020-08-12 20:16:39.9480,0.58,-0.31,0.12
2020-08-12 20:16:40.0460,-1.31,0.08,0.2
2020-08-12 20:16:40.1460,0.01,0.14,0.35
2020-08-12 20:16:40.2460,-0.02,-0.08,-0.06
2020-08-12 20:16:40.3450,0.07,-0.01,-0.01
2020-08-12 20:16:40.4440,0.0,0.03,0.04
2020-08-12 20:16:40.5430,0.09,-0.05,-0.04
2020-08-12 20:16:40.6430,0.06,-0.03,-0.01
2020-08-12 20:16:40.7420,0.02,0.01,0.0
2020-08-12 20:16:40.8410,0.01,0.01,0.01
2020-08-12 20:16:40.9400,-0.0,-0.02,-0.01
2020-08-12 20:16:41.0400,-0.17,-0.35,-0.06
2020-08-12 20:16:41.1390,-0.68,-0.41,0.15
2020-08-12 20:16:41.2380,0.18,-0.47,-0.12
2020-08-12 20:16:41.3370,-0.33,0.21,-0.07
2020-08-12 20:16:41.4360,-0.39,0.55,-0.24
2020-08-12 20:16:41.5360,-0.07,0.5,-0.18
2020-08-12 20:16:41.6350,0.31,0.13,-0.06
2020-08-12 20:16:41.7340,0.39,-0.32,0.1
2020-08-12 20:16:41.8340,0.5,-0.31,0.34
2020-08-12 20:16:41.9330,-0.83,0.03,0.65
2020-08-12 20:16:42.0320,0.28,-0.06,0.08
2020-08-12 20:16:42.1310,0.14,-0.04,-0.04
2020-08-12 20:16:42.2310,-0.01,0.0,0.04
2020-08-12 20:16:42.3300,0.03,-0.0,0.04
2020-08-12 20:16:42.4290,0.03,-0.01,0.0
2020-08-12 20:16:42.5280,0.01,0.0,0.01
2020-08-12 20:16:42.6280,0.01,0.01,0.02
2020-08-12 20:16:42.7270,-0.01,-0.02,0.01
2020-08-12 20:16:42.8260,-0.1,-0.24,-0.03
2020-08-12 20:16:42.9250,-0.62,-0.67,-0.1
2020-08-12 20:16:43.0250,0.32,-0.59,0.25
2020-08-12 20:16:43.1240,-0.51,0.19,0.14
2020-08-12 20:16:43.2230,-0.43,0.57,-0.21
2020-08-12 20:16:43.3220,-0.2,0.53,-0.17
2020-08-12 20:16:43.4220,0.11,0.3,-0.09
2020-08-12 20:16:43.5210,0.31,-0.07,-0.06
2020-08-12 20:16:43.6200,0.35,-0.35,0.12
2020-08-12 20:16:43.7190,0.59,-0.1,0.11
2020-08-12 20:16:43.8180,-0.22,-0.25,0.13
2020-08-12 20:16:43.9180,-0.17,-0.03,0.09
2020-08-12 20:16:44.0170,0.13,-0.05,0.01
2020-08-12 20:16:44.1160,-0.0,0.0,0.01
2020-08-12 20:16:44.2160,0.02,0.03,0.04
2020-08-12 20:16:44.3150,0.04,0.0,-0.01
2020-08-12 20:16:44.4130,0.03,-0.0,-0.0
2020-08-12 20:16:44.5130,0.04,0.0,-0.02
2020-08-12 20:16:44.6130,0.06,-0.04,-0.04
2020-08-12 20:16:44.7120,-0.08,-0.22,0.04
2020-08-12 20:16:44.8110,-0.51,-0.46,-0.15
2020-08-12 20:16:44.9090,0.15,-0.64,0.29
2020-08-12 20:16:45.0100,-0.28,-0.1,0.09
2020-08-12 20:16:45.1090,-0.43,0.5,-0.29
2020-08-12 20:16:45.2080,-0.33,0.73,-0.23
2020-08-12 20:16:45.3070,0.12,0.44,-0.07
2020-08-12 20:16:45.4070,0.37,0.1,-0.03
2020-08-12 20:16:45.5060,0.24,-0.26,0.08
2020-08-12 20:16:45.6040,0.4,-0.38,0.24
2020-08-12 20:16:45.7040,-0.61,-0.1,0.64
2020-08-12 20:16:45.8040,-0.04,-0.04,0.2
2020-08-12 20:16:45.9030,0.01,-0.01,0.0
2020-08-12 20:16:46.0020,0.04,-0.02,-0.01
2020-08-12 20:16:46.1010,0.01,0.01,0.06
2020-08-12 20:16:46.2010,0.0,0.03,0.02
2020-08-12 20:16:46.3000,0.03,-0.02,-0.01
2020-08-12 20:16:46.3990,0.01,0.01,0.01
2020-08-12 20:16:46.4980,-0.05,-0.03,0.01
2020-08-12 20:16:46.5980,-0.25,-0.37,-0.08
2020-08-12 20:16:46.6970,-0.78,-0.42,0.12
2020-08-12 20:16:46.7960,-0.18,-0.16,-0.11
2020-08-12 20:16:46.8950,-0.22,0.21,0.01
2020-08-12 20:16:46.9950,-0.06,0.47,-0.13
2020-08-12 20:16:47.0940,0.03,0.48,-0.13
2020-08-12 20:16:47.1930,0.09,0.33,-0.06
2020-08-12 20:16:47.2920,0.15,0.05,0.05
2020-08-12 20:16:47.3920,0.31,-0.24,0.05
2020-08-12 20:16:47.4910,0.5,-0.24,0.03
2020-08-12 20:16:47.5900,-0.63,0.06,0.06
2020-08-12 20:16:47.6890,0.5,-0.06,-0.38
2020-08-12 20:16:47.7890,0.09,-0.04,-0.04
2020-08-12 20:16:47.8880,-0.02,0.01,0.05
2020-08-12 20:16:47.9870,0.01,0.01,0.01
2020-08-12 20:16:48.0860,0.04,-0.01,-0.0
2020-08-12 20:16:48.1860,0.0,-0.0,0.01
2020-08-12 20:16:48.2840,0.01,0.02,0.0
2020-08-12 20:16:48.3840,-0.02,-0.0,0.02
2020-08-12 20:16:48.4830,-0.06,-0.07,-0.0
2020-08-12 20:16:48.5830,-0.34,-0.57,-0.05
2020-08-12 20:16:48.6820,-0.01,-0.67,0.33
2020-08-12 20:16:48.7810,-0.32,-0.3,0.15
2020-08-12 20:16:48.8800,-0.26,0.24,-0.14
2020-08-12 20:16:48.9800,-0.57,0.63,-0.28
2020-08-12 20:16:49.0790,-0.17,0.51,-0.16
2020-08-12 20:16:49.1780,0.25,0.05,-0.02
2020-08-12 20:16:49.2770,0.48,-0.42,0.12
2020-08-12 20:16:49.3770,0.52,-0.29,0.18
2020-08-12 20:16:49.4760,-0.33,-0.38,-0.31
2020-08-12 20:16:49.5760,0.56,-0.13,-0.06
2020-08-12 20:16:49.6750,0.1,-0.07,-0.04
2020-08-12 20:16:49.7730,-0.01,-0.0,0.03
2020-08-12 20:16:49.8720,0.01,0.02,0.02
2020-08-12 20:16:49.9720,0.11,-0.04,-0.02
2020-08-12 20:16:50.0720,0.03,0.0,0.01
2020-08-12 20:16:50.1710,0.02,0.0,0.01
2020-08-12 20:16:50.2700,0.03,-0.01,0.0
2020-08-12 20:16:50.3690,-0.05,-0.09,0.01
2020-08-12 20:16:50.4680,-0.37,-0.64,-0.07
2020-08-12 20:16:50.5680,0.0,-0.55,0.29
2020-08-12 20:16:50.6670,-0.18,-0.24,0.15
2020-08-12 20:16:50.7650,-0.15,0.15,-0.04
2020-08-12 20:16:50.8660,-0.28,0.6,-0.22
2020-08-12 20:16:50.9650,-0.15,0.63,-0.21
2020-08-12 20:16:51.0640,0.12,0.32,-0.12
2020-08-12 20:16:51.1630,0.37,-0.33,0.15
2020-08-12 20:16:51.2630,0.48,-0.47,0.28
2020-08-12 20:16:51.3610,-0.56,-0.23,-0.11
2020-08-12 20:16:51.4600,0.5,-0.06,-0.03
2020-08-12 20:16:51.5600,0.1,-0.06,-0.05
2020-08-12 20:16:51.6600,0.04,-0.03,0.02
2020-08-12 20:16:51.7590,0.02,-0.0,0.01
2020-08-12 20:16:51.8580,0.04,0.01,0.01
2020-08-12 20:16:51.9570,0.07,0.01,0.0
2020-08-12 20:16:52.0570,0.04,-0.0,-0.01
2020-08-12 20:16:52.1560,-0.02,-0.01,0.01
2020-08-12 20:16:52.2550,-0.09,-0.08,-0.01
2020-08-12 20:16:52.3540,-0.42,-0.44,0.05
2020-08-12 20:16:52.4540,-0.15,-0.46,0.22
2020-08-12 20:16:52.5520,-0.4,-0.18,0.22
2020-08-12 20:16:52.6520,-0.16,0.21,-0.04
2020-08-12 20:16:52.7510,-0.28,0.51,-0.2
2020-08-12 20:16:52.8510,-0.09,0.63,-0.22
2020-08-12 20:16:52.9500,0.49,0.01,-0.07
2020-08-12 20:16:53.0490,0.42,-0.23,0.08
2020-08-12 20:16:53.1480,0.59,-0.26,0.26
2020-08-12 20:16:53.2480,-0.96,0.12,0.32
2020-08-12 20:16:53.3470,0.37,-0.22,0.16
2020-08-12 20:16:53.4460,0.01,-0.03,0.05
2020-08-12 20:16:53.5450,0.06,-0.03,0.02
2020-08-12 20:16:53.6440,0.03,0.01,0.06
2020-08-12 20:16:53.7440,0.05,0.0,0.03
2020-08-12 20:16:53.8430,0.02,-0.01,-0.01
2020-08-12 20:16:53.9420,-0.0,0.01,0.01
2020-08-12 20:16:54.0420,-0.01,-0.01,-0.0
2020-08-12 20:16:54.1410,-0.05,-0.02,-0.01
2020-08-12 20:16:54.2400,-0.18,-0.46,-0.06
2020-08-12 20:16:54.3380,-0.61,-0.25,0.21
2020-08-12 20:16:54.4390,-0.19,-0.52,-0.03
2020-08-12 20:16:54.5380,-0.27,0.11,0.01
2020-08-12 20:16:54.6360,-0.25,0.62,-0.25
2020-08-12 20:16:54.7360,-0.04,0.59,-0.2
2020-08-12 20:16:54.8360,0.34,0.07,0.02
2020-08-12 20:16:54.9350,0.34,-0.32,0.24
2020-08-12 20:16:55.0340,0.66,-0.33,0.33
2020-08-12 20:16:55.1340,-0.49,-0.26,-0.24
2020-08-12 20:16:55.2320,0.24,-0.15,0.18
2020-08-12 20:16:55.3320,0.11,-0.03,0.05
2020-08-12 20:16:55.4300,0.01,0.0,0.03
2020-08-12 20:16:55.5300,0.06,-0.01,0.04
2020-08-12 20:16:55.6300,0.08,-0.0,-0.01
2020-08-12 20:16:55.7290,0.03,-0.01,0.01
2020-08-12 20:16:55.8280,-0.01,0.01,0.03
2020-08-12 20:16:55.9270,0.02,-0.01,0.0
2020-08-12 20:16:56.0260,0.0,-0.03,0.03
2020-08-12 20:16:56.1260,-0.12,-0.27,-0.02
2020-08-12 20:16:56.2250,-0.57,-0.38,-0.07
2020-08-12 20:16:56.3240,0.35,-0.58,0.19
2020-08-12 20:16:56.4240,-0.37,-0.04,0.03
2020-08-12 20:16:56.5230,-0.37,0.43,-0.25
2020-08-12 20:16:56.6210,-0.22,0.62,-0.23
2020-08-12 20:16:56.7210,0.24,0.32,-0.05
2020-08-12 20:16:56.8210,0.4,-0.07,0.02
2020-08-12 20:16:56.9200,0.63,-0.52,0.12
2020-08-12 20:16:57.0180,-0.1,-0.48,-0.5
2020-08-12 20:16:57.1190,0.51,-0.07,-0.14
2020-08-12 20:16:57.2180,-0.07,0.03,0.02
2020-08-12 20:16:57.3170,-0.05,0.01,0.09
2020-08-12 20:16:57.4160,0.0,-0.01,0.04
2020-08-12 20:16:57.5160,0.04,0.0,0.03
2020-08-12 20:16:57.6150,0.03,0.0,0.03
2020-08-12 20:16:57.7140,0.02,0.01,0.02
2020-08-12 20:16:57.8130,0.02,-0.0,0.01
2020-08-12 20:16:57.9130,0.08,-0.01,-0.02
2020-08-12 20:16:58.0120,-0.0,-0.04,0.01
2020-08-12 20:16:58.1110,-0.18,-0.29,-0.01
2020-08-12 20:16:58.2100,-0.71,-0.24,0.08
2020-08-12 20:16:58.3090,-0.01,-0.61,0.11
2020-08-12 20:16:58.4090,-0.27,0.09,-0.01
2020-08-12 20:16:58.5080,-0.57,0.6,-0.3
2020-08-12 20:16:58.6070,-0.08,0.56,-0.22
2020-08-12 20:16:58.7070,0.31,0.07,0.05
2020-08-12 20:16:58.8060,0.32,-0.42,0.22
2020-08-12 20:16:58.9050,0.58,-0.23,0.2
2020-08-12 20:16:59.0040,-0.46,-0.13,-0.24
2020-08-12 20:16:59.1040,0.42,-0.0,-0.09
2020-08-12 20:16:59.2030,0.12,-0.09,-0.09
2020-08-12 20:16:59.3020,0.07,-0.02,0.02
2020-08-12 20:16:59.4010,-0.01,0.01,0.04
2020-08-12 20:16:59.5000,0.04,-0.02,-0.01
2020-08-12 20:16:59.5990,0.04,-0.0,0.02
2020-08-12 20:16:59.6990,0.05,-0.0,0.01
2020-08-12 20:16:59.7980,-0.01,0.02,0.02
2020-08-12 20:16:59.8970,-0.03,-0.02,0.01
2020-08-12 20:16:59.9970,-0.11,-0.23,-0.02
2020-08-12 20:17:00.0960,-0.48,-0.49,-0.05
2020-08-12 20:17:00.1950,0.18,-0.64,0.04
2020-08-12 20:17:00.2940,-0.39,-0.12,0.07
2020-08-12 20:17:00.3930,-0.25,0.25,-0.16
2020-08-12 20:17:00.4920,-0.25,0.78,-0.23
2020-08-12 20:17:00.5920,0.3,0.55,-0.1
2020-08-12 20:17:00.6920,0.45,-0.08,0.13
2020-08-12 20:17:00.7910,0.49,-0.52,0.26
2020-08-12 20:17:00.8890,0.12,-0.73,-0.64
2020-08-12 20:17:00.9880,0.4,-0.17,0.2
2020-08-12 20:17:01.0880,-0.07,0.04,0.04
2020-08-12 20:17:01.1870,0.01,0.0,0.02
2020-08-12 20:17:01.2870,-0.01,0.01,0.02
2020-08-12 20:17:01.3850,0.07,-0.01,-0.01
2020-08-12 20:17:01.4860,0.05,-0.0,-0.0
2020-08-12 20:17:01.5840,0.03,0.01,0.02
2020-08-12 20:17:01.6830,0.02,0.01,-0.0
2020-08-12 20:17:01.7840,0.06,-0.02,-0.03
2020-08-12 20:17:01.8820,-0.12,-0.27,0.0
2020-08-12 20:17:01.9810,-0.59,-0.48,-0.04
2020-08-12 20:17:02.0810,0.24,-0.32,-0.09
2020-08-12 20:17:02.1790,-0.29,-0.05,-0.09
2020-08-12 20:17:02.2800,-0.25,0.44,-0.21
2020-08-12 20:17:02.3780,-0.19,0.61,-0.18
2020-08-12 20:17:02.4770,0.43,0.07,0.05
2020-08-12 20:17:02.5760,0.34,-0.24,0.18
2020-08-12 20:17:02.6760,0.68,-0.31,0.21
2020-08-12 20:17:02.7750,-0.66,0.06,0.55
2020-08-12 20:17:02.8740,0.35,-0.11,0.14
2020-08-12 20:17:02.9730,0.07,-0.03,-0.0
2020-08-12 20:17:03.0740,0.03,-0.02,0.02
2020-08-12 20:17:03.1720,-0.01,0.0,0.04
2020-08-12 20:17:03.2720,0.02,0.02,0.05
2020-08-12 20:17:03.3710,0.09,-0.03,-0.07
2020-08-12 20:17:03.4710,0.02,-0.01,-0.01
2020-08-12 20:17:03.5690,-0.03,0.02,0.01
2020-08-12 20:17:03.6680,-0.06,-0.06,0.02
2020-08-12 20:17:03.7680,-0.23,-0.46,-0.09
2020-08-12 20:17:03.8670,-0.3,-0.46,0.3
2020-08-12 20:17:03.9660,-0.36,-0.27,0.13
2020-08-12 20:17:04.0660,-0.18,0.02,-0.06
2020-08-12 20:17:04.1640,-0.27,0.55,-0.23
2020-08-12 20:17:04.2650,-0.13,0.58,-0.11
2020-08-12 20:17:04.3630,0.32,0.17,0.11
2020-08-12 20:17:04.4610,0.46,-0.44,0.31
2020-08-12 20:17:04.5620,0.56,-0.36,0.19
2020-08-12 20:17:04.6620,-0.91,0.05,0.24
2020-08-12 20:17:04.7610,0.43,-0.04,0.05
2020-08-12 20:17:04.8600,0.13,-0.07,0.03
2020-08-12 20:17:04.9590,0.07,-0.02,0.02
2020-08-12 20:17:05.0580,0.04,0.01,0.04
2020-08-12 20:17:05.1570,0.04,0.0,0.0
2020-08-12 20:17:05.2570,0.08,-0.02,-0.03
2020-08-12 20:17:05.3550,0.03,-0.01,-0.01
2020-08-12 20:17:05.4560,0.0,-0.01,-0.02
2020-08-12 20:17:05.5550,-0.07,-0.12,-0.01
2020-08-12 20:17:05.6540,-0.46,-0.49,-0.11
2020-08-12 20:17:05.7540,-0.01,-0.57,0.16
2020-08-12 20:17:05.8530,-0.29,-0.35,0.2
2020-08-12 20:17:05.9510,-0.06,0.17,-0.14
2020-08-12 20:17:06.0500,-0.4,0.81,-0.35
2020-08-12 20:17:06.1510,-0.03,0.72,-0.28
2020-08-12 20:17:06.2500,0.33,-0.27,0.05
2020-08-12 20:17:06.3480,0.48,-0.64,0.36
2020-08-12 20:17:06.4480,-0.21,-0.57,-0.89
2020-08-12 20:17:06.5480,0.36,-0.06,0.06
2020-08-12 20:17:06.6460,0.03,-0.04,0.0
2020-08-12 20:17:06.7450,0.02,0.0,0.02
2020-08-12 20:17:06.8450,0.02,-0.01,-0.0
2020-08-12 20:17:06.9440,0.03,0.0,0.03
2020-08-12 20:17:07.0440,0.03,0.01,0.02
2020-08-12 20:17:07.1430,0.03,0.0,0.02
2020-08-12 20:17:07.2420,0.02,0.01,0.01
2020-08-12 20:17:07.3420,-0.0,-0.02,-0.01
2020-08-12 20:17:07.4400,-0.07,-0.08,-0.02
2020-08-12 20:17:07.5400,-0.3,-0.29,-0.05
2020-08-12 20:17:07.6390,-0.08,-0.49,0.35
2020-08-12 20:17:07.7380,-0.55,-0.29,0.04
2020-08-12 20:17:07.8380,-0.26,0.02,0.09
2020-08-12 20:17:07.9360,-0.04,0.34,-0.02
2020-08-12 20:17:08.0360,0.04,0.57,-0.16
2020-08-12 20:17:08.1350,0.27,0.28,-0.08
2020-08-12 20:17:08.2350,0.45,-0.37,0.26
2020-08-12 20:17:08.3340,0.85,-0.27,0.27
2020-08-12 20:17:08.4320,-0.58,-0.24,-0.01
2020-08-12 20:17:08.5330,0.36,-0.18,0.09
2020-08-12 20:17:08.6310,0.11,-0.03,0.02
2020-08-12 20:17:08.7300,0.02,-0.01,0.02
2020-08-12 20:17:08.8300,0.03,0.01,0.05
2020-08-12 20:17:08.9280,0.09,-0.02,-0.02
2020-08-12 20:17:09.0280,0.06,0.01,-0.01
2020-08-12 20:17:09.1270,0.0,-0.01,0.03
2020-08-12 20:17:09.2270,0.01,0.01,-0.01
2020-08-12 20:17:09.3260,-0.01,-0.08,-0.0
2020-08-12 20:17:09.4250,-0.23,-0.27,-0.02
2020-08-12 20:17:09.5250,-0.59,-0.39,0.05
2020-08-12 20:17:09.6250,0.09,-0.42,0.05
2020-08-12 20:17:09.7230,-0.45,0.18,0.13
2020-08-12 20:17:09.8230,-0.37,0.42,-0.18
2020-08-12 20:17:09.9220,-0.1,0.47,-0.15
2020-08-12 20:17:10.0200,0.35,0.11,0.0
2020-08-12 20:17:10.1200,0.42,-0.25,0.18
2020-08-12 20:17:10.2190,0.83,-0.26,0.23
2020-08-12 20:17:10.3190,-1.0,0.24,0.42
2020-08-12 20:17:10.4170,0.26,-0.03,0.11
2020-08-12 20:17:10.5180,0.12,-0.08,-0.01
2020-08-12 20:17:10.6170,0.03,-0.01,0.05
2020-08-12 20:17:10.7160,0.02,0.02,0.03
2020-08-12 20:17:10.8150,0.07,-0.0,-0.03
2020-08-12 20:17:10.9140,0.01,0.0,0.01
2020-08-12 20:17:11.0130,0.06,-0.0,0.01
2020-08-12 20:17:11.1130,0.02,0.01,0.01
2020-08-12 20:17:11.2110,0.02,-0.01,-0.01
2020-08-12 20:17:11.3120,-0.04,-0.13,-0.01
2020-08-12 20:17:11.4110,-0.29,-0.36,-0.08
2020-08-12 20:17:11.5100,-0.13,-0.52,0.27
2020-08-12 20:17:11.6090,-0.75,-0.15,0.15
2020-08-12 20:17:11.7080,-0.39,0.16,-0.1
2020-08-12 20:17:11.8080,-0.16,0.4,-0.12
2020-08-12 20:17:11.9070,0.36,0.09,0.03
2020-08-12 20:17:12.0060,0.42,-0.02,0.15
2020-08-12 20:17:12.1060,0.58,-0.16,0.16
2020-08-12 20:17:12.2040,0.65,-0.07,0.19
2020-08-12 20:17:12.3040,0.16,-0.13,0.38
2020-08-12 20:17:12.4030,0.13,0.0,0.05
2020-08-12 20:17:12.5020,0.02,0.0,0.05
2020-08-12 20:17:12.6020,0.02,-0.01,0.02
2020-08-12 20:17:12.7000,0.04,-0.0,0.02
2020-08-12 20:17:12.8000,0.05,-0.01,0.01
2020-08-12 20:17:12.8990,0.02,0.01,0.02
2020-08-12 20:17:12.9990,0.03,0.01,-0.0
2020-08-12 20:17:13.0980,0.02,-0.02,-0.04
2020-08-12 20:17:13.1970,-0.03,-0.08,0.01
2020-08-12 20:17:13.2960,-0.21,-0.36,-0.09
2020-08-12 20:17:13.3960,-0.58,-0.21,0.26
2020-08-12 20:17:13.4940,-0.08,-0.57,-0.07
2020-08-12 20:17:13.5940,-0.37,0.1,-0.19
2020-08-12 20:17:13.6930,-0.44,0.48,-0.23
2020-08-12 20:17:13.7930,-0.08,0.47,-0.15
2020-08-12 20:17:13.8920,0.3,0.14,0.04
2020-08-12 20:17:13.9910,0.3,-0.15,0.1
2020-08-12 20:17:14.0910,0.51,-0.37,0.09
2020-08-12 20:17:14.1900,0.11,-0.42,-0.45
2020-08-12 20:17:14.2890,0.39,-0.13,0.18
2020-08-12 20:17:14.3880,-0.07,-0.02,-0.02
2020-08-12 20:17:14.4880,-0.07,0.02,0.06
2020-08-12 20:17:14.5860,0.0,0.0,0.01
2020-08-12 20:17:14.6850,0.02,-0.01,-0.01
2020-08-12 20:17:14.7860,-0.02,0.01,0.01
2020-08-12 20:17:14.8840,-0.0,0.01,0.04
2020-08-12 20:17:14.9840,-0.01,0.02,-0.02
2020-08-12 20:17:15.0830,0.0,-0.01,-0.01
2020-08-12 20:17:15.1820,-0.03,-0.14,-0.02
2020-08-12 20:17:15.2820,-0.28,-0.38,-0.06
2020-08-12 20:17:15.3800,-0.41,-0.28,0.27
2020-08-12 20:17:15.4800,-0.18,-0.42,0.1
2020-08-12 20:17:15.5800,-0.29,0.03,0.05
2020-08-12 20:17:15.6780,-0.16,0.32,-0.18
2020-08-12 20:17:15.7780,-0.2,0.65,-0.22
2020-08-12 20:17:15.8770,0.13,0.34,-0.14
2020-08-12 20:17:15.9760,0.4,-0.14,0.11
2020-08-12 20:17:16.0750,0.62,-0.4,0.18
2020-08-12 20:17:16.1750,-0.94,0.06,0.48
2020-08-12 20:17:16.2730,-0.08,0.08,0.25
2020-08-12 20:17:16.3740,0.02,-0.07,0.01
2020-08-12 20:17:16.4730,0.05,-0.04,0.01
2020-08-12 20:17:16.5710,0.04,0.02,0.02
2020-08-12 20:17:16.6710,0.0,-0.0,0.0
2020-08-12 20:17:16.7700,0.0,0.01,-0.0
2020-08-12 20:17:16.8700,-0.03,-0.0,0.01
2020-08-12 20:17:16.9680,-0.05,-0.01,0.01
2020-08-12 20:17:17.0680,-0.11,-0.18,-0.04
2020-08-12 20:17:17.1670,-0.61,-0.67,-0.14
2020-08-12 20:17:17.2670,0.17,-0.45,0.19
2020-08-12 20:17:17.3650,-0.34,-0.11,0.08
2020-08-12 20:17:17.4660,-0.35,0.36,-0.2
2020-08-12 20:17:17.5640,-0.26,0.6,-0.17
2020-08-12 20:17:17.6630,0.17,0.31,-0.0
2020-08-12 20:17:17.7630,0.56,-0.18,0.16
2020-08-12 20:17:17.8620,0.56,-0.39,0.12
2020-08-12 20:17:17.9620,-0.76,-0.27,-0.43
2020-08-12 20:17:18.0610,0.18,0.08,0.0
2020-08-12 20:17:18.1590,0.09,-0.08,-0.06
2020-08-12 20:17:18.2590,-0.03,-0.01,0.03
2020-08-12 20:17:18.3590,0.0,0.02,0.02
2020-08-12 20:17:18.4570,-0.01,0.01,0.04
2020-08-12 20:17:18.5560,0.01,0.02,0.0
2020-08-12 20:17:18.6550,-0.01,-0.0,0.01
2020-08-12 20:17:18.7560,-0.01,-0.03,-0.01
2020-08-12 20:17:18.8540,-0.12,-0.15,0.02
2020-08-12 20:17:18.9540,-0.45,-0.57,-0.1
2020-08-12 20:17:19.0530,0.13,-0.6,0.36
2020-08-12 20:17:19.1520,-0.42,-0.07,0.07
2020-08-12 20:17:19.2520,-0.02,0.13,-0.09
2020-08-12 20:17:19.3500,-0.12,0.45,-0.13
2020-08-12 20:17:19.4500,-0.03,0.58,-0.17
2020-08-12 20:17:19.5500,0.1,0.37,-0.15
2020-08-12 20:17:19.6490,0.36,-0.24,0.21
2020-08-12 20:17:19.7480,0.55,-0.42,0.24
2020-08-12 20:17:19.8480,-1.05,0.07,0.26
2020-08-12 20:17:19.9460,0.32,-0.02,0.09
2020-08-12 20:17:20.0450,0.16,-0.08,-0.05
2020-08-12 20:17:20.1450,0.06,-0.01,0.03
2020-08-12 20:17:20.2450,0.03,0.0,0.05
2020-08-12 20:17:20.3440,0.04,-0.01,0.0
2020-08-12 20:17:20.4420,-0.02,0.01,0.02
2020-08-12 20:17:20.5420,0.04,-0.01,-0.01
2020-08-12 20:17:20.6410,-0.03,-0.0,-0.01
2020-08-12 20:17:20.7400,-0.04,-0.14,-0.01
2020-08-12 20:17:20.8400,-0.45,-0.49,-0.08
2020-08-12 20:17:20.9380,0.02,-0.68,0.34
2020-08-12 20:17:21.0390,-0.28,-0.41,0.11
2020-08-12 20:17:21.1370,-0.3,0.19,-0.15
2020-08-12 20:17:21.2360,-0.55,0.79,-0.46
2020-08-12 20:17:21.3360,-0.12,0.7,-0.32
2020-08-12 20:17:21.4350,0.34,-0.18,0.1
2020-08-12 20:17:21.5350,0.67,-0.66,0.3
2020-08-12 20:17:21.6340,0.15,-0.56,-0.58
2020-08-12 20:17:21.7320,0.33,-0.2,0.12
2020-08-12 20:17:21.8320,-0.02,0.01,0.05
2020-08-12 20:17:21.9320,-0.09,-0.0,0.09
2020-08-12 20:17:22.0310,0.0,0.02,0.03
2020-08-12 20:17:22.1300,0.03,0.01,0.01
2020-08-12 20:17:22.2290,0.01,0.02,-0.01
2020-08-12 20:17:22.3290,-0.01,-0.01,0.0
2020-08-12 20:17:22.4270,-0.01,-0.05,-0.02
2020-08-12 20:17:22.5260,-0.07,-0.14,0.02
2020-08-12 20:17:22.6260,-0.39,-0.4,-0.09
2020-08-12 20:17:22.7250,-0.21,-0.58,0.3
2020-08-12 20:17:22.8250,-0.49,-0.16,0.14
2020-08-12 20:17:22.9230,-0.24,0.25,-0.18
2020-08-12 20:17:23.0240,-0.26,0.58,-0.2
2020-08-12 20:17:23.1220,0.13,0.46,-0.18
2020-08-12 20:17:23.2210,0.35,-0.13,0.02
2020-08-12 20:17:23.3200,0.49,-0.35,0.24
2020-08-12 20:17:23.4210,0.23,-0.63,-0.11
2020-08-12 20:17:23.5190,0.45,-0.09,-0.01
2020-08-12 20:17:23.6190,0.0,-0.04,-0.03
2020-08-12 20:17:23.7170,-0.01,-0.01,0.05
2020-08-12 20:17:23.8180,0.01,0.01,0.01
2020-08-12 20:17:23.9160,0.01,0.01,0.02
2020-08-12 20:17:24.0160,0.05,-0.01,-0.01
2020-08-12 20:17:24.1150,0.02,-0.01,-0.01
2020-08-12 20:17:24.2150,-0.01,0.0,0.02
2020-08-12 20:17:24.3140,-0.06,-0.05,0.01
2020-08-12 20:17:24.4130,-0.28,-0.56,-0.2
2020-08-12 20:17:24.5120,-0.4,-0.24,0.28
2020-08-12 20:17:24.6120,-0.56,-0.3,0.18
2020-08-12 20:17:24.7110,-0.19,0.12,-0.04
2020-08-12 20:17:24.8100,-0.18,0.49,-0.21
2020-08-12 20:17:24.9080,-0.04,0.57,-0.19
2020-08-12 20:17:25.0090,0.39,0.02,0.08
2020-08-12 20:17:25.1070,0.47,-0.4,0.22
2020-08-12 20:17:25.2060,0.37,-0.5,-0.54
2020-08-12 20:17:25.3060,0.42,-0.24,0.29
2020-08-12 20:17:25.4050,-0.02,-0.02,0.06
2020-08-12 20:17:25.5050,-0.02,-0.03,0.09
2020-08-12 20:17:25.6040,0.01,0.0,-0.0
2020-08-12 20:17:25.7030,0.04,0.0,0.02
2020-08-12 20:17:25.8020,0.02,0.0,0.0
2020-08-12 20:17:25.9010,0.01,0.01,0.01
2020-08-12 20:17:26.0000,0.01,-0.01,-0.02
2020-08-12 20:17:26.1000,-0.05,-0.05,0.04
2020-08-12 20:17:26.2000,-0.15,-0.34,-0.11
2020-08-12 20:17:26.2990,-0.75,-0.41,0.11
2020-08-12 20:17:26.3980,0.12,-0.33,-0.15
2020-08-12 20:17:26.4970,-0.13,0.0,-0.01
2020-08-12 20:17:26.5970,-0.25,0.5,-0.19
2020-08-12 20:17:26.6960,-0.31,0.73,-0.31
2020-08-12 20:17:26.7950,0.17,0.43,-0.14
2020-08-12 20:17:26.8940,0.38,-0.14,0.12
2020-08-12 20:17:26.9940,0.64,-0.48,0.22
2020-08-12 20:17:27.0920,-1.07,0.02,0.13
2020-08-12 20:17:27.1910,-0.02,0.05,0.17
2020-08-12 20:17:27.2910,-0.09,0.01,0.02
2020-08-12 20:17:27.3900,0.05,-0.05,0.01
2020-08-12 20:17:27.4900,0.01,0.01,0.02
2020-08-12 20:17:27.5880,0.04,-0.0,-0.0
2020-08-12 20:17:27.6880,0.05,0.0,-0.01
2020-08-12 20:17:27.7880,0.02,-0.01,0.0
2020-08-12 20:17:27.8870,0.01,0.01,-0.02
2020-08-12 20:17:27.9860,-0.05,-0.13,-0.01
2020-08-12 20:17:28.0850,-0.44,-0.5,-0.16
2020-08-12 20:17:28.1850,0.1,-0.48,0.22
2020-08-12 20:17:28.2840,-0.47,-0.12,0.08
2020-08-12 20:17:28.3830,-0.19,0.16,-0.12
2020-08-12 20:17:28.4820,-0.1,0.31,-0.14
2020-08-12 20:17:28.5820,0.15,0.43,-0.09
2020-08-12 20:17:28.6810,0.27,0.43,-0.05
2020-08-12 20:17:28.7800,0.35,-0.14,0.18
2020-08-12 20:17:28.8790,0.67,-0.38,0.16
2020-08-12 20:17:28.9790,0.14,-0.2,-0.04
2020-08-12 20:17:29.0790,0.12,-0.01,-0.06
2020-08-12 20:17:29.1770,0.01,0.02,0.02
2020-08-12 20:17:29.2760,0.04,-0.02,0.0
2020-08-12 20:17:29.3760,0.05,-0.01,0.02
2020-08-12 20:17:29.4750,0.03,-0.01,0.01
2020-08-12 20:17:29.5740,0.01,-0.01,0.02
2020-08-12 20:17:29.6740,0.01,-0.01,0.02
2020-08-12 20:17:29.7730,-0.06,-0.02,0.06
2020-08-12 20:17:29.8720,-0.16,-0.27,-0.05
2020-08-12 20:17:29.9710,-0.9,-0.77,0.02
2020-08-12 20:17:30.0700,0.72,-0.35,-0.44
2020-08-12 20:17:30.1690,-0.2,0.17,-0.18
2020-08-12 20:17:30.2690,-0.29,0.51,-0.32
2020-08-12 20:17:30.3680,-0.13,0.46,-0.16
2020-08-12 20:17:30.4680,0.13,0.25,-0.06
2020-08-12 20:17:30.5670,0.21,-0.03,0.06
2020-08-12 20:17:30.6660,0.41,-0.35,0.16
2020-08-12 20:17:30.7650,0.83,-0.2,0.21
2020-08-12 20:17:30.8640,0.16,-0.18,0.14
2020-08-12 20:17:30.9630,-0.01,0.05,0.13
2020-08-12 20:17:31.0630,-0.02,-0.01,0.05
2020-08-12 20:17:31.1620,0.02,0.0,0.04
2020-08-12 20:17:31.2620,0.02,-0.0,0.01
2020-08-12 20:17:31.3600,0.03,0.01,0.0
2020-08-12 20:17:31.4600,-0.05,0.06,0.06
2020-08-12 20:17:31.5590,-0.0,-0.02,-0.02
2020-08-12 20:17:31.6580,0.02,-0.1,-0.08
2020-08-12 20:17:31.7580,-0.43,-0.55,0.0
2020-08-12 20:17:31.8570,0.07,-0.69,0.31
2020-08-12 20:17:31.9560,-0.48,-0.03,-0.01
2020-08-12 20:17:32.0550,-0.49,0.4,-0.17
2020-08-12 20:17:32.1550,-0.15,0.46,-0.05
2020-08-12 20:17:32.2530,0.18,0.25,0.09
2020-08-12 20:17:32.3530,0.15,0.01,0.06
2020-08-12 20:17:32.4530,0.34,-0.19,0.13
2020-08-12 20:17:32.5520,0.58,-0.24,0.17
2020-08-12 20:17:32.6500,-0.76,0.0,0.03
2020-08-12 20:17:32.7500,-0.02,-0.02,0.3
2020-08-12 20:17:32.8490,-0.01,-0.01,0.05
2020-08-12 20:17:32.9490,0.03,0.0,0.02
2020-08-12 20:17:33.0480,0.05,-0.02,0.0
2020-08-12 20:17:33.1470,0.04,0.0,0.03
2020-08-12 20:17:33.2470,0.03,0.02,0.02
2020-08-12 20:17:33.3460,0.02,0.02,0.02
2020-08-12 20:17:33.4440,-0.0,-0.04,-0.02
2020-08-12 20:17:33.5440,-0.07,-0.09,0.01
2020-08-12 20:17:33.6430,-0.51,-0.61,0.02
2020-08-12 20:17:33.7430,0.37,-0.64,0.35
2020-08-12 20:17:33.8420,-0.65,0.11,0.11
2020-08-12 20:17:33.9410,-0.16,0.26,-0.12
2020-08-12 20:17:34.0410,-0.39,0.56,-0.28
2020-08-12 20:17:34.1400,-0.13,0.4,-0.16
2020-08-12 20:17:34.2390,0.15,-0.14,0.07
2020-08-12 20:17:34.3380,0.33,-0.49,0.14
2020-08-12 20:17:34.4380,0.76,-0.18,0.34
2020-08-12 20:17:34.5370,-0.57,-0.12,0.58
2020-08-12 20:17:34.6360,0.04,0.03,0.04
2020-08-12 20:17:34.7350,0.07,-0.03,0.03
2020-08-12 20:17:34.8350,0.01,0.01,0.03
2020-08-12 20:17:34.9340,0.02,0.01,0.04
2020-08-12 20:17:35.0330,0.04,-0.0,0.01
2020-08-12 20:17:35.1320,0.02,0.01,0.02
2020-08-12 20:17:35.2320,0.01,0.0,0.0
2020-08-12 20:17:35.3300,0.01,-0.02,-0.01
2020-08-12 20:17:35.4290,-0.05,-0.13,-0.01
2020-08-12 20:17:35.5290,-0.37,-0.43,-0.07
2020-08-12 20:17:35.6290,0.08,-0.6,0.32
2020-08-12 20:17:35.7280,-0.51,-0.06,0.07
2020-08-12 20:17:35.8270,-0.32,0.25,-0.27
2020-08-12 20:17:35.9260,-0.19,0.29,-0.16
2020-08-12 20:17:36.0260,0.02,0.37,-0.15
2020-08-12 20:17:36.1250,0.21,0.01,0.06
2020-08-12 20:17:36.2240,0.43,-0.35,0.3
2020-08-12 20:17:36.3230,0.9,-0.14,0.28
2020-08-12 20:17:36.4230,0.09,-0.23,-0.13
2020-08-12 20:17:36.5220,0.22,-0.06,-0.16
2020-08-12 20:17:36.6200,0.09,-0.01,-0.02
2020-08-12 20:17:36.7210,0.1,-0.02,-0.06
2020-08-12 20:17:36.8200,-0.01,0.01,0.06
2020-08-12 20:17:36.9190,0.03,0.01,0.02
2020-08-12 20:17:37.0170,-0.04,0.06,0.06
2020-08-12 20:17:37.1180,-0.06,0.01,0.05
2020-08-12 20:17:37.2170,-0.04,-0.03,0.02
2020-08-12 20:17:37.3150,-0.12,-0.15,-0.01
2020-08-12 20:17:37.4150,-0.58,-0.68,0.01
2020-08-12 20:17:37.5150,0.35,-0.4,0.2
2020-08-12 20:17:37.6130,-0.33,0.01,0.02
2020-08-12 20:17:37.7130,-0.44,0.4,-0.2
2020-08-12 20:17:37.8130,-0.36,0.41,-0.23
2020-08-12 20:17:37.9120,-0.12,0.34,-0.09
2020-08-12 20:17:38.0110,0.22,-0.09,0.11
2020-08-12 20:17:38.1100,0.34,-0.37,0.18
2020-08-12 20:17:38.2090,0.75,-0.17,0.26
2020-08-12 20:17:38.3080,-0.68,0.11,0.37
2020-08-12 20:17:38.4080,0.96,0.02,-0.15
2020-08-12 20:17:38.5060,0.39,-0.09,-0.07
2020-08-12 20:17:38.6060,0.06,0.01,-0.01
2020-08-12 20:17:38.7060,0.03,-0.01,0.04
2020-08-12 20:17:38.8050,0.02,0.0,0.03
2020-08-12 20:17:38.9040,0.0,0.01,0.03
2020-08-12 20:17:39.0030,0.01,0.02,-0.01
2020-08-12 20:17:39.1030,-0.03,-0.01,0.0
2020-08-12 20:17:39.2020,-0.05,-0.09,0.0
2020-08-12 20:17:39.3010,-0.39,-0.38,0.02
2020-08-12 20:17:39.4000,-0.29,-0.53,0.2
2020-08-12 20:17:39.5000,-0.12,-0.34,0.05
2020-08-12 20:17:39.5990,-0.25,0.09,-0.1
2020-08-12 20:17:39.6980,-0.56,0.55,-0.32
2020-08-12 20:17:39.7970,-0.31,0.55,-0.28
2020-08-12 20:17:39.8960,0.41,-0.19,0.03
2020-08-12 20:17:39.9960,0.56,-0.66,0.3
2020-08-12 20:17:40.0940,0.82,-0.09,0.23
2020-08-12 20:17:40.1940,-0.05,-0.09,0.17
2020-08-12 20:17:40.2940,0.08,0.01,0.08
2020-08-12 20:17:40.3930,-0.03,0.04,0.05
2020-08-12 20:17:40.4910,0.07,-0.02,-0.01
2020-08-12 20:17:40.5910,0.09,-0.04,0.01
2020-08-12 20:17:40.6910,0.06,-0.01,0.0
2020-08-12 20:17:40.7900,0.01,0.01,0.03
2020-08-12 20:17:40.8890,0.03,-0.01,-0.0
2020-08-12 20:17:40.9870,0.0,-0.02,0.02
2020-08-12 20:17:41.0880,-0.12,-0.23,-0.04
2020-08-12 20:17:41.1870,-0.82,-0.58,-0.0
2020-08-12 20:17:41.2860,0.52,-0.54,-0.05
2020-08-12 20:17:41.3850,-0.35,0.09,0.0
2020-08-12 20:17:41.4850,-0.52,0.54,-0.23
2020-08-12 20:17:41.5840,-0.28,0.59,-0.23
2020-08-12 20:17:41.6830,0.16,0.17,-0.03
2020-08-12 20:17:41.7820,0.4,-0.24,0.17
2020-08-12 20:17:41.8820,0.57,-0.49,0.29
2020-08-12 20:17:41.9800,-0.41,-0.31,-0.62
2020-08-12 20:17:42.0800,0.47,-0.03,0.19
2020-08-12 20:17:42.1790,-0.07,-0.02,0.06
2020-08-12 20:17:42.2790,0.01,-0.02,0.01
2020-08-12 20:17:42.3780,0.03,0.01,0.02
2020-08-12 20:17:42.4760,0.01,0.01,0.02
2020-08-12 20:17:42.5760,0.01,0.03,0.04
2020-08-12 20:17:42.6760,-0.01,0.04,0.04
2020-08-12 20:17:42.7750,-0.13,0.06,0.11
2020-08-12 20:17:42.8740,-0.17,0.0,0.11
2020-08-12 20:17:42.9730,-0.16,-0.19,-0.02
2020-08-12 20:17:43.0720,-0.65,-0.42,0.0
2020-08-12 20:17:43.1720,0.18,-0.4,-0.02
2020-08-12 20:17:43.2710,-0.37,0.08,-0.01
2020-08-12 20:17:43.3700,-0.05,0.27,-0.08
2020-08-12 20:17:43.4700,-0.2,0.68,-0.22
2020-08-12 20:17:43.5680,-0.0,0.64,-0.19
2020-08-12 20:17:43.6680,0.42,-0.11,0.02
2020-08-12 20:17:43.7670,0.7,-0.46,0.08
2020-08-12 20:17:43.8660,0.07,-0.71,-0.5
2020-08-12 20:17:43.9660,0.53,-0.28,-0.03
2020-08-12 20:17:44.0640,-0.06,0.05,0.01
2020-08-12 20:17:44.1640,-0.05,0.0,0.07
2020-08-12 20:17:44.2640,0.02,0.0,0.01
2020-08-12 20:17:44.3630,0.06,-0.01,0.02
2020-08-12 20:17:44.4610,0.03,-0.01,0.01
2020-08-12 20:17:44.5610,0.03,-0.0,-0.0
2020-08-12 20:17:44.6610,-0.01,0.02,0.01
2020-08-12 20:17:44.7600,-0.04,-0.04,0.02
2020-08-12 20:17:44.8590,-0.21,-0.39,-0.09
2020-08-12 20:17:44.9590,-0.85,-0.35,0.1
2020-08-12 20:17:45.0570,0.17,-0.13,-0.15
2020-08-12 20:17:45.1570,-0.3,0.21,-0.02
2020-08-12 20:17:45.2570,0.04,0.18,-0.18
2020-08-12 20:17:45.3550,0.12,0.33,-0.13
2020-08-12 20:17:45.4540,0.23,0.37,-0.1
2020-08-12 20:17:45.5540,0.4,0.07,-0.02
2020-08-12 20:17:45.6530,0.61,-0.47,0.33
2020-08-12 20:17:45.7520,-0.9,-0.04,-0.51
2020-08-12 20:17:45.8520,0.61,-0.16,0.19
2020-08-12 20:17:45.9510,0.03,-0.06,-0.03
2020-08-12 20:17:46.0500,-0.06,0.02,0.05
2020-08-12 20:17:46.1490,0.02,0.01,0.02
2020-08-12 20:17:46.2480,0.05,-0.0,0.02
2020-08-12 20:17:46.3480,0.06,-0.0,-0.0
2020-08-12 20:17:46.4470,-0.01,0.02,0.01
2020-08-12 20:17:46.5460,-0.01,-0.02,-0.0
2020-08-12 20:17:46.6450,-0.02,-0.12,0.01
2020-08-12 20:17:46.7450,-0.36,-0.6,-0.05
2020-08-12 20:17:46.8440,-0.09,-0.75,0.22
2020-08-12 20:17:46.9440,-0.38,-0.22,0.18
2020-08-12 20:17:47.0430,-0.38,0.38,-0.25
2020-08-12 20:17:47.1420,-0.21,0.55,-0.21
2020-08-12 20:17:47.2400,0.09,0.34,-0.07
2020-08-12 20:17:47.3400,0.3,-0.05,0.02
2020-08-12 20:17:47.4400,0.35,-0.12,0.07
2020-08-12 20:17:47.5390,0.46,-0.31,0.23
2020-08-12 20:17:47.6380,-0.75,-0.08,0.83
2020-08-12 20:17:47.7370,0.05,-0.03,0.14
2020-08-12 20:17:47.8360,0.09,-0.03,0.02
2020-08-12 20:17:47.9350,0.08,-0.01,-0.02
2020-08-12 20:17:48.0350,0.02,0.02,0.05
2020-08-12 20:17:48.1350,0.04,0.01,0.01
2020-08-12 20:17:48.2330,-0.01,0.02,0.02
2020-08-12 20:17:48.3320,-0.02,-0.01,0.02
2020-08-12 20:17:48.4330,-0.02,-0.04,0.01
2020-08-12 20:17:48.5320,-0.17,-0.28,-0.03
2020-08-12 20:17:48.6310,-0.79,-0.57,-0.05
2020-08-12 20:17:48.7300,0.31,-0.13,-0.14
2020-08-12 20:17:48.8280,-0.34,0.08,-0.04
2020-08-12 20:17:48.9280,-0.26,0.43,-0.17
2020-08-12 20:17:49.0280,-0.08,0.54,-0.17
2020-08-12 20:17:49.1270,0.23,0.24,-0.07
2020-08-12 20:17:49.2250,0.51,-0.11,0.07
2020-08-12 20:17:49.3260,0.71,-0.32,0.25
2020-08-12 20:17:49.4250,-0.94,0.06,-0.03
2020-08-12 20:17:49.5240,0.3,-0.06,0.09
2020-08-12 20:17:49.6230,0.14,-0.09,-0.09
2020-08-12 20:17:49.7230,0.04,-0.02,0.03
2020-08-12 20:17:49.8220,0.04,0.01,0.02
2020-08-12 20:17:49.9200,0.01,0.0,0.02
2020-08-12 20:17:50.0210,0.01,0.01,-0.0
2020-08-12 20:17:50.1190,0.02,0.0,-0.01
2020-08-12 20:17:50.2190,-0.06,-0.03,-0.01
2020-08-12 20:17:50.3180,-0.17,-0.27,-0.04
2020-08-12 20:17:50.4170,-0.81,-0.37,-0.04
2020-08-12 20:17:50.5170,0.18,-0.15,-0.26
2020-08-12 20:17:50.6160,-0.31,0.03,0.02
2020-08-12 20:17:50.7150,-0.27,0.45,-0.22
2020-08-12 20:17:50.8140,-0.33,0.64,-0.22
2020-08-12 20:17:50.9140,0.29,0.21,-0.12
2020-08-12 20:17:51.0120,0.66,-0.52,0.19
2020-08-12 20:17:51.1120,0.94,-0.26,0.25
2020-08-12 20:17:51.2120,-0.86,-0.28,0.06
2020-08-12 20:17:51.3110,0.09,-0.06,0.11
2020-08-12 20:17:51.4100,0.11,-0.05,-0.01
2020-08-12 20:17:51.5090,-0.0,-0.02,0.04
2020-08-12 20:17:51.6080,0.02,0.01,0.0
2020-08-12 20:17:51.7080,0.02,0.02,0.03
2020-08-12 20:17:51.8070,0.03,0.0,0.03
2020-08-12 20:17:51.9050,0.0,-0.0,0.0
2020-08-12 20:17:52.0050,-0.01,0.01,0.01
2020-08-12 20:17:52.1040,-0.06,-0.1,-0.05
2020-08-12 20:17:52.2030,-0.46,-0.53,-0.1
2020-08-12 20:17:52.3020,0.03,-0.81,0.36
2020-08-12 20:17:52.4020,-0.4,-0.25,0.22
2020-08-12 20:17:52.5010,-0.41,0.35,-0.18
2020-08-12 20:17:52.6010,-0.43,0.63,-0.28
2020-08-12 20:17:52.7000,0.09,0.32,-0.13
2020-08-12 20:17:52.7990,0.37,-0.11,0.08
2020-08-12 20:17:52.8980,0.73,-0.39,0.32
2020-08-12 20:17:52.9970,-0.33,-0.64,-0.87
2020-08-12 20:17:53.0970,0.56,-0.02,-0.07
2020-08-12 20:17:53.1960,0.19,-0.07,-0.04
2020-08-12 20:17:53.2950,0.05,-0.01,-0.0
2020-08-12 20:17:53.3940,0.09,0.0,-0.02
2020-08-12 20:17:53.4930,0.05,-0.02,0.05
2020-08-12 20:17:53.5930,0.06,-0.0,0.03
2020-08-12 20:17:53.6920,-0.02,0.0,0.01
2020-08-12 20:17:53.7910,-0.02,-0.0,0.01
2020-08-12 20:17:53.8900,-0.07,-0.08,-0.02
2020-08-12 20:17:53.9900,-0.35,-0.57,-0.1
2020-08-12 20:17:54.0900,0.08,-0.65,0.27
2020-08-12 20:17:54.1880,-0.41,-0.17,0.15
2020-08-12 20:17:54.2880,-0.42,0.23,-0.13
2020-08-12 20:17:54.3880,-0.39,0.49,-0.25
2020-08-12 20:17:54.4870,-0.19,0.47,-0.26
2020-08-12 20:17:54.5860,0.44,0.02,0.11
2020-08-12 20:17:54.6840,0.47,-0.29,0.21
2020-08-12 20:17:54.7840,0.87,-0.22,0.23
2020-08-12 20:17:54.8830,-0.93,-0.23,0.07
2020-08-12 20:17:54.9830,0.03,0.07,-0.04
2020-08-12 20:17:55.0810,0.1,-0.03,0.02
2020-08-12 20:17:55.1810,0.03,-0.03,0.01
2020-08-12 20:17:55.2800,0.06,0.02,0.03
2020-08-12 20:17:55.3800,-0.02,0.03,0.06
2020-08-12 20:17:55.4780,-0.0,0.01,0.03
2020-08-12 20:17:55.5780,0.01,-0.01,0.01
2020-08-12 20:17:55.6770,-0.02,-0.01,0.02
2020-08-12 20:17:55.7770,-0.12,-0.13,-0.03
2020-08-12 20:17:55.8760,-0.56,-0.67,-0.1
2020-08-12 20:17:55.9750,-0.03,-0.36,0.17
2020-08-12 20:17:56.0740,-0.03,-0.59,0.17
2020-08-12 20:17:56.1730,-0.26,0.19,-0.15
2020-08-12 20:17:56.2730,-0.39,0.74,-0.3
2020-08-12 20:17:56.3720,0.05,0.67,-0.07
2020-08-12 20:17:56.4720,0.55,-0.37,0.23
2020-08-12 20:17:56.5700,0.54,-0.43,0.15
2020-08-12 20:17:56.6700,0.66,-0.34,0.0
2020-08-12 20:17:56.7690,0.23,-0.18,0.35
2020-08-12 20:17:56.8680,-0.2,0.05,0.11
2020-08-12 20:17:56.9680,-0.04,-0.0,0.06
2020-08-12 20:17:57.0670,-0.01,0.02,0.03
2020-08-12 20:17:57.1670,0.03,-0.02,0.01
2020-08-12 20:17:57.2660,0.01,-0.01,0.0
2020-08-12 20:17:57.3650,0.0,0.01,0.01
2020-08-12 20:17:57.4640,-0.0,-0.0,-0.0
2020-08-12 20:17:57.5640,-0.0,-0.02,0.02
2020-08-12 20:17:57.6620,-0.07,-0.14,-0.03
2020-08-12 20:17:57.7620,-0.51,-0.54,-0.07
2020-08-12 20:17:57.8610,0.01,-0.49,0.24
2020-08-12 20:17:57.9600,-0.29,-0.32,0.13
2020-08-12 20:17:58.0590,-0.2,0.19,-0.16
2020-08-12 20:17:58.1580,-0.34,0.58,-0.24
2020-08-12 20:17:58.2580,0.01,0.56,-0.1
2020-08-12 20:17:58.3570,0.52,-0.2,0.21
2020-08-12 20:17:58.4570,0.55,-0.24,0.18
2020-08-12 20:17:58.5550,0.69,-0.21,0.27
2020-08-12 20:17:58.6550,0.33,-0.19,0.2
2020-08-12 20:17:58.7550,-0.16,0.09,0.01
2020-08-12 20:17:58.8540,-0.07,0.04,0.08
2020-08-12 20:17:58.9520,0.04,0.01,0.02
2020-08-12 20:17:59.0520,0.05,-0.01,0.0
2020-08-12 20:17:59.1510,0.02,0.01,0.02
2020-08-12 20:17:59.2510,0.06,-0.01,-0.0
2020-08-12 20:17:59.3500,-0.0,-0.01,-0.03
2020-08-12 20:17:59.4490,0.01,-0.04,0.0
2020-08-12 20:17:59.5490,-0.1,-0.12,-0.01
2020-08-12 20:17:59.6480,-0.46,-0.6,-0.14
2020-08-12 20:17:59.7470,0.1,-0.63,0.23
2020-08-12 20:17:59.8470,-0.47,-0.21,0.14
2020-08-12 20:17:59.9450,-0.32,0.31,-0.16
2020-08-12 20:18:00.0450,-0.45,0.72,-0.27
2020-08-12 20:18:00.1430,-0.05,0.47,-0.19
2020-08-12 20:18:00.2430,0.4,-0.29,0.25
2020-08-12 20:18:00.3430,0.51,-0.46,0.26
2020-08-12 20:18:00.4420,0.75,-0.01,0.21
2020-08-12 20:18:00.5410,-0.12,-0.28,0.39
2020-08-12 20:18:00.6400,-0.14,0.08,0.22
2020-08-12 20:18:00.7390,-0.04,0.0,0.06
2020-08-12 20:18:00.8380,0.03,0.02,0.05
2020-08-12 20:18:00.9370,-0.04,0.07,0.09
2020-08-12 20:18:01.0370,-0.02,-0.01,0.01
2020-08-12 20:18:01.1360,0.01,0.01,0.02
2020-08-12 20:18:01.2360,0.03,0.0,0.01
2020-08-12 20:18:01.3340,-0.0,-0.01,0.01
2020-08-12 20:18:01.4340,-0.02,-0.12,-0.03
2020-08-12 20:18:01.5340,-0.31,-0.31,-0.04
2020-08-12 20:18:01.6320,-0.13,-0.55,0.32
2020-08-12 20:18:01.7320,-0.46,-0.18,0.01
2020-08-12 20:18:01.8310,-0.24,0.1,-0.14
2020-08-12 20:18:01.9310,-0.19,0.32,-0.24
2020-08-12 20:18:02.0290,-0.12,0.54,-0.24
2020-08-12 20:18:02.1280,0.36,-0.05,0.05
2020-08-12 20:18:02.2280,0.54,-0.39,0.37
2020-08-12 20:18:02.3280,0.83,-0.11,0.36
2020-08-12 20:18:02.4260,-0.73,-0.33,-0.02
2020-08-12 20:18:02.5260,0.29,0.01,0.1
2020-08-12 20:18:02.6260,0.1,-0.07,0.01
2020-08-12 20:18:02.7240,0.08,-0.02,0.04
2020-08-12 20:18:02.8240,0.02,-0.01,0.06
2020-08-12 20:18:02.9220,0.03,0.0,0.03
2020-08-12 20:18:03.0220,0.08,-0.01,0.02
2020-08-12 20:18:03.1220,0.01,-0.01,0.02
2020-08-12 20:18:03.2210,0.02,-0.03,-0.03
2020-08-12 20:18:03.3200,-0.05,-0.09,0.03
2020-08-12 20:18:03.4200,-0.25,-0.4,-0.14
2020-08-12 20:18:03.5180,-0.34,-0.53,0.24
2020-08-12 20:18:03.6180,-0.5,-0.14,0.15
2020-08-12 20:18:03.7170,-0.27,0.21,-0.08
2020-08-12 20:18:03.8170,-0.29,0.5,-0.26
2020-08-12 20:18:03.9160,-0.04,0.42,-0.18
2020-08-12 20:18:04.0140,0.25,0.11,-0.02
2020-08-12 20:18:04.1140,0.35,-0.16,0.22
2020-08-12 20:18:04.2130,0.63,-0.33,0.19
2020-08-12 20:18:04.3120,-0.54,-0.25,0.13
2020-08-12 20:18:04.4120,0.32,-0.07,0.09
2020-08-12 20:18:04.5110,0.26,-0.08,-0.08
2020-08-12 20:18:04.6100,0.07,-0.01,0.01
2020-08-12 20:18:04.7090,0.02,-0.01,0.04
2020-08-12 20:18:04.8090,0.03,-0.0,0.02
2020-08-12 20:18:04.9080,0.02,0.0,0.03
2020-08-12 20:18:05.0070,0.0,-0.01,0.02
2020-08-12 20:18:05.1060,-0.01,0.01,0.01
2020-08-12 20:18:05.2060,0.01,-0.04,0.0
2020-08-12 20:18:05.3060,-0.09,-0.3,-0.07
2020-08-12 20:18:05.4050,-0.49,-0.3,-0.12
2020-08-12 20:18:05.5040,0.12,-0.41,0.12
2020-08-12 20:18:05.6040,-0.31,-0.26,0.21
2020-08-12 20:18:05.7020,-0.26,0.25,-0.15
2020-08-12 20:18:05.8020,-0.52,0.73,-0.38
2020-08-12 20:18:05.9010,-0.18,0.63,-0.33
2020-08-12 20:18:06.0000,0.32,-0.23,0.01
2020-08-12 20:18:06.1000,0.57,-0.63,0.35
2020-08-12 20:18:06.1990,0.72,-0.31,0.14
2020-08-12 20:18:06.2970,0.21,-0.03,0.13
2020-08-12 20:18:06.3970,-0.06,-0.04,0.04
2020-08-12 20:18:06.4970,0.03,-0.01,0.04
2020-08-12 20:18:06.5950,0.02,0.01,0.01
2020-08-12 20:18:06.6950,0.15,-0.08,-0.04
2020-08-12 20:18:06.7940,0.08,-0.01,-0.03
2020-08-12 20:18:06.8940,0.02,0.0,0.03
2020-08-12 20:18:06.9930,0.05,-0.0,0.01
2020-08-12 20:18:07.0910,-0.01,0.02,-0.0
2020-08-12 20:18:07.1900,-0.02,-0.04,0.02
2020-08-12 20:18:07.2910,-0.17,-0.25,-0.09
2020-08-12 20:18:07.3890,-0.78,-0.58,-0.14
2020-08-12 20:18:07.4890,0.09,-0.36,-0.11
2020-08-12 20:18:07.5880,-0.05,-0.03,0.01
2020-08-12 20:18:07.6880,-0.22,0.43,-0.17
2020-08-12 20:18:07.7860,-0.46,0.67,-0.31
2020-08-12 20:18:07.8860,-0.31,0.54,-0.24
2020-08-12 20:18:07.9860,0.28,-0.2,0.06
2020-08-12 20:18:08.0850,0.25,-0.49,0.33
2020-08-12 20:18:08.1840,0.12,-1.13,-0.67
2020-08-12 20:18:08.2830,0.03,0.17,-0.09
2020-08-12 20:18:08.3810,0.04,-0.08,-0.06
2020-08-12 20:18:08.4820,0.01,-0.02,0.04
2020-08-12 20:18:08.5810,-0.01,0.02,0.03
2020-08-12 20:18:08.6800,0.03,-0.01,0.02
2020-08-12 20:18:08.7790,0.03,-0.01,0.01
2020-08-12 20:18:08.8790,0.02,-0.01,-0.0
2020-08-12 20:18:08.9780,0.01,-0.01,0.03
2020-08-12 20:18:09.0770,-0.04,-0.02,0.02
2020-08-12 20:18:09.1760,-0.15,-0.37,-0.12
2020-08-12 20:18:09.2760,-0.73,-0.43,-0.09
2020-08-12 20:18:09.3750,0.03,-0.33,-0.1
2020-08-12 20:18:09.4730,-0.4,0.01,0.07
2020-08-12 20:18:09.5730,-0.48,0.62,-0.37
2020-08-12 20:18:09.6730,-0.24,0.68,-0.23
2020-08-12 20:18:09.7720,0.08,0.02,-0.05
2020-08-12 20:18:09.8710,0.36,-0.53,0.34
2020-08-12 20:18:09.9700,0.78,-0.32,0.28
2020-08-12 20:18:10.0700,-0.64,0.02,0.26
2020-08-12 20:18:10.1680,0.38,-0.07,0.16
2020-08-12 20:18:10.2680,0.19,-0.1,-0.04
2020-08-12 20:18:10.3670,0.07,-0.01,0.01
2020-08-12 20:18:10.4660,0.02,-0.01,0.02
2020-08-12 20:18:10.5650,0.04,0.0,0.0
2020-08-12 20:18:10.6640,0.01,0.01,0.04
2020-08-12 20:18:10.7640,0.01,0.01,-0.01
2020-08-12 20:18:10.8640,-0.02,-0.01,0.0
2020-08-12 20:18:10.9620,-0.02,-0.06,0.01
2020-08-12 20:18:11.0620,-0.18,-0.34,-0.08
2020-08-12 20:18:11.1610,-0.69,-0.53,0.05
2020-08-12 20:18:11.2610,0.25,-0.31,-0.29
2020-08-12 20:18:11.3600,-0.29,0.04,0.11
2020-08-12 20:18:11.4590,-0.21,0.4,-0.21
2020-08-12 20:18:11.5580,-0.4,0.63,-0.28
2020-08-12 20:18:11.6580,-0.04,0.3,-0.11
2020-08-12 20:18:11.7570,0.31,-0.44,0.31
2020-08-12 20:18:11.8560,1.02,-0.55,0.35
2020-08-12 20:18:11.9550,-0.64,0.11,-0.28
2020-08-12 20:18:12.0550,0.6,-0.15,-0.15
2020-08-12 20:18:12.1540,0.19,-0.09,-0.04
2020-08-12 20:18:12.2520,0.02,-0.01,0.07
2020-08-12 20:18:12.3520,0.03,-0.01,0.04
2020-08-12 20:18:12.4520,0.05,-0.02,0.0
2020-08-12 20:18:12.5510,0.04,-0.01,0.01
2020-08-12 20:18:12.6500,0.03,0.02,0.02
2020-08-12 20:18:12.7490,0.04,-0.03,-0.0
2020-08-12 20:18:12.8480,-0.03,-0.04,0.0
2020-08-12 20:18:12.9480,-0.16,-0.38,-0.07
2020-08-12 20:18:13.0470,-0.7,-0.59,0.25
2020-08-12 20:18:13.1470,0.3,-0.49,0.04
2020-08-12 20:18:13.2460,-0.4,0.19,-0.17
2020-08-12 20:18:13.3450,-0.55,0.53,-0.35
2020-08-12 20:18:13.4440,-0.32,0.53,-0.24
2020-08-12 20:18:13.5430,0.4,-0.43,0.19
2020-08-12 20:18:13.6430,0.65,-0.56,0.35
2020-08-12 20:18:13.7420,0.72,-0.24,0.06
2020-08-12 20:18:13.8410,0.15,-0.19,0.21
2020-08-12 20:18:13.9400,-0.03,-0.02,0.13
2020-08-12 20:18:14.0400,-0.0,0.01,0.04
2020-08-12 20:18:14.1390,0.03,0.01,0.01
2020-08-12 20:18:14.2380,0.07,-0.02,-0.01
2020-08-12 20:18:14.3370,0.05,0.01,0.02
2020-08-12 20:18:14.4370,0.03,0.02,0.03
2020-08-12 20:18:14.5360,0.15,-0.07,-0.07
2020-08-12 20:18:14.6350,0.05,-0.04,-0.02
2020-08-12 20:18:14.7350,-0.05,-0.15,-0.09
2020-08-12 20:18:14.8330,-0.36,-0.45,-0.16
2020-08-12 20:18:14.9330,-0.09,-0.57,0.15
2020-08-12 20:18:15.0320,-0.45,-0.31,0.05
2020-08-12 20:18:15.1320,-0.31,0.28,-0.15
2020-08-12 20:18:15.2310,-0.48,0.66,-0.26
2020-08-12 20:18:15.3300,-0.26,0.56,-0.16
2020-08-12 20:18:15.4280,0.37,-0.38,0.15
2020-08-12 20:18:15.5280,0.65,-0.6,0.35
2020-08-12 20:18:15.6270,0.63,-0.21,-0.14
2020-08-12 20:18:15.7270,0.11,-0.23,0.43
2020-08-12 20:18:15.8260,-0.15,-0.02,0.14
2020-08-12 20:18:15.9260,-0.03,0.02,0.03
2020-08-12 20:18:16.0250,0.03,-0.0,-0.0
2020-08-12 20:18:16.1240,0.04,-0.01,0.02
2020-08-12 20:18:16.2220,0.04,0.01,-0.01
2020-08-12 20:18:16.3230,0.02,-0.01,0.02
2020-08-12 20:18:16.4220,-0.03,-0.0,0.03
2020-08-12 20:18:16.5210,-0.08,-0.01,0.03
2020-08-12 20:18:16.6200,-0.17,-0.29,-0.07
2020-08-12 20:18:16.7200,-0.79,-0.53,0.09
2020-08-12 20:18:16.8190,0.34,-0.52,-0.32
2020-08-12 20:18:16.9180,-0.12,-0.05,0.01
2020-08-12 20:18:17.0170,-0.42,0.49,-0.29
2020-08-12 20:18:17.1170,-0.46,0.6,-0.24
2020-08-12 20:18:17.2160,-0.03,0.28,-0.07
2020-08-12 20:18:17.3150,0.25,-0.36,0.23
2020-08-12 20:18:17.4140,0.84,-0.42,0.2
2020-08-12 20:18:17.5140,-0.75,-0.15,-0.76
2020-08-12 20:18:17.6130,0.34,-0.07,-0.23
2020-08-12 20:18:17.7110,0.05,-0.04,-0.02
2020-08-12 20:18:17.8110,0.05,-0.05,0.04
2020-08-12 20:18:17.9110,0.0,0.02,0.03
2020-08-12 20:18:18.0090,0.02,0.02,0.02
2020-08-12 20:18:18.1090,0.04,0.0,0.01
2020-08-12 20:18:18.2080,0.03,0.0,0.0
2020-08-12 20:18:18.3080,0.02,-0.04,-0.02
2020-08-12 20:18:18.4070,-0.03,-0.1,0.03
2020-08-12 20:18:18.5060,-0.26,-0.28,-0.03
2020-08-12 20:18:18.6050,-0.54,-0.38,0.07
2020-08-12 20:18:18.7050,0.44,-0.51,-0.01
2020-08-12 20:18:18.8040,-0.46,0.15,-0.05
2020-08-12 20:18:18.9030,-0.47,0.45,-0.33
2020-08-12 20:18:19.0010,-0.31,0.6,-0.28
2020-08-12 20:18:19.1010,0.6,-0.24,-0.02
2020-08-12 20:18:19.2000,0.58,-0.61,0.4
2020-08-12 20:18:19.3000,0.8,-0.2,0.19
2020-08-12 20:18:19.3990,0.02,-0.21,0.44
2020-08-12 20:18:19.4990,0.08,-0.02,-0.0
2020-08-12 20:18:19.5980,-0.03,0.03,0.06
2020-08-12 20:18:19.6970,0.01,0.02,0.0
2020-08-12 20:18:19.7960,0.02,0.01,0.04
2020-08-12 20:18:19.8950,0.03,-0.0,0.02
2020-08-12 20:18:19.9950,0.03,0.01,0.01
2020-08-12 20:18:20.0940,0.05,0.01,-0.02
2020-08-12 20:18:20.1930,-0.01,0.02,0.04
2020-08-12 20:18:20.2930,-0.08,-0.06,0.0
2020-08-12 20:18:20.3910,-0.25,-0.31,-0.09
2020-08-12 20:18:20.4910,-0.37,-0.52,0.29
2020-08-12 20:18:20.5900,-0.04,-0.62,0.06
2020-08-12 20:18:20.6900,-0.23,0.1,-0.03
2020-08-12 20:18:20.7890,-0.43,0.56,-0.24
2020-08-12 20:18:20.8880,-0.31,0.69,-0.22
2020-08-12 20:18:20.9870,0.4,-0.09,0.1
2020-08-12 20:18:21.0870,0.43,-0.71,0.32
2020-08-12 20:18:21.1860,0.97,-0.01,0.22
2020-08-12 20:18:21.2850,-0.42,-0.27,0.16
2020-08-12 20:18:21.3840,0.3,-0.04,0.07
2020-08-12 20:18:21.4840,0.09,0.02,0.02
2020-08-12 20:18:21.5820,0.05,0.01,0.01
2020-08-12 20:18:21.6820,0.06,-0.01,-0.0
2020-08-12 20:18:21.7810,0.01,0.01,0.01
2020-08-12 20:18:21.8810,0.03,0.0,0.02
2020-08-12 20:18:21.9800,0.02,0.01,0.01
2020-08-12 20:18:22.0790,0.02,0.01,-0.0
2020-08-12 20:18:22.1790,0.02,-0.05,-0.0
2020-08-12 20:18:22.2780,-0.12,-0.21,-0.03
2020-08-12 20:18:22.3770,-0.53,-0.44,-0.29
2020-08-12 20:18:22.4760,0.05,-0.6,0.01
2020-08-12 20:18:22.5760,-0.41,-0.13,0.17
2020-08-12 20:18:22.6750,-0.3,0.33,-0.29
2020-08-12 20:18:22.7740,-0.06,0.46,-0.12
2020-08-12 20:18:22.8730,0.34,0.13,0.05
2020-08-12 20:18:22.9730,0.73,-0.31,0.17
2020-08-12 20:18:23.0710,1.05,-0.32,0.12
2020-08-12 20:18:23.1710,0.38,-0.07,-0.04
2020-08-12 20:18:23.2700,0.06,-0.01,-0.02
2020-08-12 20:18:23.3690,-0.0,-0.01,0.04
2020-08-12 20:18:23.4690,0.11,-0.01,-0.04
2020-08-12 20:18:23.5680,0.08,-0.01,0.01
2020-08-12 20:18:23.6670,0.05,-0.01,-0.01
2020-08-12 20:18:23.7670,0.04,0.01,0.0
2020-08-12 20:18:23.8660,0.02,0.0,0.0
2020-08-12 20:18:23.9650,-0.01,-0.03,0.02
2020-08-12 20:18:24.0640,-0.09,-0.27,-0.15
2020-08-12 20:18:24.1630,-0.84,-0.44,0.02
2020-08-12 20:18:24.2630,0.34,-0.47,-0.15
2020-08-12 20:18:24.3620,-0.42,0.07,-0.08
2020-08-12 20:18:24.4610,-0.41,0.48,-0.31
2020-08-12 20:18:24.5610,-0.14,0.35,-0.17
2020-08-12 20:18:24.6600,0.38,-0.12,0.04
2020-08-12 20:18:24.7590,0.5,-0.37,0.36
2020-08-12 20:18:24.8580,0.96,-0.01,0.38
2020-08-12 20:18:24.9570,-0.32,-0.58,-0.19
2020-08-12 20:18:25.0570,0.02,0.01,0.02
2020-08-12 20:18:25.1560,0.08,0.0,0.03
2020-08-12 20:18:25.2550,0.05,-0.01,0.01
2020-08-12 20:18:25.3540,0.01,0.01,0.04
2020-08-12 20:18:25.4530,0.03,0.01,0.04
2020-08-12 20:18:25.5530,0.04,0.01,0.01
2020-08-12 20:18:25.6520,-0.01,-0.0,-0.01
2020-08-12 20:18:25.7510,-0.05,-0.02,0.02
2020-08-12 20:18:25.8510,-0.09,-0.17,-0.05
2020-08-12 20:18:25.9500,-0.65,-0.68,-0.06
2020-08-12 20:18:26.0490,0.35,-0.65,0.19
2020-08-12 20:18:26.1480,-0.29,-0.03,0.06
2020-08-12 20:18:26.2480,-0.42,0.46,-0.3
2020-08-12 20:18:26.3470,-0.22,0.54,-0.2
2020-08-12 20:18:26.4460,0.21,0.04,0.03
2020-08-12 20:18:26.5460,0.38,-0.23,0.22
2020-08-12 20:18:26.6450,0.67,-0.34,0.39
2020-08-12 20:18:26.7440,-0.88,0.0,-0.29
2020-08-12 20:18:26.8430,0.38,-0.02,0.04
2020-08-12 20:18:26.9430,0.04,0.01,-0.0
2020-08-12 20:18:27.0420,0.02,-0.01,0.04
2020-08-12 20:18:27.1410,0.01,0.02,0.02
2020-08-12 20:18:27.2400,0.0,0.01,-0.01
2020-08-12 20:18:27.3400,-0.01,0.01,0.01
2020-08-12 20:18:27.4390,0.03,0.01,0.01
2020-08-12 20:18:27.5380,-0.04,-0.01,-0.01
2020-08-12 20:18:27.6370,-0.02,-0.13,0.03
2020-08-12 20:18:27.7360,-0.49,-0.52,-0.02
2020-08-12 20:18:27.8350,0.26,-0.69,0.26
2020-08-12 20:18:27.9350,-0.41,-0.0,-0.05
2020-08-12 20:18:28.0340,-0.11,0.13,-0.11
2020-08-12 20:18:28.1330,-0.25,0.6,-0.25
2020-08-12 20:18:28.2330,-0.0,0.54,-0.22
2020-08-12 20:18:28.3320,0.37,-0.17,0.17
2020-08-12 20:18:28.4300,0.61,-0.49,0.39
2020-08-12 20:18:28.5310,0.13,-0.6,-0.51
2020-08-12 20:18:28.6300,0.55,-0.4,0.35
2020-08-12 20:18:28.7290,0.03,0.0,0.05
2020-08-12 20:18:28.8280,-0.01,0.01,-0.01
2020-08-12 20:18:28.9280,0.0,0.0,-0.0
2020-08-12 20:18:29.0260,0.03,-0.0,0.03
2020-08-12 20:18:29.1250,0.02,-0.0,0.01
2020-08-12 20:18:29.2260,0.01,0.0,0.0
2020-08-12 20:18:29.3250,-0.03,0.01,0.0
2020-08-12 20:18:29.4240,-0.0,-0.03,0.02
2020-08-12 20:18:29.5230,-0.16,-0.33,-0.09
2020-08-12 20:18:29.6220,-0.71,-0.52,0.01
2020-08-12 20:18:29.7220,0.06,-0.12,-0.36
2020-08-12 20:18:29.8210,-0.45,0.18,-0.05
2020-08-12 20:18:29.9200,-0.21,0.27,-0.24
2020-08-12 20:18:30.0180,-0.06,0.33,-0.1
2020-08-12 20:18:30.1190,0.26,0.02,0.12
2020-08-12 20:18:30.2170,0.41,-0.26,0.18
2020-08-12 20:18:30.3170,0.75,-0.2,0.31
2020-08-12 20:18:30.4170,-0.94,-0.35,-1.17
2020-08-12 20:18:30.5160,0.73,-0.06,-0.26
2020-08-12 20:18:30.6150,0.23,-0.07,-0.03
2020-08-12 20:18:30.7150,-0.0,0.01,0.02
2020-08-12 20:18:30.8140,-0.02,0.02,0.01
2020-08-12 20:18:30.9130,0.04,-0.01,0.01
2020-08-12 20:18:31.0120,0.01,0.0,0.03
2020-08-12 20:18:31.1110,0.02,0.02,0.01
2020-08-12 20:18:31.2100,0.0,0.02,0.02
2020-08-12 20:18:31.3100,-0.02,-0.02,-0.02
2020-08-12 20:18:31.4090,-0.08,-0.12,-0.02
2020-08-12 20:18:31.5080,-0.54,-0.56,0.05
2020-08-12 20:18:31.6080,0.13,-0.55,0.27
2020-08-12 20:18:31.7060,-0.28,-0.12,0.03
2020-08-12 20:18:31.8060,-0.34,0.36,-0.22
2020-08-12 20:18:31.9050,-0.38,0.66,-0.24
2020-08-12 20:18:32.0040,-0.01,0.51,-0.18
2020-08-12 20:18:32.1030,0.37,-0.22,0.14
2020-08-12 20:18:32.2030,0.49,-0.49,0.33
2020-08-12 20:18:32.3020,0.09,-0.39,-0.44
2020-08-12 20:18:32.4020,0.58,-0.42,-0.12
2020-08-12 20:18:32.5010,0.05,-0.01,0.07
2020-08-12 20:18:32.6000,0.03,-0.01,0.04
2020-08-12 20:18:32.6990,-0.01,0.02,0.01
2020-08-12 20:18:32.7990,0.04,-0.01,0.02
2020-08-12 20:18:32.8980,0.05,0.01,0.01
2020-08-12 20:18:32.9970,0.03,-0.02,-0.01
2020-08-12 20:18:33.0960,-0.01,-0.01,0.0
2020-08-12 20:18:33.1960,-0.04,-0.04,0.03
2020-08-12 20:18:33.2950,-0.19,-0.33,-0.06
2020-08-12 20:18:33.3930,-0.71,-0.22,0.24
2020-08-12 20:18:33.4930,-0.01,-0.51,-0.05
2020-08-12 20:18:33.5930,-0.25,0.13,-0.15
2020-08-12 20:18:33.6910,-0.44,0.58,-0.37
2020-08-12 20:18:33.7910,-0.08,0.49,-0.26
2020-08-12 20:18:33.8900,0.33,-0.13,0.09
2020-08-12 20:18:33.9900,0.42,-0.37,0.25
2020-08-12 20:18:34.0880,0.64,-0.23,0.26
2020-08-12 20:18:34.1880,-0.63,0.15,0.21
2020-08-12 20:18:34.2870,0.25,-0.13,0.2
2020-08-12 20:18:34.3870,0.03,-0.02,0.0
2020-08-12 20:18:34.4850,0.0,-0.03,0.03
2020-08-12 20:18:34.5850,0.03,-0.0,0.02
2020-08-12 20:18:34.6840,0.02,-0.01,0.02
2020-08-12 20:18:34.7840,0.02,-0.04,-0.01
2020-08-12 20:18:34.8830,0.03,0.01,0.01
2020-08-12 20:18:34.9820,0.04,-0.0,-0.02
2020-08-12 20:18:35.0810,-0.02,-0.04,0.03
2020-08-12 20:18:35.1810,-0.2,-0.27,-0.06
2020-08-12 20:18:35.2800,-0.65,-0.62,0.03
2020-08-12 20:18:35.3790,-0.01,-0.33,0.15
2020-08-12 20:18:35.4780,-0.21,-0.16,-0.07
2020-08-12 20:18:35.5780,-0.54,0.61,-0.32
2020-08-12 20:18:35.6770,-0.42,0.77,-0.29
2020-08-12 20:18:35.7760,0.21,0.14,-0.04
2020-08-12 20:18:35.8750,0.56,-0.64,0.25
2020-08-12 20:18:35.9750,1.03,-0.15,0.33
2020-08-12 20:18:36.0740,-0.33,-0.23,0.11
2020-08-12 20:18:36.1730,-0.13,0.01,0.07
2020-08-12 20:18:36.2720,-0.0,-0.01,0.01
2020-08-12 20:18:36.3720,0.04,-0.01,-0.0
2020-08-12 20:18:36.4710,0.01,0.0,0.03
2020-08-12 20:18:36.5700,-0.0,0.02,0.03
2020-08-12 20:18:36.6690,0.03,0.0,-0.01
2020-08-12 20:18:36.7690,-0.03,-0.02,0.01
2020-08-12 20:18:36.8680,-0.02,-0.08,-0.01
2020-08-12 20:18:36.9670,-0.26,-0.46,-0.02
2020-08-12 20:18:37.0660,-0.28,-0.65,0.25
2020-08-12 20:18:37.1660,-0.25,-0.31,-0.02
2020-08-12 20:18:37.2650,-0.3,0.1,-0.17
2020-08-12 20:18:37.3640,-0.47,0.62,-0.37
2020-08-12 20:18:37.4630,-0.19,0.65,-0.16
2020-08-12 20:18:37.5630,0.31,-0.21,0.24
2020-08-12 20:18:37.6620,0.58,-0.43,0.3
2020-08-12 20:18:37.7610,0.69,-0.34,0.25
2020-08-12 20:18:37.8600,0.27,-0.24,0.28
2020-08-12 20:18:37.9600,-0.0,0.07,-0.03
2020-08-12 20:18:38.0590,0.05,-0.03,-0.01
2020-08-12 20:18:38.1580,0.02,-0.0,0.0
2020-08-12 20:18:38.2570,0.05,0.01,0.02
2020-08-12 20:18:38.3570,0.03,0.02,0.03
2020-08-12 20:18:38.4560,0.04,0.01,-0.01
2020-08-12 20:18:38.5540,0.0,0.0,0.03
2020-08-12 20:18:38.6540,0.02,-0.04,0.0
2020-08-12 20:18:38.7540,-0.09,-0.19,-0.06
2020-08-12 20:18:38.8530,-0.5,-0.63,-0.05
2020-08-12 20:18:38.9520,-0.09,-0.22,0.19
2020-08-12 20:18:39.0520,-0.14,-0.19,0.08
2020-08-12 20:18:39.1510,-0.48,0.34,-0.3
2020-08-12 20:18:39.2500,-0.49,0.57,-0.33
2020-08-12 20:18:39.3490,-0.1,0.37,-0.2
2020-08-12 20:18:39.4480,0.36,-0.47,0.21
2020-08-12 20:18:39.5470,0.6,-0.43,0.27
2020-08-12 20:18:39.6470,0.38,-0.26,-0.03
2020-08-12 20:18:39.7460,0.6,-0.12,-0.2
2020-08-12 20:18:39.8450,0.15,-0.05,-0.02
2020-08-12 20:18:39.9450,0.06,-0.02,0.03
2020-08-12 20:18:40.0440,-0.02,0.0,0.05
2020-08-12 20:18:40.1430,0.04,0.01,0.01
2020-08-12 20:18:40.2430,-0.01,0.0,0.01
2020-08-12 20:18:40.3420,0.02,-0.0,0.02
2020-08-12 20:18:40.4410,0.02,0.03,0.04
2020-08-12 20:18:40.5400,0.04,0.04,0.07
2020-08-12 20:18:40.6400,-0.04,-0.09,-0.09
2020-08-12 20:18:40.7390,-0.2,-0.25,0.0
2020-08-12 20:18:40.8380,-0.33,-0.07,-0.03
2020-08-12 20:18:40.9370,-0.27,0.31,-0.06
2020-08-12 20:18:41.0370,0.11,-0.08,-0.01
2020-08-12 20:18:41.1360,0.68,-0.15,0.17
2020-08-12 20:18:41.2350,0.92,-0.2,0.01
2020-08-12 20:18:41.3340,0.06,-0.12,0.05
2020-08-12 20:18:41.4330,-0.14,0.05,0.1
2020-08-12 20:18:41.5320,-0.11,0.03,0.0
2020-08-12 20:18:41.6320,0.02,-0.02,-0.03
2020-08-12 20:18:41.7310,-0.03,-0.02,0.02
2020-08-12 20:18:41.8300,0.12,-0.02,-0.02
2020-08-12 20:18:41.9300,0.02,-0.0,0.02
2020-08-12 20:18:42.0280,-0.05,0.01,-0.04
2020-08-12 20:18:42.1280,0.0,0.0,0.03
2020-08-12 20:18:42.2280,0.09,-0.04,0.03
2020-08-12 20:18:42.3260,0.05,0.02,0.01
2020-08-12 20:18:42.4260,-0.03,-0.0,0.0
2020-08-12 20:18:42.5240,-0.02,-0.0,0.01
2020-08-12 20:18:42.6250,0.03,0.01,-0.01
2020-08-12 20:18:42.7240,0.05,-0.01,-0.0
2020-08-12 20:18:42.8230,0.01,-0.0,-0.01
2020-08-12 20:18:42.9220,0.02,0.0,-0.0
2020-08-12 20:18:43.0250,0.01,0.02,0.02
2020-08-12 20:18:43.1230,0.0,0.0,0.01
2020-08-12 20:18:43.2200,0.06,-0.02,-0.02
