time,ax,ay,az
2020-08-12 19:6:41.3920,-0.02,0.01,0.01
2020-08-12 19:6:41.4910,0.02,-0.01,0.03
2020-08-12 19:6:41.5920,-0.06,0.06,-0.02
2020-08-12 19:6:41.6900,0.02,0.01,0.0
2020-08-12 19:6:41.7910,0.02,0.02,0.03
2020-08-12 19:6:41.8880,0.0,0.01,0.02
2020-08-12 19:6:41.9890,0.03,-0.01,-0.04
2020-08-12 19:6:42.0870,-0.04,-0.01,-0.02
2020-08-12 19:6:42.1860,0.05,-0.02,-0.01
2020-08-12 19:6:42.2870,-0.06,0.02,0.01
2020-08-12 19:6:42.3850,0.0,0.01,-0.05
2020-08-12 19:6:42.4860,0.04,0.01,-0.01
2020-08-12 19:6:42.5830,-0.01,-0.02,-0.04
2020-08-12 19:6:42.6850,-0.04,0.06,-0.08
2020-08-12 19:6:42.7820,0.07,-0.07,0.03
2020-08-12 19:6:42.8830,-0.07,0.07,0.02
2020-08-12 19:6:42.9800,0.1,-0.01,0.06
2020-08-12 19:6:43.0820,-0.14,-0.03,-0.02
2020-08-12 19:6:43.1790,-0.49,-0.19,-0.04
2020-08-12 19:6:43.2800,-0.41,-0.82,0.14
2020-08-12 19:6:43.3770,-1.0,0.0,-0.11
2020-08-12 19:6:43.4780,-0.44,0.16,-0.08
2020-08-12 19:6:43.5760,0.24,-0.16,0.02
2020-08-12 19:6:43.6770,0.8,-0.07,0.18
2020-08-12 19:6:43.7740,0.83,0.17,0.33
2020-08-12 19:6:43.8750,0.46,-0.19,0.48
2020-08-12 19:6:43.9730,0.33,-0.17,-0.01
2020-08-12 19:6:44.0740,0.11,0.01,0.13
2020-08-12 19:6:44.1710,-0.01,-0.0,0.02
2020-08-12 19:6:44.2730,-0.06,0.02,0.12
2020-08-12 19:6:44.3700,-0.01,0.03,0.02
2020-08-12 19:6:44.4710,-0.09,-0.02,-0.03
2020-08-12 19:6:44.5680,-0.01,-0.11,0.03
2020-08-12 19:6:44.6680,-0.3,-0.23,-0.07
2020-08-12 19:6:44.7670,-0.59,-0.5,-0.1
2020-08-12 19:6:44.8680,-0.2,-0.06,0.39
2020-08-12 19:6:44.9660,-0.47,0.07,-0.02
2020-08-12 19:6:45.0660,-0.23,-0.06,0.03
2020-08-12 19:6:45.1640,0.38,-0.36,0.28
2020-08-12 19:6:45.2650,1.0,0.07,0.2
2020-08-12 19:6:45.3630,0.79,-0.45,0.24
2020-08-12 19:6:45.4620,0.34,-0.11,0.08
2020-08-12 19:6:45.5610,-0.07,-0.0,0.18
2020-08-12 19:6:45.6620,0.15,-0.03,-0.03
2020-08-12 19:6:45.7600,0.04,0.01,-0.04
2020-08-12 19:6:45.8610,-0.01,-0.01,-0.0
2020-08-12 19:6:45.9580,-0.05,-0.01,-0.01
2020-08-12 19:6:46.0590,-0.11,-0.04,0.07
2020-08-12 19:6:46.1570,-0.18,-0.25,0.1
2020-08-12 19:6:46.2560,-0.56,-0.43,-0.02
2020-08-12 19:6:46.3550,-0.37,-0.2,0.13
2020-08-12 19:6:46.4560,-0.52,0.07,-0.02
2020-08-12 19:6:46.5540,-0.24,0.04,-0.08
2020-08-12 19:6:46.6550,0.3,-0.47,0.21
2020-08-12 19:6:46.7520,0.99,0.19,0.24
2020-08-12 19:6:46.8540,0.79,-0.2,0.26
2020-08-12 19:6:46.9510,0.46,-0.45,-0.01
2020-08-12 19:6:47.0520,0.01,-0.1,0.16
2020-08-12 19:6:47.1490,0.18,-0.05,-0.09
2020-08-12 19:6:47.2500,-0.07,0.04,0.12
2020-08-12 19:6:47.3480,0.02,-0.0,0.01
2020-08-12 19:6:47.4490,0.04,-0.02,-0.02
2020-08-12 19:6:47.5460,-0.16,0.04,-0.03
2020-08-12 19:6:47.6460,-0.21,-0.13,0.09
2020-08-12 19:6:47.7450,-0.26,-0.36,-0.03
2020-08-12 19:6:47.8460,-0.29,-0.35,0.09
2020-08-12 19:6:47.9430,-0.37,-0.15,0.23
2020-08-12 19:6:48.0440,-0.54,0.09,-0.13
2020-08-12 19:6:48.1420,-0.07,-0.09,-0.01
2020-08-12 19:6:48.2410,0.62,-0.34,0.4
2020-08-12 19:6:48.3410,0.82,0.04,0.12
2020-08-12 19:6:48.4410,0.38,-0.32,-0.01
2020-08-12 19:6:48.5390,0.56,-0.45,0.35
2020-08-12 19:6:48.6400,0.14,-0.19,0.02
2020-08-12 19:6:48.7390,0.39,-0.07,0.04
2020-08-12 19:6:48.8370,-0.05,-0.02,-0.01
2020-08-12 19:6:48.9360,0.02,-0.03,0.05
2020-08-12 19:6:49.0370,0.01,0.0,0.07
2020-08-12 19:6:49.1350,-0.09,-0.06,-0.06
2020-08-12 19:6:49.2360,-0.09,-0.17,0.02
2020-08-12 19:6:49.3330,-0.44,-0.32,-0.06
2020-08-12 19:6:49.4330,-0.76,-0.73,0.25
2020-08-12 19:6:49.5320,-0.5,-0.15,-0.12
2020-08-12 19:6:49.6310,-0.52,0.14,-0.01
2020-08-12 19:6:49.7300,0.11,-0.12,0.11
2020-08-12 19:6:49.8300,1.11,-0.52,0.39
2020-08-12 19:6:49.9290,0.81,0.15,0.13
2020-08-12 19:6:50.0280,-1.07,-0.5,-0.26
2020-08-12 19:6:50.1270,0.47,0.31,0.1
2020-08-12 19:6:50.2280,-0.12,0.1,0.09
2020-08-12 19:6:50.3260,0.15,-0.0,-0.0
2020-08-12 19:6:50.4250,0.05,0.01,0.03
2020-08-12 19:6:50.5250,0.01,0.03,0.01
2020-08-12 19:6:50.6240,-0.02,-0.01,0.0
2020-08-12 19:6:50.7230,-0.22,-0.05,0.04
2020-08-12 19:6:50.8220,-0.13,-0.59,-0.1
2020-08-12 19:6:50.9210,-0.65,-0.6,0.22
2020-08-12 19:6:51.0210,-0.45,-0.16,0.03
2020-08-12 19:6:51.1200,-0.49,0.16,-0.09
2020-08-12 19:6:51.2190,-0.05,-0.11,-0.11
2020-08-12 19:6:51.3180,1.03,-0.47,0.32
2020-08-12 19:6:51.4180,0.96,0.15,0.13
2020-08-12 19:6:51.5180,-0.13,-0.18,0.28
2020-08-12 19:6:51.6160,0.48,0.0,0.14
2020-08-12 19:6:51.7160,-0.08,0.12,0.07
2020-08-12 19:6:51.8150,0.01,0.02,0.07
2020-08-12 19:6:51.9140,-0.05,0.01,0.01
2020-08-12 19:6:52.0130,0.05,-0.03,0.07
2020-08-12 19:6:52.1130,-0.25,0.07,-0.02
2020-08-12 19:6:52.2120,-0.2,-0.18,0.08
2020-08-12 19:6:52.3110,-0.5,-0.32,0.03
2020-08-12 19:6:52.4100,-0.37,-0.55,0.24
2020-08-12 19:6:52.5100,-0.46,-0.17,0.06
2020-08-12 19:6:52.6090,-0.67,0.08,-0.02
2020-08-12 19:6:52.7080,0.12,-0.03,-0.09
2020-08-12 19:6:52.8070,0.81,-0.51,0.19
2020-08-12 19:6:52.9070,1.04,0.14,0.19
2020-08-12 19:6:53.0060,-0.6,-0.63,-0.38
2020-08-12 19:6:53.1050,0.57,-0.3,-0.21
2020-08-12 19:6:53.2040,-0.04,-0.09,0.1
2020-08-12 19:6:53.3040,0.06,-0.02,0.03
2020-08-12 19:6:53.4030,-0.08,0.06,0.02
2020-08-12 19:6:53.5020,0.17,-0.08,-0.05
2020-08-12 19:6:53.6010,-0.09,0.07,-0.03
2020-08-12 19:6:53.7010,-0.13,0.0,0.03
2020-08-12 19:6:53.8000,-0.14,-0.25,-0.0
2020-08-12 19:6:53.8990,-0.32,-0.28,-0.03
2020-08-12 19:6:53.9980,-0.62,-0.55,0.27
2020-08-12 19:6:54.0980,-0.63,-0.09,-0.16
2020-08-12 19:6:54.1970,-0.42,0.14,-0.01
2020-08-12 19:6:54.2960,0.24,-0.16,0.05
2020-08-12 19:6:54.3960,0.66,-0.49,0.35
2020-08-12 19:6:54.4950,0.92,0.12,0.17
2020-08-12 19:6:54.5940,-1.4,-0.41,-0.87
2020-08-12 19:6:54.6930,0.56,-0.62,-0.27
2020-08-12 19:6:54.7920,-0.04,-0.09,0.23
2020-08-12 19:6:54.8920,0.18,-0.03,-0.03
2020-08-12 19:6:54.9910,-0.11,0.04,0.06
2020-08-12 19:6:55.0910,-0.03,0.0,-0.01
2020-08-12 19:6:55.1900,0.1,-0.09,-0.03
2020-08-12 19:6:55.2890,-0.09,0.04,-0.01
2020-08-12 19:6:55.3880,-0.11,-0.05,0.07
2020-08-12 19:6:55.4880,-0.04,-0.18,-0.02
2020-08-12 19:6:55.5870,-0.3,-0.16,0.01
2020-08-12 19:6:55.6860,-0.23,-0.26,-0.01
2020-08-12 19:6:55.7850,-0.08,-0.19,0.31
2020-08-12 19:6:55.8850,-0.61,0.05,-0.02
2020-08-12 19:6:55.9840,0.06,-0.07,0.03
2020-08-12 19:6:56.0830,0.2,-0.21,0.11
2020-08-12 19:6:56.1820,0.89,0.06,0.15
2020-08-12 19:6:56.2820,0.98,-0.04,0.17
2020-08-12 19:6:56.3810,0.02,-0.05,-0.1
2020-08-12 19:6:56.4800,0.15,-0.17,0.06
2020-08-12 19:6:56.5790,0.21,-0.04,0.05
2020-08-12 19:6:56.6780,0.14,-0.02,-0.04
2020-08-12 19:6:56.7780,-0.17,0.06,0.11
2020-08-12 19:6:56.8770,0.02,0.03,0.04
2020-08-12 19:6:56.9760,-0.05,-0.05,-0.01
2020-08-12 19:6:57.0750,-0.2,-0.05,0.07
2020-08-12 19:6:57.1750,-0.39,-0.28,-0.02
2020-08-12 19:6:57.2740,-0.36,-0.54,0.13
2020-08-12 19:6:57.3740,-0.38,-0.07,0.09
2020-08-12 19:6:57.4720,-0.42,0.15,0.01
2020-08-12 19:6:57.5720,0.18,-0.08,0.12
2020-08-12 19:6:57.6710,0.5,-0.35,0.18
2020-08-12 19:6:57.7710,0.57,-0.12,0.16
2020-08-12 19:6:57.8700,0.51,0.05,0.0
2020-08-12 19:6:57.9690,-0.31,-0.15,0.08
2020-08-12 19:6:58.0680,0.48,0.06,-0.07
2020-08-12 19:6:58.1680,-0.1,0.01,0.11
2020-08-12 19:6:58.2670,0.12,-0.02,-0.03
2020-08-12 19:6:58.3660,-0.03,0.02,-0.0
2020-08-12 19:6:58.4650,-0.01,-0.01,0.03
2020-08-12 19:6:58.5650,-0.06,0.01,0.08
2020-08-12 19:6:58.6640,-0.06,0.01,-0.02
2020-08-12 19:6:58.7630,0.02,-0.06,0.0
2020-08-12 19:6:58.8620,-0.19,-0.12,0.22
2020-08-12 19:6:58.9610,-0.39,-0.47,-0.18
2020-08-12 19:6:59.0610,-0.42,-0.47,0.08
2020-08-12 19:6:59.1600,-0.59,0.01,-0.05
2020-08-12 19:6:59.2590,-0.4,0.05,0.01
2020-08-12 19:6:59.3590,0.23,-0.16,0.1
2020-08-12 19:6:59.4580,0.85,-0.3,0.29
2020-08-12 19:6:59.5570,0.73,0.15,0.21
2020-08-12 19:6:59.6560,-0.46,-0.46,-0.39
2020-08-12 19:6:59.7560,0.34,-0.28,-0.18
2020-08-12 19:6:59.8550,0.02,-0.37,0.02
2020-08-12 19:6:59.9540,0.3,-0.08,-0.02
2020-08-12 19:7:00.0530,0.02,0.01,0.01
2020-08-12 19:7:00.1530,-0.04,-0.01,0.01
2020-08-12 19:7:00.2520,-0.01,0.01,0.0
2020-08-12 19:7:00.3510,-0.19,0.04,-0.03
2020-08-12 19:7:00.4510,-0.09,-0.07,0.07
2020-08-12 19:7:00.5500,-0.24,-0.47,-0.09
2020-08-12 19:7:00.6490,-0.32,-0.59,0.08
2020-08-12 19:7:00.7480,-0.4,0.05,0.2
2020-08-12 19:7:00.8480,-0.63,0.16,-0.07
2020-08-12 19:7:00.9470,-0.1,-0.13,-0.07
2020-08-12 19:7:01.0460,0.71,-0.73,0.3
2020-08-12 19:7:01.1450,0.79,0.11,0.19
2020-08-12 19:7:01.2450,-0.98,-0.58,-0.63
2020-08-12 19:7:01.3440,0.62,0.06,0.01
2020-08-12 19:7:01.4430,-0.07,-0.0,0.13
2020-08-12 19:7:01.5420,-0.03,-0.02,0.02
2020-08-12 19:7:01.6420,0.06,-0.01,0.02
2020-08-12 19:7:01.7410,0.03,-0.03,-0.02
2020-08-12 19:7:01.8410,0.02,0.01,-0.02
2020-08-12 19:7:01.9390,-0.19,-0.08,0.1
2020-08-12 19:7:02.0390,-0.19,-0.11,0.07
2020-08-12 19:7:02.1380,-0.48,-0.43,-0.05
2020-08-12 19:7:02.2370,-0.56,-0.39,0.25
2020-08-12 19:7:02.3360,-0.57,0.13,0.0
2020-08-12 19:7:02.4360,-0.14,-0.03,-0.03
2020-08-12 19:7:02.5350,0.11,-0.02,0.03
2020-08-12 19:7:02.6340,0.7,-0.25,0.24
2020-08-12 19:7:02.7340,0.78,0.1,0.22
2020-08-12 19:7:02.8330,0.21,-0.08,0.17
2020-08-12 19:7:02.9320,0.88,-0.1,0.22
2020-08-12 19:7:03.0310,0.03,-0.12,0.02
2020-08-12 19:7:03.1300,0.04,0.0,0.07
2020-08-12 19:7:03.2300,-0.0,-0.01,0.05
2020-08-12 19:7:03.3290,-0.05,0.06,0.06
2020-08-12 19:7:03.4280,-0.05,-0.04,-0.04
2020-08-12 19:7:03.5270,-0.1,-0.06,0.07
2020-08-12 19:7:03.6270,-0.25,-0.2,0.04
2020-08-12 19:7:03.7260,-0.36,-0.34,-0.04
2020-08-12 19:7:03.8250,-0.42,-0.5,0.14
2020-08-12 19:7:03.9250,-0.66,-0.07,-0.1
2020-08-12 19:7:04.0240,-0.47,0.04,0.03
2020-08-12 19:7:04.1230,0.26,-0.16,0.12
2020-08-12 19:7:04.2220,0.61,-0.34,0.23
2020-08-12 19:7:04.3210,0.61,0.14,0.19
2020-08-12 19:7:04.4210,0.08,-0.38,-0.15
2020-08-12 19:7:04.5200,0.28,-0.14,0.01
2020-08-12 19:7:04.6190,-0.04,-0.17,0.0
2020-08-12 19:7:04.7190,0.07,-0.01,-0.04
2020-08-12 19:7:04.8180,0.07,-0.01,-0.01
2020-08-12 19:7:04.9170,-0.01,0.03,0.04
2020-08-12 19:7:05.0160,0.02,-0.02,0.01
2020-08-12 19:7:05.1160,-0.15,0.0,0.03
2020-08-12 19:7:05.2150,-0.02,-0.13,0.03
2020-08-12 19:7:05.3140,-0.34,-0.27,0.02
2020-08-12 19:7:05.4130,-0.33,-0.45,0.11
2020-08-12 19:7:05.5130,-0.45,-0.12,-0.22
2020-08-12 19:7:05.6120,-0.65,0.07,0.13
2020-08-12 19:7:05.7110,0.09,-0.09,0.1
2020-08-12 19:7:05.8100,0.43,-0.19,0.1
2020-08-12 19:7:05.9100,0.72,-0.04,0.14
2020-08-12 19:7:06.0090,0.99,-0.02,0.25
2020-08-12 19:7:06.1080,0.25,0.01,0.08
2020-08-12 19:7:06.2080,0.2,-0.39,-0.1
2020-08-12 19:7:06.3070,0.04,-0.02,0.11
2020-08-12 19:7:06.4060,0.14,-0.01,0.01
2020-08-12 19:7:06.5050,0.04,0.03,-0.02
2020-08-12 19:7:06.6050,0.0,-0.02,-0.01
2020-08-12 19:7:06.7040,-0.14,-0.04,-0.02
2020-08-12 19:7:06.8030,-0.13,-0.12,0.0
2020-08-12 19:7:06.9020,-0.38,-0.27,0.01
2020-08-12 19:7:07.0020,-0.22,-0.43,0.16
2020-08-12 19:7:07.1010,-0.36,0.05,0.23
2020-08-12 19:7:07.2000,-0.61,0.11,0.03
2020-08-12 19:7:07.2990,0.05,-0.09,0.01
2020-08-12 19:7:07.3990,0.49,-0.32,0.29
2020-08-12 19:7:07.4980,0.94,0.07,0.25
2020-08-12 19:7:07.5970,0.19,-0.34,-0.41
2020-08-12 19:7:07.6960,0.33,0.14,-0.01
2020-08-12 19:7:07.7960,-0.22,0.02,0.07
2020-08-12 19:7:07.8950,-0.1,0.01,0.09
2020-08-12 19:7:07.9940,0.03,0.02,0.08
2020-08-12 19:7:08.0930,0.03,-0.02,-0.03
2020-08-12 19:7:08.1930,0.05,-0.0,-0.04
2020-08-12 19:7:08.2920,-0.12,-0.01,-0.01
2020-08-12 19:7:08.3910,-0.19,-0.22,0.09
2020-08-12 19:7:08.4910,-0.44,-0.42,0.02
2020-08-12 19:7:08.5900,-0.49,-0.39,0.12
2020-08-12 19:7:08.6890,-0.69,0.06,-0.18
2020-08-12 19:7:08.7880,-0.36,-0.03,-0.11
2020-08-12 19:7:08.8880,0.28,-0.13,0.05
2020-08-12 19:7:08.9870,0.56,-0.26,0.16
2020-08-12 19:7:09.0860,0.53,-0.17,0.17
2020-08-12 19:7:09.1850,0.64,-0.07,-0.2
2020-08-12 19:7:09.2850,0.38,-0.29,0.39
2020-08-12 19:7:09.3840,0.46,-0.33,-0.15
2020-08-12 19:7:09.4830,0.13,0.05,0.18
2020-08-12 19:7:09.5830,0.03,0.03,0.08
2020-08-12 19:7:09.6820,-0.08,0.02,0.03
2020-08-12 19:7:09.7810,-0.05,-0.0,-0.02
2020-08-12 19:7:09.8800,0.07,-0.02,0.01
2020-08-12 19:7:09.9800,-0.06,-0.08,0.04
2020-08-12 19:7:10.0790,-0.26,-0.27,0.0
2020-08-12 19:7:10.1780,-0.34,-0.31,-0.08
2020-08-12 19:7:10.2770,-0.59,-0.32,0.3
2020-08-12 19:7:10.3770,-0.47,0.1,-0.07
2020-08-12 19:7:10.4760,-0.31,-0.06,-0.09
2020-08-12 19:7:10.5750,0.14,-0.19,0.01
2020-08-12 19:7:10.6750,0.83,-0.06,0.3
2020-08-12 19:7:10.7730,0.89,0.21,0.2
2020-08-12 19:7:10.8730,-0.71,-0.37,-0.62
2020-08-12 19:7:10.9720,0.4,-0.05,0.04
2020-08-12 19:7:11.0710,-0.12,-0.1,0.1
2020-08-12 19:7:11.1710,0.22,-0.01,-0.02
2020-08-12 19:7:11.2700,0.03,-0.03,-0.01
2020-08-12 19:7:11.3690,0.01,0.02,0.01
2020-08-12 19:7:11.4680,0.02,0.03,0.02
2020-08-12 19:7:11.5680,-0.06,-0.03,-0.04
2020-08-12 19:7:11.6670,-0.1,-0.06,0.04
2020-08-12 19:7:11.7660,-0.37,-0.23,0.06
2020-08-12 19:7:11.8660,-0.26,-0.24,-0.0
2020-08-12 19:7:11.9650,-0.13,-0.15,0.06
2020-08-12 19:7:12.0640,-0.51,0.06,-0.05
2020-08-12 19:7:12.1630,-0.18,-0.03,0.01
2020-08-12 19:7:12.2630,-0.04,-0.03,0.13
2020-08-12 19:7:12.3620,0.55,-0.22,0.14
2020-08-12 19:7:12.4610,0.74,0.04,0.12
2020-08-12 19:7:12.5600,0.57,-0.2,-0.0
2020-08-12 19:7:12.6600,0.31,-0.28,0.09
2020-08-12 19:7:12.7590,0.28,-0.16,0.11
2020-08-12 19:7:12.8580,0.18,-0.04,0.03
2020-08-12 19:7:12.9570,-0.01,-0.01,0.05
2020-08-12 19:7:13.0570,0.1,-0.03,-0.01
2020-08-12 19:7:13.1560,0.04,-0.01,-0.03
2020-08-12 19:7:13.2550,-0.1,0.03,-0.02
2020-08-12 19:7:13.3540,-0.04,-0.04,-0.01
2020-08-12 19:7:13.4540,-0.08,-0.14,0.11
2020-08-12 19:7:13.5530,-0.31,-0.24,-0.01
2020-08-12 19:7:13.6520,-0.3,-0.2,0.05
2020-08-12 19:7:13.7510,-0.63,-0.12,0.05
2020-08-12 19:7:13.8510,-0.31,-0.09,0.04
2020-08-12 19:7:13.9500,-0.08,-0.12,0.12
2020-08-12 19:7:14.0500,0.34,-0.05,0.08
2020-08-12 19:7:14.1480,0.77,-0.2,0.16
2020-08-12 19:7:14.2480,0.62,0.08,0.0
2020-08-12 19:7:14.3470,-0.33,-0.16,-0.1
2020-08-12 19:7:14.4460,0.46,-0.34,0.1
2020-08-12 19:7:14.5460,0.14,-0.21,0.09
2020-08-12 19:7:14.6450,0.14,-0.01,0.11
2020-08-12 19:7:14.7440,0.03,-0.03,-0.01
2020-08-12 19:7:14.8430,0.05,-0.04,-0.08
2020-08-12 19:7:14.9430,0.03,-0.01,-0.02
2020-08-12 19:7:15.0420,-0.08,0.07,0.13
2020-08-12 19:7:15.1410,-0.16,0.0,0.01
2020-08-12 19:7:15.2400,-0.16,-0.1,0.1
2020-08-12 19:7:15.3400,-0.32,-0.34,0.0
2020-08-12 19:7:15.4390,-0.3,-0.39,0.22
2020-08-12 19:7:15.5380,-0.53,-0.18,-0.11
2020-08-12 19:7:15.6370,-0.46,0.01,-0.0
2020-08-12 19:7:15.7370,0.12,0.0,0.02
2020-08-12 19:7:15.8360,0.38,-0.25,0.12
2020-08-12 19:7:15.9350,0.73,-0.07,0.19
2020-08-12 19:7:16.0340,0.63,0.12,0.11
2020-08-12 19:7:16.1340,-0.76,-0.57,-0.44
2020-08-12 19:7:16.2330,0.29,0.37,0.08
2020-08-12 19:7:16.3320,0.01,0.12,0.12
2020-08-12 19:7:16.4320,-0.06,-0.01,0.01
2020-08-12 19:7:16.5310,0.07,-0.02,-0.06
2020-08-12 19:7:16.6300,0.01,0.01,-0.01
2020-08-12 19:7:16.7290,-0.07,0.01,0.01
2020-08-12 19:7:16.8290,-0.12,0.01,0.03
2020-08-12 19:7:16.9280,-0.05,-0.14,-0.0
2020-08-12 19:7:17.0270,-0.33,-0.18,0.16
2020-08-12 19:7:17.1270,-0.25,-0.29,-0.1
2020-08-12 19:7:17.2260,-0.45,-0.22,0.16
2020-08-12 19:7:17.3250,-0.53,-0.04,-0.25
2020-08-12 19:7:17.4240,-0.21,-0.0,-0.22
2020-08-12 19:7:17.5230,0.12,-0.2,0.06
2020-08-12 19:7:17.6230,0.75,-0.3,0.2
2020-08-12 19:7:17.7220,0.58,0.13,0.12
2020-08-12 19:7:17.8210,0.08,-0.21,-0.01
2020-08-12 19:7:17.9210,0.41,-0.2,0.04
2020-08-12 19:7:18.0200,0.03,-0.2,0.06
2020-08-12 19:7:18.1190,0.12,-0.02,0.04
2020-08-12 19:7:18.2180,-0.07,0.01,0.07
2020-08-12 19:7:18.3170,-0.03,-0.01,0.09
2020-08-12 19:7:18.4170,-0.09,0.02,-0.0
2020-08-12 19:7:18.5160,-0.13,0.02,0.07
2020-08-12 19:7:18.6150,0.05,-0.13,-0.09
2020-08-12 19:7:18.7150,-0.21,-0.2,0.03
2020-08-12 19:7:18.8140,-0.28,-0.44,-0.08
2020-08-12 19:7:18.9130,-0.56,-0.47,0.24
2020-08-12 19:7:19.0120,-0.48,0.09,-0.18
2020-08-12 19:7:19.1120,-0.42,0.1,-0.0
2020-08-12 19:7:19.2110,0.16,-0.26,0.06
2020-08-12 19:7:19.3100,1.06,-0.42,0.41
2020-08-12 19:7:19.4090,0.77,0.14,0.12
2020-08-12 19:7:19.5090,0.04,-0.15,0.06
2020-08-12 19:7:19.6080,0.46,-0.23,-0.06
2020-08-12 19:7:19.7070,0.1,-0.14,0.15
2020-08-12 19:7:19.8070,0.11,-0.02,0.01
2020-08-12 19:7:19.9060,-0.07,-0.01,0.02
2020-08-12 19:7:20.0050,0.07,-0.02,-0.02
2020-08-12 19:7:20.1040,-0.01,0.0,-0.01
2020-08-12 19:7:20.2040,-0.22,0.01,-0.01
2020-08-12 19:7:20.3030,-0.29,0.0,0.02
2020-08-12 19:7:20.4020,-0.27,-0.27,0.0
2020-08-12 19:7:20.5010,-0.36,-0.47,-0.0
2020-08-12 19:7:20.6010,-0.18,-0.06,0.36
2020-08-12 19:7:20.7000,-0.45,0.18,-0.12
2020-08-12 19:7:20.7990,-0.02,0.12,-0.01
2020-08-12 19:7:20.8980,0.37,-0.13,0.12
2020-08-12 19:7:20.9980,0.72,-0.06,0.17
2020-08-12 19:7:21.0970,0.59,0.07,0.12
2020-08-12 19:7:21.1960,0.07,-0.18,0.32
2020-08-12 19:7:21.2950,0.22,0.04,0.05
2020-08-12 19:7:21.3950,0.06,0.09,-0.03
2020-08-12 19:7:21.4940,0.01,0.0,0.11
2020-08-12 19:7:21.5930,0.03,0.02,0.05
2020-08-12 19:7:21.6930,0.05,-0.03,-0.02
2020-08-12 19:7:21.7920,-0.03,0.04,0.05
2020-08-12 19:7:21.8910,-0.14,0.05,0.02
2020-08-12 19:7:21.9900,-0.05,-0.16,0.05
2020-08-12 19:7:22.0890,-0.33,-0.38,0.02
2020-08-12 19:7:22.1890,-0.54,-0.56,0.15
2020-08-12 19:7:22.2880,-0.41,-0.24,-0.01
2020-08-12 19:7:22.3870,-0.51,0.16,-0.03
2020-08-12 19:7:22.4860,-0.0,-0.07,-0.07
2020-08-12 19:7:22.5860,0.65,-0.49,0.19
2020-08-12 19:7:22.6850,0.8,0.03,0.23
2020-08-12 19:7:22.7840,0.62,-0.11,0.11
2020-08-12 19:7:22.8830,0.4,-0.34,-0.03
2020-08-12 19:7:22.9830,0.12,-0.18,0.19
2020-08-12 19:7:23.0820,0.15,-0.02,0.04
2020-08-12 19:7:23.1810,-0.08,0.01,0.01
2020-08-12 19:7:23.2810,-0.09,-0.01,0.09
2020-08-12 19:7:23.3800,-0.04,-0.03,-0.02
2020-08-12 19:7:23.4790,-0.04,-0.01,0.01
2020-08-12 19:7:23.5780,-0.07,-0.05,0.07
2020-08-12 19:7:23.6780,-0.34,-0.32,0.04
2020-08-12 19:7:23.7770,-0.48,-0.52,0.03
2020-08-12 19:7:23.8760,-0.31,-0.07,0.27
2020-08-12 19:7:23.9750,-0.48,0.09,-0.15
2020-08-12 19:7:24.0750,-0.15,-0.02,-0.05
2020-08-12 19:7:24.1740,0.19,-0.14,0.05
2020-08-12 19:7:24.2740,0.99,-0.36,0.44
2020-08-12 19:7:24.3730,0.86,0.1,0.21
2020-08-12 19:7:24.4720,-0.22,0.0,0.46
2020-08-12 19:7:24.5710,0.31,0.15,0.04
2020-08-12 19:7:24.6700,-0.27,-0.02,0.14
2020-08-12 19:7:24.7690,-0.08,0.0,0.03
2020-08-12 19:7:24.8690,0.06,-0.04,-0.1
2020-08-12 19:7:24.9680,0.01,0.01,0.02
2020-08-12 19:7:25.0670,-0.02,-0.02,0.01
2020-08-12 19:7:25.1660,-0.09,-0.04,0.05
2020-08-12 19:7:25.2660,-0.13,-0.16,0.03
2020-08-12 19:7:25.3650,-0.46,-0.46,-0.01
2020-08-12 19:7:25.4650,-0.53,-0.55,0.27
2020-08-12 19:7:25.5640,-0.6,-0.17,-0.18
2020-08-12 19:7:25.6630,-0.4,0.17,0.08
2020-08-12 19:7:25.7620,0.19,-0.11,0.03
2020-08-12 19:7:25.8620,0.59,-0.37,0.16
2020-08-12 19:7:25.9610,0.94,0.09,0.21
2020-08-12 19:7:26.0600,0.47,-0.12,0.03
2020-08-12 19:7:26.1590,0.58,-0.39,-0.02
2020-08-12 19:7:26.2590,0.23,-0.3,0.03
2020-08-12 19:7:26.3580,0.15,-0.02,0.06
2020-08-12 19:7:26.4570,-0.07,-0.0,0.05
2020-08-12 19:7:26.5560,-0.15,0.01,0.0
2020-08-12 19:7:26.6550,-0.05,0.01,-0.01
2020-08-12 19:7:26.7550,-0.04,-0.03,-0.0
2020-08-12 19:7:26.8540,-0.27,-0.18,0.11
2020-08-12 19:7:26.9530,-0.43,-0.49,-0.01
2020-08-12 19:7:27.0530,-0.83,-0.29,0.63
2020-08-12 19:7:27.1520,-0.51,0.09,-0.1
2020-08-12 19:7:27.2510,-0.19,-0.11,-0.27
2020-08-12 19:7:27.3510,0.1,-0.18,0.11
2020-08-12 19:7:27.4500,0.74,-0.36,0.15
2020-08-12 19:7:27.5490,0.71,0.02,0.15
2020-08-12 19:7:27.6480,0.48,0.08,0.23
2020-08-12 19:7:27.7470,-0.34,-0.33,0.2
2020-08-12 19:7:27.8470,0.61,0.15,-0.09
2020-08-12 19:7:27.9460,-0.33,0.17,0.21
2020-08-12 19:7:28.0450,-0.03,-0.03,0.07
2020-08-12 19:7:28.1440,0.02,-0.04,-0.13
2020-08-12 19:7:28.2440,-0.07,0.07,0.13
2020-08-12 19:7:28.3430,-0.1,0.03,0.13
2020-08-12 19:7:28.4420,-0.09,-0.03,-0.05
2020-08-12 19:7:28.5420,-0.16,-0.23,0.02
2020-08-12 19:7:28.6410,-0.37,-0.29,0.0
2020-08-12 19:7:28.7400,-0.65,-0.69,0.21
2020-08-12 19:7:28.8390,-0.64,-0.08,-0.32
2020-08-12 19:7:28.9380,-0.44,0.17,0.01
2020-08-12 19:7:29.0380,-0.03,-0.01,-0.03
2020-08-12 19:7:29.1370,0.73,-0.6,0.19
2020-08-12 19:7:29.2360,0.81,0.07,0.28
2020-08-12 19:7:29.3350,0.27,-0.3,-0.01
2020-08-12 19:7:29.4350,0.36,-0.28,0.09
2020-08-12 19:7:29.5340,0.14,-0.11,0.26
2020-08-12 19:7:29.6330,0.11,-0.03,-0.05
2020-08-12 19:7:29.7330,-0.02,0.0,0.08
2020-08-12 19:7:29.8320,-0.01,-0.02,-0.02
2020-08-12 19:7:29.9310,-0.05,0.04,0.03
2020-08-12 19:7:30.0300,-0.07,0.0,0.01
2020-08-12 19:7:30.1300,-0.1,-0.07,-0.03
2020-08-12 19:7:30.2290,-0.18,-0.29,-0.03
2020-08-12 19:7:30.3290,-0.4,-0.52,0.03
2020-08-12 19:7:30.4270,-0.53,0.0,0.1
2020-08-12 19:7:30.5270,-0.46,0.1,-0.19
2020-08-12 19:7:30.6260,-0.19,0.05,-0.15
2020-08-12 19:7:30.7250,0.31,-0.33,0.15
2020-08-12 19:7:30.8250,0.7,-0.16,0.22
2020-08-12 19:7:30.9240,0.85,0.16,0.13
2020-08-12 19:7:31.0230,-1.3,-0.42,-0.43
2020-08-12 19:7:31.1220,0.55,0.13,-0.02
2020-08-12 19:7:31.2220,-0.27,-0.01,0.08
2020-08-12 19:7:31.3210,0.14,-0.06,-0.08
2020-08-12 19:7:31.4200,-0.01,0.0,-0.02
2020-08-12 19:7:31.5190,-0.02,0.01,-0.03
2020-08-12 19:7:31.6190,0.0,0.0,-0.02
2020-08-12 19:7:31.7180,-0.05,-0.04,0.05
2020-08-12 19:7:31.8170,-0.11,-0.14,0.0
2020-08-12 19:7:31.9160,-0.41,-0.35,0.01
2020-08-12 19:7:32.0160,-0.42,-0.43,0.2
2020-08-12 19:7:32.1150,-0.29,-0.03,0.43
2020-08-12 19:7:32.2140,-0.49,0.19,-0.06
2020-08-12 19:7:32.3130,0.02,-0.06,-0.11
2020-08-12 19:7:32.4130,0.55,-0.4,0.15
2020-08-12 19:7:32.5120,0.86,-0.04,0.27
2020-08-12 19:7:32.6120,0.69,0.13,0.15
2020-08-12 19:7:32.7100,0.43,-0.14,0.56
2020-08-12 19:7:32.8100,0.56,-0.04,-0.05
2020-08-12 19:7:32.9090,-0.18,0.12,0.15
2020-08-12 19:7:33.0080,0.01,0.01,-0.02
2020-08-12 19:7:33.1070,0.08,-0.02,-0.02
2020-08-12 19:7:33.2070,0.06,-0.01,-0.01
2020-08-12 19:7:33.3060,-0.03,-0.02,-0.0
2020-08-12 19:7:33.4050,-0.19,-0.04,0.02
2020-08-12 19:7:33.5050,-0.27,-0.34,0.02
2020-08-12 19:7:33.6040,-0.49,-0.55,0.05
2020-08-12 19:7:33.7030,-0.31,-0.13,0.32
2020-08-12 19:7:33.8020,-0.45,0.15,-0.04
2020-08-12 19:7:33.9020,-0.2,0.0,-0.22
2020-08-12 19:7:34.0010,0.44,-0.43,0.23
2020-08-12 19:7:34.1000,0.77,-0.04,0.23
2020-08-12 19:7:34.1990,0.72,0.15,0.2
2020-08-12 19:7:34.2990,0.36,-0.03,0.42
2020-08-12 19:7:34.3980,0.45,0.1,-0.01
2020-08-12 19:7:34.4970,-0.31,0.1,0.2
2020-08-12 19:7:34.5960,-0.01,-0.04,-0.11
2020-08-12 19:7:34.6960,-0.05,0.04,-0.03
2020-08-12 19:7:34.7950,-0.11,0.07,0.11
2020-08-12 19:7:34.8940,-0.08,0.02,-0.01
2020-08-12 19:7:34.9930,-0.11,-0.04,0.02
2020-08-12 19:7:35.0930,-0.15,-0.16,0.1
2020-08-12 19:7:35.1920,-0.51,-0.46,-0.06
2020-08-12 19:7:35.2910,-0.52,-0.62,0.08
2020-08-12 19:7:35.3900,-0.6,-0.08,-0.16
2020-08-12 19:7:35.4900,-0.41,0.18,-0.02
2020-08-12 19:7:35.5890,0.18,-0.12,0.04
2020-08-12 19:7:35.6880,0.78,-0.49,0.22
2020-08-12 19:7:35.7870,0.82,0.03,0.25
2020-08-12 19:7:35.8870,0.49,-0.15,0.12
2020-08-12 19:7:35.9860,0.32,-0.45,-0.0
2020-08-12 19:7:36.0850,0.14,-0.07,0.18
2020-08-12 19:7:36.1850,0.2,-0.02,-0.01
2020-08-12 19:7:36.2840,0.02,-0.01,0.03
2020-08-12 19:7:36.3830,-0.01,0.02,0.02
2020-08-12 19:7:36.4830,0.04,-0.04,-0.02
2020-08-12 19:7:36.5820,0.0,-0.02,0.0
2020-08-12 19:7:36.6810,-0.12,-0.08,0.05
2020-08-12 19:7:36.7800,-0.17,-0.27,0.07
2020-08-12 19:7:36.8790,-0.49,-0.49,0.03
2020-08-12 19:7:36.9790,-0.57,-0.19,0.13
2020-08-12 19:7:37.0780,-0.38,0.07,-0.09
2020-08-12 19:7:37.1770,-0.2,0.1,0.07
2020-08-12 19:7:37.2770,0.06,0.0,0.19
2020-08-12 19:7:37.3760,0.79,-0.29,0.29
2020-08-12 19:7:37.4750,0.78,0.01,0.15
2020-08-12 19:7:37.5740,0.6,0.08,-0.06
2020-08-12 19:7:37.6740,0.54,-0.2,0.43
2020-08-12 19:7:37.7730,0.55,0.06,-0.07
2020-08-12 19:7:37.8720,-0.0,0.11,0.17
2020-08-12 19:7:37.9710,-0.12,-0.02,0.05
2020-08-12 19:7:38.0700,-0.02,0.04,0.0
2020-08-12 19:7:38.1700,0.07,-0.0,-0.08
2020-08-12 19:7:38.2690,0.06,-0.02,-0.04
2020-08-12 19:7:38.3680,-0.1,-0.01,-0.03
2020-08-12 19:7:38.4680,-0.1,-0.19,0.02
2020-08-12 19:7:38.5670,-0.48,-0.26,0.03
2020-08-12 19:7:38.6660,-0.4,-0.53,0.02
2020-08-12 19:7:38.7650,-0.13,0.09,0.57
2020-08-12 19:7:38.8650,-0.53,-0.0,-0.14
2020-08-12 19:7:38.9640,-0.1,-0.04,-0.02
2020-08-12 19:7:39.0630,0.59,-0.57,0.22
2020-08-12 19:7:39.1620,0.97,0.09,0.21
2020-08-12 19:7:39.2620,0.45,0.09,0.21
2020-08-12 19:7:39.3610,0.49,-0.54,0.14
2020-08-12 19:7:39.4600,0.3,-0.14,0.03
2020-08-12 19:7:39.5590,-0.11,0.07,0.09
2020-08-12 19:7:39.6590,0.01,0.01,-0.02
2020-08-12 19:7:39.7580,-0.03,0.03,0.07
2020-08-12 19:7:39.8570,-0.05,0.02,0.0
2020-08-12 19:7:39.9560,-0.02,-0.04,-0.1
2020-08-12 19:7:40.0560,-0.17,0.05,0.01
2020-08-12 19:7:40.1550,0.01,-0.24,0.01
2020-08-12 19:7:40.2540,-0.48,-0.29,0.05
2020-08-12 19:7:40.3540,-0.38,-0.55,0.17
2020-08-12 19:7:40.4530,-0.07,-0.12,0.32
2020-08-12 19:7:40.5520,-0.42,0.07,-0.25
2020-08-12 19:7:40.6510,0.07,0.03,-0.04
2020-08-12 19:7:40.7510,0.32,-0.29,0.15
2020-08-12 19:7:40.8500,0.78,-0.04,0.34
2020-08-12 19:7:40.9490,0.63,-0.1,0.07
2020-08-12 19:7:41.0480,0.34,-0.39,0.01
2020-08-12 19:7:41.1470,0.21,-0.02,0.09
2020-08-12 19:7:41.2470,0.07,-0.0,-0.01
2020-08-12 19:7:41.3460,-0.08,-0.02,-0.02
2020-08-12 19:7:41.4450,0.02,0.01,0.07
2020-08-12 19:7:41.5450,-0.07,0.05,0.03
2020-08-12 19:7:41.6440,-0.02,-0.04,-0.05
2020-08-12 19:7:41.7430,0.03,-0.04,0.01
2020-08-12 19:7:41.8430,-0.12,-0.08,0.03
2020-08-12 19:7:41.9420,-0.28,-0.31,-0.05
2020-08-12 19:7:42.0410,-0.39,-0.45,0.14
2020-08-12 19:7:42.1400,-0.3,-0.1,0.19
2020-08-12 19:7:42.2390,-0.4,0.14,-0.02
2020-08-12 19:7:42.3390,-0.06,0.02,-0.04
2020-08-12 19:7:42.4380,0.26,-0.2,0.07
2020-08-12 19:7:42.5380,0.75,-0.08,0.26
2020-08-12 19:7:42.6370,0.77,0.15,0.17
2020-08-12 19:7:42.7360,-0.25,-0.18,0.33
2020-08-12 19:7:42.8350,0.37,0.07,-0.03
2020-08-12 19:7:42.9340,-0.19,0.06,0.16
2020-08-12 19:7:43.0340,0.04,-0.0,0.08
2020-08-12 19:7:43.1330,-0.04,0.02,-0.07
2020-08-12 19:7:43.2320,0.09,0.01,0.03
2020-08-12 19:7:43.3310,-0.02,-0.0,0.01
2020-08-12 19:7:43.4310,-0.05,-0.01,0.01
2020-08-12 19:7:43.5300,-0.17,-0.09,0.01
2020-08-12 19:7:43.6290,-0.48,-0.44,0.11
2020-08-12 19:7:43.7280,-0.5,-0.56,0.14
2020-08-12 19:7:43.8280,-0.23,0.02,0.31
2020-08-12 19:7:43.9270,-0.41,0.14,-0.02
2020-08-12 19:7:44.0260,0.04,0.04,0.02
2020-08-12 19:7:44.1260,0.38,-0.21,0.13
2020-08-12 19:7:44.2250,0.86,-0.15,0.28
2020-08-12 19:7:44.3240,0.74,0.09,0.1
2020-08-12 19:7:44.4240,-1.26,-0.31,-0.13
2020-08-12 19:7:44.5220,0.37,0.44,0.03
2020-08-12 19:7:44.6220,-0.31,0.05,-0.01
2020-08-12 19:7:44.7210,-0.11,-0.03,0.03
2020-08-12 19:7:44.8200,-0.01,-0.0,0.02
2020-08-12 19:7:44.9190,-0.02,-0.03,0.01
2020-08-12 19:7:45.0190,0.0,-0.01,-0.01
2020-08-12 19:7:45.1180,-0.04,-0.06,0.02
2020-08-12 19:7:45.2170,-0.14,-0.21,-0.03
2020-08-12 19:7:45.3170,-0.48,-0.36,0.01
2020-08-12 19:7:45.4160,-0.52,-0.64,0.24
2020-08-12 19:7:45.5150,-0.53,-0.15,-0.17
2020-08-12 19:7:45.6140,-0.28,0.11,0.01
2020-08-12 19:7:45.7140,-0.05,0.04,0.01
2020-08-12 19:7:45.8130,0.34,-0.24,0.18
2020-08-12 19:7:45.9120,0.96,0.02,0.16
2020-08-12 19:7:46.0110,0.59,0.12,0.14
2020-08-12 19:7:46.1110,-1.25,-0.27,-0.3
2020-08-12 19:7:46.2100,0.2,0.15,0.03
2020-08-12 19:7:46.3090,-0.25,-0.08,0.09
2020-08-12 19:7:46.4080,-0.02,-0.0,-0.01
2020-08-12 19:7:46.5080,0.06,0.0,-0.03
2020-08-12 19:7:46.6070,-0.03,-0.02,-0.04
2020-08-12 19:7:46.7060,-0.04,0.0,0.09
2020-08-12 19:7:46.8060,0.08,-0.09,-0.11
2020-08-12 19:7:46.9050,-0.1,-0.07,0.04
2020-08-12 19:7:47.0040,-0.33,-0.25,0.06
2020-08-12 19:7:47.1030,-0.43,-0.38,-0.05
2020-08-12 19:7:47.2030,-0.55,-0.33,0.19
2020-08-12 19:7:47.3020,-0.41,0.18,0.01
2020-08-12 19:7:47.4020,-0.22,0.09,-0.07
2020-08-12 19:7:47.5000,0.16,-0.22,0.07
2020-08-12 19:7:47.6000,0.72,-0.37,0.32
2020-08-12 19:7:47.6990,0.74,0.14,0.1
2020-08-12 19:7:47.7980,-0.22,-0.34,-0.25
2020-08-12 19:7:47.8970,0.4,-0.49,-0.04
2020-08-12 19:7:47.9970,0.1,-0.35,0.03
2020-08-12 19:7:48.0960,0.29,-0.06,0.01
2020-08-12 19:7:48.1950,0.07,-0.0,-0.01
2020-08-12 19:7:48.2940,0.04,-0.01,-0.0
2020-08-12 19:7:48.3940,-0.04,-0.05,0.07
2020-08-12 19:7:48.4930,-0.26,-0.0,0.02
2020-08-12 19:7:48.5920,-0.2,-0.48,0.04
2020-08-12 19:7:48.6920,-0.36,-0.43,-0.03
2020-08-12 19:7:48.7910,-0.51,-0.15,0.11
2020-08-12 19:7:48.8900,-0.51,0.23,0.06
2020-08-12 19:7:48.9890,-0.07,-0.04,-0.23
2020-08-12 19:7:49.0890,0.18,-0.32,-0.1
2020-08-12 19:7:49.1880,0.96,-0.14,0.5
2020-08-12 19:7:49.2870,0.95,-0.01,0.27
2020-08-12 19:7:49.3870,0.57,-0.25,0.31
2020-08-12 19:7:49.4860,0.19,-0.15,0.0
2020-08-12 19:7:49.5850,0.13,0.03,0.06
2020-08-12 19:7:49.6840,0.05,0.0,0.01
2020-08-12 19:7:49.7830,0.0,0.01,-0.02
2020-08-12 19:7:49.8830,-0.01,-0.02,-0.03
2020-08-12 19:7:49.9820,-0.05,-0.04,-0.04
2020-08-12 19:7:50.0810,-0.25,-0.04,0.03
2020-08-12 19:7:50.1800,-0.26,-0.3,-0.0
2020-08-12 19:7:50.2800,-0.31,-0.65,0.04
2020-08-12 19:7:50.3790,-0.05,0.08,0.42
2020-08-12 19:7:50.4780,-0.64,0.24,-0.16
2020-08-12 19:7:50.5770,-0.01,-0.17,0.09
2020-08-12 19:7:50.6770,0.43,-0.29,0.2
2020-08-12 19:7:50.7760,0.57,0.01,0.11
2020-08-12 19:7:50.8750,0.57,0.1,0.17
2020-08-12 19:7:50.9750,-0.36,-0.25,-0.41
2020-08-12 19:7:51.0740,0.16,-0.31,-0.12
2020-08-12 19:7:51.1730,-0.1,-0.35,0.03
2020-08-12 19:7:51.2720,0.06,-0.0,0.06
2020-08-12 19:7:51.3720,-0.04,0.01,0.03
2020-08-12 19:7:51.4710,-0.0,-0.02,0.02
2020-08-12 19:7:51.5700,-0.06,-0.01,0.02
2020-08-12 19:7:51.6690,0.01,-0.06,0.02
2020-08-12 19:7:51.7690,-0.22,-0.05,0.0
2020-08-12 19:7:51.8680,-0.3,-0.33,0.02
2020-08-12 19:7:51.9680,-0.22,-0.43,-0.09
2020-08-12 19:7:52.0660,-0.6,-0.12,0.26
2020-08-12 19:7:52.1660,-0.49,0.23,-0.12
2020-08-12 19:7:52.2650,0.07,-0.24,-0.05
2020-08-12 19:7:52.3640,0.17,-0.22,0.06
2020-08-12 19:7:52.4630,0.81,-0.29,0.17
2020-08-12 19:7:52.5630,0.83,0.17,0.16
2020-08-12 19:7:52.6620,-0.72,-0.2,0.17
2020-08-12 19:7:52.7610,0.53,0.23,0.01
2020-08-12 19:7:52.8600,-0.15,-0.04,0.06
2020-08-12 19:7:52.9600,0.26,-0.05,-0.07
2020-08-12 19:7:53.0590,0.01,-0.01,0.05
2020-08-12 19:7:53.1580,-0.1,0.02,0.04
2020-08-12 19:7:53.2580,0.02,-0.06,-0.09
2020-08-12 19:7:53.3570,-0.09,0.02,0.01
2020-08-12 19:7:53.4560,-0.18,-0.18,0.05
2020-08-12 19:7:53.5550,-0.49,-0.39,0.06
2020-08-12 19:7:53.6550,-0.66,-0.65,0.1
2020-08-12 19:7:53.7540,-0.75,-0.04,-0.24
2020-08-12 19:7:53.8530,-0.37,0.11,0.0
2020-08-12 19:7:53.9520,0.02,-0.05,0.04
2020-08-12 19:7:54.0520,0.64,-0.55,0.27
2020-08-12 19:7:54.1510,0.81,0.21,0.23
2020-08-12 19:7:54.2500,-1.03,-0.61,-0.77
2020-08-12 19:7:54.3490,0.62,-0.45,-0.18
2020-08-12 19:7:54.4490,0.07,-0.26,0.07
2020-08-12 19:7:54.5490,0.12,-0.02,0.02
2020-08-12 19:7:54.6470,0.04,-0.01,0.05
2020-08-12 19:7:54.7460,0.0,-0.01,0.02
2020-08-12 19:7:54.8460,-0.14,0.03,-0.03
2020-08-12 19:7:54.9450,-0.1,-0.02,0.0
2020-08-12 19:7:55.0440,-0.05,-0.24,-0.02
2020-08-12 19:7:55.1430,-0.44,-0.37,0.04
2020-08-12 19:7:55.2430,-0.58,-0.57,0.17
2020-08-12 19:7:55.3420,-0.36,-0.07,0.1
2020-08-12 19:7:55.4410,-0.44,0.06,-0.06
2020-08-12 19:7:55.5400,-0.02,-0.04,-0.02
2020-08-12 19:7:55.6400,0.3,-0.22,0.15
2020-08-12 19:7:55.7390,1.08,0.01,0.4
2020-08-12 19:7:55.8380,0.81,0.03,0.08
2020-08-12 19:7:55.9370,0.75,-0.38,0.43
2020-08-12 19:7:56.0370,0.39,0.26,0.08
2020-08-12 19:7:56.1360,-0.26,0.17,0.13
2020-08-12 19:7:56.2350,0.06,-0.04,-0.08
2020-08-12 19:7:56.3350,0.04,-0.01,-0.01
2020-08-12 19:7:56.4340,-0.03,-0.01,-0.0
2020-08-12 19:7:56.5330,-0.02,0.02,0.03
2020-08-12 19:7:56.6320,-0.21,-0.03,0.02
2020-08-12 19:7:56.7320,-0.2,-0.4,-0.04
2020-08-12 19:7:56.8310,-0.42,-0.53,0.06
2020-08-12 19:7:56.9300,-0.66,-0.27,0.19
2020-08-12 19:7:57.0290,-0.51,0.11,-0.02
2020-08-12 19:7:57.1290,-0.25,0.09,-0.1
2020-08-12 19:7:57.2280,0.34,-0.32,0.07
2020-08-12 19:7:57.3270,0.98,-0.11,0.34
2020-08-12 19:7:57.4260,0.91,0.11,0.2
2020-08-12 19:7:57.5260,0.35,-0.12,0.38
2020-08-12 19:7:57.6250,0.55,-0.05,0.06
2020-08-12 19:7:57.7240,-0.15,0.06,0.08
2020-08-12 19:7:57.8240,-0.06,-0.01,0.03
2020-08-12 19:7:57.9230,-0.06,-0.03,-0.04
2020-08-12 19:7:58.0220,0.02,-0.03,0.01
2020-08-12 19:7:58.1210,-0.15,0.03,0.01
2020-08-12 19:7:58.2210,-0.21,-0.21,0.04
2020-08-12 19:7:58.3200,-0.48,-0.5,-0.04
2020-08-12 19:7:58.4190,-0.62,-0.55,0.19
2020-08-12 19:7:58.5180,-0.72,0.01,-0.16
2020-08-12 19:7:58.6180,-0.44,0.17,-0.01
2020-08-12 19:7:58.7170,0.1,-0.28,0.04
2020-08-12 19:7:58.8160,1.01,-0.52,0.12
2020-08-12 19:7:58.9150,1.1,0.14,0.19
2020-08-12 19:7:59.0150,0.0,-0.28,0.42
2020-08-12 19:7:59.1140,0.66,0.0,-0.02
2020-08-12 19:7:59.2130,-0.33,0.16,0.14
2020-08-12 19:7:59.3130,-0.1,-0.01,0.08
2020-08-12 19:7:59.4120,0.03,0.0,-0.01
2020-08-12 19:7:59.5110,0.0,-0.03,-0.0
2020-08-12 19:7:59.6100,-0.17,-0.0,0.01
2020-08-12 19:7:59.7100,-0.18,-0.27,0.03
2020-08-12 19:7:59.8090,-0.63,-0.48,0.06
2020-08-12 19:7:59.9080,-0.49,-0.54,0.36
2020-08-12 19:8:00.0070,-0.59,0.1,-0.11
2020-08-12 19:8:00.1070,-0.43,0.17,-0.01
2020-08-12 19:8:00.2060,0.19,-0.29,0.06
2020-08-12 19:8:00.3050,1.1,-0.44,0.22
2020-08-12 19:8:00.4040,0.83,0.12,0.11
2020-08-12 19:8:00.5040,-0.74,-0.69,-0.6
2020-08-12 19:8:00.6030,0.49,-0.21,0.3
2020-08-12 19:8:00.7020,0.08,-0.02,0.06
2020-08-12 19:8:00.8010,0.29,-0.02,-0.03
2020-08-12 19:8:00.9010,-0.05,0.04,-0.01
2020-08-12 19:8:01.0000,0.02,-0.01,-0.0
2020-08-12 19:8:01.0990,-0.15,0.1,-0.02
2020-08-12 19:8:01.1980,0.08,-0.25,-0.03
2020-08-12 19:8:01.2980,-0.38,-0.28,0.05
2020-08-12 19:8:01.3970,-0.45,-0.49,0.03
2020-08-12 19:8:01.4960,-0.4,-0.16,0.27
2020-08-12 19:8:01.5950,-0.6,0.2,-0.11
2020-08-12 19:8:01.6950,0.13,-0.14,-0.02
2020-08-12 19:8:01.7940,0.39,-0.21,0.21
2020-08-12 19:8:01.8930,0.75,-0.11,0.21
2020-08-12 19:8:01.9920,0.82,0.2,0.13
2020-08-12 19:8:02.0920,0.52,-0.19,0.37
2020-08-12 19:8:02.1910,0.24,0.06,0.14
2020-08-12 19:8:02.2900,-0.16,0.04,-0.03
2020-08-12 19:8:02.3890,-0.09,-0.05,0.01
2020-08-12 19:8:02.4890,-0.05,0.0,-0.01
2020-08-12 19:8:02.5880,-0.05,0.06,0.07
2020-08-12 19:8:02.6870,-0.01,-0.11,-0.04
2020-08-12 19:8:02.7870,-0.22,-0.25,0.02
2020-08-12 19:8:02.8860,-0.48,-0.49,-0.07
2020-08-12 19:8:02.9850,-0.63,-0.55,0.08
2020-08-12 19:8:03.0840,-0.71,0.0,-0.22
2020-08-12 19:8:03.1840,-0.43,0.05,0.01
2020-08-12 19:8:03.2830,0.13,-0.19,0.01
2020-08-12 19:8:03.3820,1.04,-0.61,0.32
2020-08-12 19:8:03.4810,0.97,0.21,0.12
2020-08-12 19:8:03.5810,-1.46,-0.49,-0.66
2020-08-12 19:8:03.6800,0.52,0.06,-0.04
2020-08-12 19:8:03.7790,-0.19,-0.25,0.1
2020-08-12 19:8:03.8780,0.03,-0.03,0.05
2020-08-12 19:8:03.9780,-0.1,0.03,-0.02
2020-08-12 19:8:04.0770,0.0,0.03,0.05
2020-08-12 19:8:04.1760,0.03,-0.03,0.01
2020-08-12 19:8:04.2760,-0.15,0.02,0.01
2020-08-12 19:8:04.3750,-0.13,-0.33,-0.01
2020-08-12 19:8:04.4740,-0.44,-0.48,-0.07
2020-08-12 19:8:04.5730,-0.65,-0.57,0.14
2020-08-12 19:8:04.6730,-0.33,-0.09,0.01
2020-08-12 19:8:04.7720,-0.47,0.12,-0.1
2020-08-12 19:8:04.8710,0.11,-0.1,-0.11
2020-08-12 19:8:04.9700,0.75,-0.64,0.21
2020-08-12 19:8:05.0690,0.93,0.14,0.31
2020-08-12 19:8:05.1690,-1.18,-0.43,-0.26
2020-08-12 19:8:05.2680,0.11,0.25,0.15
2020-08-12 19:8:05.3670,-0.22,-0.03,-0.01
2020-08-12 19:8:05.4670,0.14,-0.04,-0.08
2020-08-12 19:8:05.5660,0.07,0.01,-0.02
2020-08-12 19:8:05.6650,-0.03,-0.0,0.02
2020-08-12 19:8:05.7640,-0.1,0.01,-0.03
2020-08-12 19:8:05.8640,-0.2,-0.05,-0.02
2020-08-12 19:8:05.9630,-0.33,-0.44,-0.0
2020-08-12 19:8:06.0620,-0.28,-0.49,0.15
2020-08-12 19:8:06.1620,-0.39,-0.13,0.12
2020-08-12 19:8:06.2610,-0.5,0.12,-0.01
2020-08-12 19:8:06.3600,0.07,-0.11,-0.07
2020-08-12 19:8:06.4590,0.53,-0.49,0.07
2020-08-12 19:8:06.5590,0.72,-0.06,0.27
2020-08-12 19:8:06.6580,0.86,0.1,0.24
2020-08-12 19:8:06.7570,0.59,-0.42,0.1
2020-08-12 19:8:06.8560,0.19,-0.18,0.07
2020-08-12 19:8:06.9550,0.05,0.08,0.05
2020-08-12 19:8:07.0550,-0.15,0.05,0.09
2020-08-12 19:8:07.1540,-0.01,-0.03,-0.02
2020-08-12 19:8:07.2530,-0.08,0.01,0.03
2020-08-12 19:8:07.3530,0.01,0.02,-0.03
2020-08-12 19:8:07.4520,-0.39,-0.14,0.1
2020-08-12 19:8:07.5510,-0.48,-0.51,-0.04
2020-08-12 19:8:07.6500,-0.62,-0.57,0.21
2020-08-12 19:8:07.7500,-0.58,0.14,-0.15
2020-08-12 19:8:07.8490,-0.36,0.22,-0.05
2020-08-12 19:8:07.9480,0.23,-0.29,0.1
2020-08-12 19:8:08.0470,1.08,-0.4,0.32
2020-08-12 19:8:08.1470,1.01,0.07,0.2
2020-08-12 19:8:08.2460,0.48,-0.28,0.06
2020-08-12 19:8:08.3450,0.21,-0.1,0.16
2020-08-12 19:8:08.4450,0.01,0.03,0.05
2020-08-12 19:8:08.5440,0.05,-0.02,-0.05
2020-08-12 19:8:08.6430,-0.0,-0.01,0.02
2020-08-12 19:8:08.7420,-0.0,0.01,0.03
2020-08-12 19:8:08.8420,-0.21,0.02,-0.02
2020-08-12 19:8:08.9410,-0.2,-0.43,0.03
2020-08-12 19:8:09.0400,-0.47,-0.6,0.04
2020-08-12 19:8:09.1390,-0.56,-0.05,0.26
2020-08-12 19:8:09.2390,-0.47,0.16,-0.16
2020-08-12 19:8:09.3380,-0.17,0.06,-0.2
2020-08-12 19:8:09.4370,0.73,-0.95,0.35
2020-08-12 19:8:09.5360,1.23,0.3,0.23
2020-08-12 19:8:09.6360,-1.97,-0.68,-1.31
2020-08-12 19:8:09.7350,0.47,0.05,0.02
2020-08-12 19:8:09.8340,-0.06,-0.22,0.13
2020-08-12 19:8:09.9330,0.21,-0.04,0.02
2020-08-12 19:8:10.0330,-0.19,0.07,0.15
2020-08-12 19:8:10.1320,-0.01,-0.06,0.03
2020-08-12 19:8:10.2310,-0.06,0.01,-0.01
2020-08-12 19:8:10.3300,-0.22,-0.03,0.02
2020-08-12 19:8:10.4300,-0.21,-0.43,-0.06
2020-08-12 19:8:10.5290,-0.46,-0.53,0.14
2020-08-12 19:8:10.6280,-0.38,-0.01,0.34
2020-08-12 19:8:10.7270,-0.43,0.26,-0.05
2020-08-12 19:8:10.8270,-0.05,-0.04,-0.08
2020-08-12 19:8:10.9260,0.78,-0.78,0.29
2020-08-12 19:8:11.0250,0.85,0.1,0.11
2020-08-12 19:8:11.1250,-0.06,-0.67,-0.73
2020-08-12 19:8:11.2240,0.23,-0.36,0.38
2020-08-12 19:8:11.3230,0.14,-0.21,0.04
2020-08-12 19:8:11.4220,0.31,0.01,0.09
2020-08-12 19:8:11.5210,-0.09,0.04,0.08
2020-08-12 19:8:11.6210,-0.05,0.02,0.05
2020-08-12 19:8:11.7200,-0.06,0.0,0.0
2020-08-12 19:8:11.8190,-0.13,-0.02,0.04
2020-08-12 19:8:11.9190,-0.24,-0.34,0.06
2020-08-12 19:8:12.0180,-0.44,-0.43,-0.04
2020-08-12 19:8:12.1170,-0.69,-0.32,0.17
2020-08-12 19:8:12.2160,-0.57,0.16,-0.02
2020-08-12 19:8:12.3160,-0.03,-0.03,-0.09
2020-08-12 19:8:12.4150,0.16,-0.1,0.0
2020-08-12 19:8:12.5140,0.57,-0.25,0.17
2020-08-12 19:8:12.6130,0.97,0.18,0.27
2020-08-12 19:8:12.7130,-0.96,-0.3,-0.28
2020-08-12 19:8:12.8120,0.32,-0.15,0.12
2020-08-12 19:8:12.9110,-0.27,-0.05,0.15
2020-08-12 19:8:13.0100,-0.03,-0.02,-0.01
2020-08-12 19:8:13.1100,0.02,-0.01,-0.05
2020-08-12 19:8:13.2090,0.04,-0.02,-0.01
2020-08-12 19:8:13.3080,-0.09,0.02,0.0
2020-08-12 19:8:13.4080,-0.05,-0.24,-0.07
2020-08-12 19:8:13.5070,-0.55,-0.33,0.07
2020-08-12 19:8:13.6060,-0.34,-0.36,0.01
2020-08-12 19:8:13.7050,-0.92,-0.14,-0.01
2020-08-12 19:8:13.8040,-0.25,-0.07,0.02
2020-08-12 19:8:13.9040,0.19,-0.09,0.07
2020-08-12 19:8:14.0030,0.69,-0.25,0.16
2020-08-12 19:8:14.1030,0.91,0.05,0.22
2020-08-12 19:8:14.2020,-0.44,-0.59,-0.49
2020-08-12 19:8:14.3010,0.43,-0.1,0.1
2020-08-12 19:8:14.4000,0.02,-0.05,0.08
2020-08-12 19:8:14.4990,0.1,-0.02,-0.01
2020-08-12 19:8:14.5990,0.05,0.01,0.01
2020-08-12 19:8:14.6980,-0.03,0.01,0.03
2020-08-12 19:8:14.7970,-0.17,0.05,0.01
2020-08-12 19:8:14.8970,-0.07,-0.14,0.06
2020-08-12 19:8:14.9960,-0.3,-0.33,0.02
2020-08-12 19:8:15.0950,-0.52,-0.56,-0.05
2020-08-12 19:8:15.1940,-0.32,-0.06,0.39
2020-08-12 19:8:15.2930,-0.63,0.11,-0.04
2020-08-12 19:8:15.3930,0.14,-0.02,0.01
2020-08-12 19:8:15.4920,0.19,-0.24,0.21
2020-08-12 19:8:15.5910,0.93,-0.18,0.23
2020-08-12 19:8:15.6900,0.84,0.17,0.15
2020-08-12 19:8:15.7900,-0.16,-0.2,0.27
2020-08-12 19:8:15.8890,0.39,0.03,0.05
2020-08-12 19:8:15.9880,-0.27,0.08,0.08
2020-08-12 19:8:16.0870,-0.01,-0.01,0.0
2020-08-12 19:8:16.1870,0.01,0.01,0.01
2020-08-12 19:8:16.2860,0.01,-0.02,0.04
2020-08-12 19:8:16.3860,-0.16,0.06,0.0
2020-08-12 19:8:16.4850,-0.07,-0.12,-0.01
2020-08-12 19:8:16.5840,-0.33,-0.47,0.02
2020-08-12 19:8:16.6830,-0.45,-0.42,0.25
2020-08-12 19:8:16.7820,-0.57,-0.17,-0.04
2020-08-12 19:8:16.8820,-0.56,0.15,0.0
2020-08-12 19:8:16.9810,0.07,-0.09,0.05
2020-08-12 19:8:17.0800,0.54,-0.5,0.13
2020-08-12 19:8:17.1790,0.99,0.06,0.19
2020-08-12 19:8:17.2790,0.5,-0.28,-0.01
2020-08-12 19:8:17.3780,0.63,-0.31,0.2
2020-08-12 19:8:17.4770,0.02,-0.22,0.11
2020-08-12 19:8:17.5770,0.33,-0.02,-0.07
2020-08-12 19:8:17.6760,0.0,0.04,0.04
2020-08-12 19:8:17.7750,-0.09,-0.0,-0.01
2020-08-12 19:8:17.8740,0.01,-0.02,-0.03
2020-08-12 19:8:17.9740,-0.18,-0.05,0.02
2020-08-12 19:8:18.0730,-0.31,-0.37,-0.02
2020-08-12 19:8:18.1720,-0.44,-0.7,0.03
2020-08-12 19:8:18.2720,-0.45,0.01,0.43
2020-08-12 19:8:18.3700,-0.45,0.26,0.02
2020-08-12 19:8:18.4700,0.01,0.1,-0.13
2020-08-12 19:8:18.5690,0.63,-0.52,0.11
2020-08-12 19:8:18.6680,0.62,0.13,0.19
2020-08-12 19:8:18.7670,0.54,0.15,0.24
2020-08-12 19:8:18.8670,0.16,-0.38,0.09
2020-08-12 19:8:18.9660,0.44,-0.18,0.12
2020-08-12 19:8:19.0650,0.12,0.06,0.11
2020-08-12 19:8:19.1650,0.04,-0.01,-0.06
2020-08-12 19:8:19.2640,-0.08,0.01,0.01
2020-08-12 19:8:19.3630,0.12,-0.05,0.01
2020-08-12 19:8:19.4620,-0.21,0.06,0.04
2020-08-12 19:8:19.5620,-0.16,-0.42,-0.12
2020-08-12 19:8:19.6610,-0.52,-0.45,-0.05
2020-08-12 19:8:19.7600,-0.44,-0.54,0.14
2020-08-12 19:8:19.8590,-0.52,0.04,-0.08
2020-08-12 19:8:19.9590,-0.25,0.14,-0.02
2020-08-12 19:8:20.0580,0.18,-0.13,-0.06
2020-08-12 19:8:20.1570,0.59,-0.36,0.19
2020-08-12 19:8:20.2560,0.91,0.14,0.09
2020-08-12 19:8:20.3560,-0.02,-0.58,0.33
2020-08-12 19:8:20.4550,0.39,-0.18,0.05
2020-08-12 19:8:20.5540,0.08,0.16,0.28
2020-08-12 19:8:20.6530,0.03,0.0,-0.05
2020-08-12 19:8:20.7530,-0.04,0.02,0.02
2020-08-12 19:8:20.8520,0.07,-0.05,-0.04
2020-08-12 19:8:20.9520,-0.29,0.08,-0.02
2020-08-12 19:8:21.0510,-0.15,-0.3,0.05
2020-08-12 19:8:21.1500,-0.53,-0.54,0.02
2020-08-12 19:8:21.2490,-0.52,-0.51,0.25
2020-08-12 19:8:21.3480,-0.63,0.08,-0.04
2020-08-12 19:8:21.4480,-0.27,-0.02,-0.1
2020-08-12 19:8:21.5470,0.33,-0.57,0.13
2020-08-12 19:8:21.6460,1.12,-0.02,0.34
2020-08-12 19:8:21.7450,0.84,0.11,0.21
2020-08-12 19:8:21.8450,0.26,-0.41,0.42
2020-08-12 19:8:21.9440,0.37,0.09,-0.03
2020-08-12 19:8:22.0430,0.02,0.09,0.07
2020-08-12 19:8:22.1420,-0.05,-0.02,0.06
2020-08-12 19:8:22.2420,-0.11,0.03,0.06
2020-08-12 19:8:22.3410,0.07,-0.06,-0.1
2020-08-12 19:8:22.4400,-0.15,-0.01,-0.01
2020-08-12 19:8:22.5390,-0.11,-0.35,-0.07
2020-08-12 19:8:22.6390,-0.58,-0.51,-0.03
2020-08-12 19:8:22.7380,-0.65,-0.4,0.28
2020-08-12 19:8:22.8370,-0.48,0.08,-0.14
2020-08-12 19:8:22.9370,-0.28,0.07,-0.07
2020-08-12 19:8:23.0360,0.29,-0.29,0.03
2020-08-12 19:8:23.1350,1.03,-0.31,0.39
2020-08-12 19:8:23.2340,1.04,0.25,0.34
2020-08-12 19:8:23.3340,-1.07,-0.0,0.28
2020-08-12 19:8:23.4330,0.65,-0.07,-0.07
2020-08-12 19:8:23.5320,-0.43,0.0,0.18
2020-08-12 19:8:23.6310,0.09,-0.01,-0.04
2020-08-12 19:8:23.7310,-0.05,0.06,0.14
2020-08-12 19:8:23.8300,-0.01,-0.0,0.01
2020-08-12 19:8:23.9290,-0.16,0.03,-0.05
2020-08-12 19:8:24.0280,-0.16,-0.04,0.03
2020-08-12 19:8:24.1280,-0.39,-0.27,0.04
2020-08-12 19:8:24.2270,-0.51,-0.53,0.09
2020-08-12 19:8:24.3260,-0.35,-0.01,0.21
2020-08-12 19:8:24.4260,-0.48,0.11,-0.11
2020-08-12 19:8:24.5250,-0.01,-0.04,-0.17
2020-08-12 19:8:24.6240,0.37,-0.68,0.19
2020-08-12 19:8:24.7230,1.09,0.14,0.34
2020-08-12 19:8:24.8230,-0.94,-0.69,-0.88
2020-08-12 19:8:24.9220,0.15,-0.02,-0.11
2020-08-12 19:8:25.0210,-0.33,-0.2,0.14
2020-08-12 19:8:25.1200,0.21,-0.01,-0.06
2020-08-12 19:8:25.2190,-0.02,-0.01,0.04
2020-08-12 19:8:25.3190,0.0,-0.06,-0.01
2020-08-12 19:8:25.4180,-0.12,0.02,0.03
2020-08-12 19:8:25.5170,-0.28,-0.15,0.08
2020-08-12 19:8:25.6170,-0.47,-0.47,0.05
2020-08-12 19:8:25.7160,-0.32,-0.47,0.15
2020-08-12 19:8:25.8150,-0.69,-0.1,-0.16
2020-08-12 19:8:25.9140,-0.4,0.1,-0.09
2020-08-12 19:8:26.0140,0.15,-0.21,0.01
2020-08-12 19:8:26.1130,0.66,-0.63,0.34
2020-08-12 19:8:26.2120,0.72,0.09,0.23
2020-08-12 19:8:26.3120,0.43,-0.03,0.1
2020-08-12 19:8:26.4110,0.68,-0.39,0.35
2020-08-12 19:8:26.5100,0.31,-0.19,-0.01
2020-08-12 19:8:26.6090,0.27,0.04,0.04
2020-08-12 19:8:26.7080,-0.01,0.02,0.09
2020-08-12 19:8:26.8080,-0.0,-0.04,-0.05
2020-08-12 19:8:26.9070,-0.13,0.01,-0.03
2020-08-12 19:8:27.0070,-0.17,-0.05,-0.05
2020-08-12 19:8:27.1060,-0.26,-0.3,0.02
2020-08-12 19:8:27.2050,-0.38,-0.48,-0.0
2020-08-12 19:8:27.3040,-0.56,-0.27,0.23
2020-08-12 19:8:27.4030,-0.65,0.07,-0.09
2020-08-12 19:8:27.5030,-0.01,-0.05,-0.08
2020-08-12 19:8:27.6020,0.42,-0.65,0.32
2020-08-12 19:8:27.7010,1.12,0.15,0.33
2020-08-12 19:8:27.8000,0.55,-0.19,0.12
2020-08-12 19:8:27.9000,0.58,-0.44,0.09
2020-08-12 19:8:27.9990,0.2,-0.14,0.2
2020-08-12 19:8:28.0980,0.17,-0.04,0.0
2020-08-12 19:8:28.1970,-0.14,0.03,0.14
2020-08-12 19:8:28.2970,0.09,-0.06,0.0
2020-08-12 19:8:28.3960,-0.12,-0.05,-0.06
2020-08-12 19:8:28.4950,-0.14,-0.14,-0.01
2020-08-12 19:8:28.5940,-0.36,-0.24,0.07
2020-08-12 19:8:28.6940,-0.42,-0.26,0.08
2020-08-12 19:8:28.7930,-0.51,-0.22,0.08
2020-08-12 19:8:28.8920,-0.63,0.1,-0.12
2020-08-12 19:8:28.9910,-0.11,0.06,-0.07
2020-08-12 19:8:29.0910,0.24,-0.32,0.07
2020-08-12 19:8:29.1900,1.06,0.0,0.4
2020-08-12 19:8:29.2890,0.47,-0.36,-0.06
2020-08-12 19:8:29.3890,0.17,-0.26,0.14
2020-08-12 19:8:29.4880,0.12,-0.03,0.14
2020-08-12 19:8:29.5870,0.21,-0.02,0.02
2020-08-12 19:8:29.6860,-0.0,0.01,0.05
2020-08-12 19:8:29.7850,0.04,-0.04,0.02
2020-08-12 19:8:29.8850,-0.15,0.01,-0.03
2020-08-12 19:8:29.9840,-0.05,-0.02,-0.03
2020-08-12 19:8:30.0830,-0.21,-0.26,0.05
2020-08-12 19:8:30.1830,-0.46,-0.47,-0.02
2020-08-12 19:8:30.2820,-0.71,-0.37,0.17
2020-08-12 19:8:30.3810,-0.55,0.06,-0.05
2020-08-12 19:8:30.4800,-0.32,0.06,-0.02
2020-08-12 19:8:30.5800,0.22,-0.21,0.09
2020-08-12 19:8:30.6790,0.84,-0.31,0.25
2020-08-12 19:8:30.7780,0.7,0.14,0.03
2020-08-12 19:8:30.8770,-0.82,-0.19,-0.17
2020-08-12 19:8:30.9770,0.48,-0.02,0.01
2020-08-12 19:8:31.0760,-0.3,-0.02,0.2
2020-08-12 19:8:31.1750,0.09,-0.03,0.01
2020-08-12 19:8:31.2740,-0.06,0.03,-0.02
2020-08-12 19:8:31.3740,0.08,-0.02,0.05
2020-08-12 19:8:31.4730,-0.08,0.01,-0.03
2020-08-12 19:8:31.5720,-0.31,-0.02,0.05
2020-08-12 19:8:31.6720,-0.27,-0.34,-0.02
2020-08-12 19:8:31.7710,-0.38,-0.61,-0.06
2020-08-12 19:8:31.8700,-0.47,-0.05,0.16
2020-08-12 19:8:31.9700,-0.34,0.21,-0.1
2020-08-12 19:8:32.0690,-0.13,-0.04,-0.05
2020-08-12 19:8:32.1680,0.4,-0.47,0.19
2020-08-12 19:8:32.2670,0.82,0.03,0.32
2020-08-12 19:8:32.3670,0.71,0.05,0.07
2020-08-12 19:8:32.4660,0.49,-0.21,0.56
2020-08-12 19:8:32.5650,0.42,0.09,0.05
2020-08-12 19:8:32.6640,-0.19,0.1,0.04
2020-08-12 19:8:32.7630,0.04,-0.04,-0.04
2020-08-12 19:8:32.8630,0.05,-0.01,-0.0
2020-08-12 19:8:32.9620,0.03,-0.04,-0.05
2020-08-12 19:8:33.0610,-0.07,-0.02,0.0
2020-08-12 19:8:33.1610,-0.14,-0.12,-0.01
2020-08-12 19:8:33.2600,-0.41,-0.3,0.02
2020-08-12 19:8:33.3590,-0.32,-0.42,0.0
2020-08-12 19:8:33.4580,-0.61,-0.08,-0.06
2020-08-12 19:8:33.5570,-0.61,0.08,0.05
2020-08-12 19:8:33.6570,0.17,-0.27,0.03
2020-08-12 19:8:33.7560,0.37,-0.39,0.15
2020-08-12 19:8:33.8550,0.77,-0.0,0.21
2020-08-12 19:8:33.9550,0.59,-0.26,0.14
2020-08-12 19:8:34.0540,0.28,-0.13,0.32
2020-08-12 19:8:34.1530,0.16,-0.04,0.05
2020-08-12 19:8:34.2520,0.17,-0.02,0.02
2020-08-12 19:8:34.3520,-0.06,-0.0,0.01
2020-08-12 19:8:34.4510,-0.01,-0.02,-0.04
2020-08-12 19:8:34.5500,0.02,-0.03,0.02
2020-08-12 19:8:34.6490,-0.13,0.04,-0.02
2020-08-12 19:8:34.7490,-0.0,-0.24,0.08
2020-08-12 19:8:34.8480,-0.5,-0.27,0.02
2020-08-12 19:8:34.9470,-0.38,-0.39,0.07
2020-08-12 19:8:35.0460,-0.77,-0.11,-0.17
2020-08-12 19:8:35.1460,-0.43,-0.04,0.08
2020-08-12 19:8:35.2450,0.27,-0.13,0.01
2020-08-12 19:8:35.3440,0.45,-0.31,0.06
2020-08-12 19:8:35.4440,1.08,0.03,0.3
2020-08-12 19:8:35.5430,0.4,-0.31,0.04
2020-08-12 19:8:35.6420,0.58,-0.33,-0.09
2020-08-12 19:8:35.7410,0.11,-0.09,0.16
2020-08-12 19:8:35.8400,0.2,0.03,0.1
2020-08-12 19:8:35.9400,-0.14,0.03,0.1
2020-08-12 19:8:36.0390,-0.04,0.01,0.08
2020-08-12 19:8:36.1380,-0.04,0.04,0.01
2020-08-12 19:8:36.2380,-0.22,0.0,-0.05
2020-08-12 19:8:36.3370,-0.06,-0.23,0.08
2020-08-12 19:8:36.4360,-0.51,-0.51,-0.01
2020-08-12 19:8:36.5350,-0.72,-0.45,0.07
2020-08-12 19:8:36.6350,-0.64,0.09,-0.08
2020-08-12 19:8:36.7340,-0.56,0.05,0.06
2020-08-12 19:8:36.8330,0.36,-0.38,0.16
2020-08-12 19:8:36.9320,0.87,-0.33,0.2
2020-08-12 19:8:37.0320,0.77,0.09,0.17
2020-08-12 19:8:37.1310,-0.38,-0.56,-0.32
2020-08-12 19:8:37.2300,0.63,-0.42,0.06
2020-08-12 19:8:37.3290,0.0,-0.01,0.15
2020-08-12 19:8:37.4290,0.14,0.02,0.05
2020-08-12 19:8:37.5280,-0.08,0.01,0.08
2020-08-12 19:8:37.6270,-0.02,0.0,0.01
2020-08-12 19:8:37.7260,-0.0,0.01,-0.02
2020-08-12 19:8:37.8260,-0.16,-0.11,0.05
2020-08-12 19:8:37.9250,-0.32,-0.23,0.15
2020-08-12 19:8:38.0240,-0.49,-0.53,-0.09
2020-08-12 19:8:38.1230,-0.68,-0.34,0.2
2020-08-12 19:8:38.2230,-0.57,0.13,0.02
2020-08-12 19:8:38.3220,-0.34,0.08,-0.04
2020-08-12 19:8:38.4210,0.12,-0.22,0.11
2020-08-12 19:8:38.5200,1.17,-0.47,0.17
2020-08-12 19:8:38.6200,0.86,0.12,0.27
2020-08-12 19:8:38.7190,-1.14,-0.24,-0.17
2020-08-12 19:8:38.8180,0.23,0.23,0.02
2020-08-12 19:8:38.9180,-0.4,-0.02,0.11
2020-08-12 19:8:39.0170,0.07,-0.06,-0.02
2020-08-12 19:8:39.1160,0.02,-0.02,-0.0
2020-08-12 19:8:39.2150,-0.09,0.0,-0.05
2020-08-12 19:8:39.3150,0.01,-0.01,-0.02
2020-08-12 19:8:39.4140,-0.14,-0.11,0.02
2020-08-12 19:8:39.5130,-0.41,-0.34,0.08
2020-08-12 19:8:39.6120,-0.42,-0.62,-0.05
2020-08-12 19:8:39.7120,-0.54,-0.25,-0.21
2020-08-12 19:8:39.8110,-0.4,0.13,-0.11
2020-08-12 19:8:39.9100,-0.02,0.01,0.02
2020-08-12 19:8:40.0090,0.46,-0.29,0.19
2020-08-12 19:8:40.1090,0.69,-0.06,0.28
2020-08-12 19:8:40.2090,0.65,0.04,0.04
2020-08-12 19:8:40.3070,0.34,-0.26,0.75
2020-08-12 19:8:40.4060,0.29,0.17,-0.02
2020-08-12 19:8:40.5060,-0.03,0.06,0.03
2020-08-12 19:8:40.6050,0.0,-0.01,0.02
2020-08-12 19:8:40.7040,-0.01,0.02,0.02
2020-08-12 19:8:40.8030,0.02,-0.02,-0.02
2020-08-12 19:8:40.9030,-0.05,0.0,-0.02
2020-08-12 19:8:41.0020,-0.18,-0.04,0.03
2020-08-12 19:8:41.1010,-0.24,-0.33,0.04
2020-08-12 19:8:41.2000,-0.53,-0.57,-0.03
2020-08-12 19:8:41.3000,-0.16,-0.09,0.22
2020-08-12 19:8:41.3990,-0.56,0.27,-0.06
2020-08-12 19:8:41.4980,-0.02,-0.14,0.02
2020-08-12 19:8:41.5980,0.05,-0.06,0.13
2020-08-12 19:8:41.6970,0.8,-0.23,0.19
2020-08-12 19:8:41.7960,0.75,0.13,0.05
2020-08-12 19:8:41.8950,0.66,0.06,0.24
2020-08-12 19:8:41.9940,0.43,-0.39,0.09
2020-08-12 19:8:42.0940,0.32,0.14,0.16
2020-08-12 19:8:42.1930,-0.05,0.1,0.04
2020-08-12 19:8:42.2930,0.02,-0.01,0.03
2020-08-12 19:8:42.3920,0.02,-0.02,-0.01
2020-08-12 19:8:42.4910,-0.08,-0.01,-0.04
2020-08-12 19:8:42.5900,-0.18,0.04,0.05
2020-08-12 19:8:42.6890,-0.11,-0.12,0.04
2020-08-12 19:8:42.7890,-0.26,-0.34,-0.03
2020-08-12 19:8:42.8880,-0.33,-0.51,-0.03
2020-08-12 19:8:42.9870,-0.3,-0.05,0.21
2020-08-12 19:8:43.0860,-0.61,0.12,-0.09
2020-08-12 19:8:43.1860,-0.12,-0.13,0.03
2020-08-12 19:8:43.2850,0.39,-0.29,0.13
2020-08-12 19:8:43.3840,0.88,-0.05,0.3
2020-08-12 19:8:43.4840,0.75,0.14,0.25
2020-08-12 19:8:43.5830,0.03,0.02,0.38
2020-08-12 19:8:43.6820,0.3,0.08,0.08
2020-08-12 19:8:43.7810,-0.31,0.04,0.07
2020-08-12 19:8:43.8800,0.08,-0.05,-0.04
2020-08-12 19:8:43.9800,0.07,-0.02,-0.03
2020-08-12 19:8:44.0790,0.0,-0.01,-0.03
2020-08-12 19:8:44.1780,0.01,-0.03,-0.05
2020-08-12 19:8:44.2780,-0.12,-0.09,-0.03
2020-08-12 19:8:44.3770,-0.27,-0.36,0.04
2020-08-12 19:8:44.4760,-0.47,-0.4,0.01
2020-08-12 19:8:44.5760,-0.46,-0.1,0.21
2020-08-12 19:8:44.6750,-0.5,0.1,-0.08
2020-08-12 19:8:44.7740,-0.32,-0.03,-0.08
2020-08-12 19:8:44.8730,0.47,-0.78,0.25
2020-08-12 19:8:44.9720,0.79,0.04,0.13
2020-08-12 19:8:45.0720,0.59,-0.04,0.01
2020-08-12 19:8:45.1710,0.5,-0.45,0.49
2020-08-12 19:8:45.2700,0.4,-0.05,-0.02
2020-08-12 19:8:45.3690,0.18,0.09,0.05
2020-08-12 19:8:45.4690,-0.04,-0.0,0.01
2020-08-12 19:8:45.5680,-0.04,-0.01,-0.0
2020-08-12 19:8:45.6670,-0.02,0.01,0.0
2020-08-12 19:8:45.7670,-0.13,-0.03,0.02
2020-08-12 19:8:45.8660,-0.21,-0.26,0.04
2020-08-12 19:8:45.9650,-0.53,-0.49,-0.16
2020-08-12 19:8:46.0640,-0.75,-0.35,0.34
2020-08-12 19:8:46.1630,-0.59,0.04,-0.12
2020-08-12 19:8:46.2630,-0.39,0.07,-0.09
2020-08-12 19:8:46.3620,0.35,-0.33,0.0
2020-08-12 19:8:46.4610,0.84,0.08,0.41
2020-08-12 19:8:46.5610,1.2,0.1,0.45
2020-08-12 19:8:46.6600,0.37,-0.16,-0.09
2020-08-12 19:8:46.7590,0.23,-0.08,0.04
2020-08-12 19:8:46.8580,-0.08,-0.01,0.01
2020-08-12 19:8:46.9580,0.05,-0.03,0.02
2020-08-12 19:8:47.0570,0.02,-0.01,-0.0
2020-08-12 19:8:47.1560,-0.07,0.04,0.07
2020-08-12 19:8:47.2550,-0.03,-0.03,-0.08
2020-08-12 19:8:47.3550,-0.14,-0.02,0.01
2020-08-12 19:8:47.4540,-0.36,-0.29,0.01
2020-08-12 19:8:47.5530,-0.28,-0.33,0.04
2020-08-12 19:8:47.6530,-0.28,-0.1,0.11
2020-08-12 19:8:47.7520,-0.68,0.24,-0.07
2020-08-12 19:8:47.8510,-0.0,-0.19,0.0
2020-08-12 19:8:47.9500,0.1,-0.22,0.11
2020-08-12 19:8:48.0490,0.79,-0.26,0.17
2020-08-12 19:8:48.1490,1.02,0.16,0.19
2020-08-12 19:8:48.2480,-0.76,-0.13,-0.09
2020-08-12 19:8:48.3470,0.31,-0.03,-0.0
2020-08-12 19:8:48.4470,0.08,-0.12,0.02
2020-08-12 19:8:48.5460,0.13,0.03,0.0
2020-08-12 19:8:48.6460,0.16,0.02,-0.03
2020-08-12 19:8:48.7440,-0.02,0.0,0.07
2020-08-12 19:8:48.8440,-0.04,0.01,0.03
2020-08-12 19:8:48.9430,-0.07,0.0,-0.03
2020-08-12 19:8:49.0420,-0.22,0.01,0.03
2020-08-12 19:8:49.1410,-0.25,-0.28,-0.01
2020-08-12 19:8:49.2410,-0.4,-0.41,0.07
2020-08-12 19:8:49.3400,-0.42,-0.01,0.21
2020-08-12 19:8:49.4390,-0.57,-0.08,-0.03
2020-08-12 19:8:49.5380,-0.23,-0.14,-0.15
2020-08-12 19:8:49.6380,0.46,-0.41,0.05
2020-08-12 19:8:49.7370,1.04,0.14,0.53
2020-08-12 19:8:49.8360,-0.37,-0.72,-0.25
2020-08-12 19:8:49.9350,0.7,-0.36,-0.14
2020-08-12 19:8:50.0350,0.0,-0.12,0.15
2020-08-12 19:8:50.1340,0.14,-0.06,-0.05
2020-08-12 19:8:50.2330,0.06,-0.01,0.03
2020-08-12 19:8:50.3330,0.01,-0.01,0.01
2020-08-12 19:8:50.4320,-0.01,-0.0,-0.03
2020-08-12 19:8:50.5310,-0.17,-0.08,-0.01
2020-08-12 19:8:50.6300,-0.33,-0.29,0.05
2020-08-12 19:8:50.7290,-0.41,-0.37,0.03
2020-08-12 19:8:50.8290,-0.61,-0.15,0.18
2020-08-12 19:8:50.9280,-0.36,0.2,0.01
2020-08-12 19:8:51.0270,-0.09,-0.05,-0.04
2020-08-12 19:8:51.1270,0.3,-0.29,0.1
2020-08-12 19:8:51.2260,0.76,-0.05,0.15
2020-08-12 19:8:51.3250,0.96,0.12,0.18
2020-08-12 19:8:51.4240,0.24,-0.08,0.12
2020-08-12 19:8:51.5240,0.12,0.23,0.02
2020-08-12 19:8:51.6230,-0.05,0.04,-0.01
2020-08-12 19:8:51.7220,-0.04,0.01,0.05
2020-08-12 19:8:51.8210,-0.06,-0.01,0.06
2020-08-12 19:8:51.9210,-0.01,0.01,0.04
2020-08-12 19:8:52.0200,-0.02,-0.07,-0.16
2020-08-12 19:8:52.1190,-0.22,-0.08,0.08
2020-08-12 19:8:52.2180,-0.39,-0.25,0.03
2020-08-12 19:8:52.3180,-0.36,-0.59,0.09
2020-08-12 19:8:52.4170,-0.31,-0.15,0.42
2020-08-12 19:8:52.5160,-0.66,0.29,-0.12
2020-08-12 19:8:52.6150,0.03,-0.2,-0.2
2020-08-12 19:8:52.7150,0.92,-0.33,0.57
2020-08-12 19:8:52.8140,0.94,0.23,0.27
2020-08-12 19:8:52.9130,-1.01,-0.36,-0.65
2020-08-12 19:8:53.0120,0.25,0.32,0.2
2020-08-12 19:8:53.1120,-0.31,-0.01,0.09
2020-08-12 19:8:53.2110,0.01,0.01,-0.0
2020-08-12 19:8:53.3100,-0.05,0.04,0.1
2020-08-12 19:8:53.4100,-0.03,-0.02,-0.02
2020-08-12 19:8:53.5090,-0.06,-0.02,-0.02
2020-08-12 19:8:53.6080,-0.14,-0.07,-0.04
2020-08-12 19:8:53.7070,-0.21,-0.28,0.04
2020-08-12 19:8:53.8070,-0.45,-0.5,-0.02
2020-08-12 19:8:53.9060,-0.27,-0.13,0.07
2020-08-12 19:8:54.0050,-0.48,0.25,-0.08
2020-08-12 19:8:54.1040,-0.21,-0.05,-0.04
2020-08-12 19:8:54.2040,0.47,-0.51,0.21
2020-08-12 19:8:54.3030,0.79,0.15,0.19
2020-08-12 19:8:54.4020,0.8,0.07,0.18
2020-08-12 19:8:54.5020,0.48,-0.3,0.49
2020-08-12 19:8:54.6010,0.46,-0.04,-0.02
2020-08-12 19:8:54.7000,0.13,0.07,0.08
2020-08-12 19:8:54.7990,-0.03,0.01,0.09
2020-08-12 19:8:54.8980,-0.01,-0.01,0.01
2020-08-12 19:8:54.9980,-0.01,-0.01,-0.01
2020-08-12 19:8:55.0970,-0.1,0.01,0.03
2020-08-12 19:8:55.1960,-0.14,-0.05,0.0
2020-08-12 19:8:55.2950,-0.22,-0.24,-0.02
2020-08-12 19:8:55.3950,-0.34,-0.25,-0.07
2020-08-12 19:8:55.4940,-0.23,-0.18,0.2
2020-08-12 19:8:55.5930,-0.56,0.19,-0.0
2020-08-12 19:8:55.6920,-0.07,-0.12,-0.0
2020-08-12 19:8:55.7920,0.31,-0.48,0.17
2020-08-12 19:8:55.8910,0.78,-0.02,0.31
2020-08-12 19:8:55.9900,0.48,0.11,0.01
2020-08-12 19:8:56.0900,-0.03,0.02,-0.01
2020-08-12 19:8:56.1890,0.13,-0.87,-0.49
2020-08-12 19:8:56.2880,0.25,-0.01,-0.05
2020-08-12 19:8:56.3870,0.09,-0.0,-0.01
2020-08-12 19:8:56.4870,0.12,-0.02,0.02
2020-08-12 19:8:56.5860,0.02,0.0,0.01
2020-08-12 19:8:56.6850,-0.06,-0.02,0.01
2020-08-12 19:8:56.7850,-0.03,-0.01,0.02
2020-08-12 19:8:56.8840,-0.09,0.02,0.02
2020-08-12 19:8:56.9830,-0.27,-0.06,-0.04
2020-08-12 19:8:57.0820,-0.39,-0.43,-0.0
2020-08-12 19:8:57.1820,-0.49,0.22,-0.25
2020-08-12 19:8:57.2810,-0.05,0.12,-0.04
2020-08-12 19:8:57.3800,0.72,0.16,0.48
2020-08-12 19:8:57.4790,-0.28,-0.13,0.13
2020-08-12 19:8:57.5790,0.17,0.06,0.05
2020-08-12 19:8:57.6780,0.04,-0.02,-0.04
2020-08-12 19:8:57.7770,0.04,0.0,0.01
2020-08-12 19:8:57.8770,-0.04,0.02,0.01
2020-08-12 19:8:57.9760,0.01,0.0,-0.01
2020-08-12 19:8:58.0750,-0.03,0.02,0.02
2020-08-12 19:8:58.1740,0.05,0.0,-0.02
2020-08-12 19:8:58.2730,-0.01,0.02,0.03
2020-08-12 19:8:58.3730,0.07,0.05,0.01
2020-08-12 19:8:58.4720,-0.02,0.0,-0.01
2020-08-12 19:8:58.5710,0.04,-0.01,-0.0
2020-08-12 19:8:58.6700,-0.01,0.0,-0.01
2020-08-12 19:8:58.7700,0.01,0.01,-0.01
2020-08-12 19:8:58.8690,-0.01,0.01,-0.0
2020-08-12 19:8:58.9680,0.01,0.01,-0.0
2020-08-12 19:8:59.0680,0.02,0.02,0.0
2020-08-12 19:8:59.1710,-0.02,0.03,0.03
2020-08-12 19:8:59.2660,0.0,-0.02,-0.01
2020-08-12 19:8:59.3650,-0.03,0.01,-0.0
