time,ax,ay,az
2020-08-13 11:56:09.9040,-0.03,0.02,0.02
2020-08-13 11:56:10.0030,-0.01,-0.0,0.0
2020-08-13 11:56:10.1030,-0.02,0.01,-0.0
2020-08-13 11:56:10.2010,0.04,0.02,-0.02
2020-08-13 11:56:10.3010,0.03,0.01,0.0
2020-08-13 11:56:10.4010,-0.03,0.01,-0.01
2020-08-13 11:56:10.4990,-0.0,0.02,-0.04
2020-08-13 11:56:10.5990,-0.01,-0.03,0.0
2020-08-13 11:56:10.6980,-0.08,0.06,0.0
2020-08-13 11:56:10.7970,-0.02,0.02,0.01
2020-08-13 11:56:10.8960,-0.0,-0.02,-0.04
2020-08-13 11:56:10.9960,-0.07,0.02,0.02
2020-08-13 11:56:11.0950,-0.04,0.01,-0.02
2020-08-13 11:56:11.1940,-0.02,0.01,-0.01
2020-08-13 11:56:11.2930,-0.03,-0.0,0.06
2020-08-13 11:56:11.3930,-0.04,0.01,-0.02
2020-08-13 11:56:11.4920,-0.02,-0.02,-0.0
2020-08-13 11:56:11.5920,0.05,0.0,0.03
2020-08-13 11:56:11.6900,0.03,-0.02,-0.07
2020-08-13 11:56:11.7900,0.03,0.02,0.02
2020-08-13 11:56:11.8890,0.01,0.02,-0.0
2020-08-13 11:56:11.9890,-0.0,-0.01,0.0
2020-08-13 11:56:12.0870,-0.0,0.0,-0.01
2020-08-13 11:56:12.1870,-0.01,0.0,-0.01
2020-08-13 11:56:12.2860,-0.0,0.01,0.02
2020-08-13 11:56:12.3860,-0.02,-0.0,-0.01
2020-08-13 11:56:12.4840,-0.01,0.0,-0.0
2020-08-13 11:56:12.5840,-0.0,0.0,0.0
2020-08-13 11:56:12.6830,0.0,0.0,-0.0
2020-08-13 11:56:12.7830,-0.02,0.01,0.01
2020-08-13 11:56:12.8810,-0.01,0.0,-0.01
2020-08-13 11:56:12.9810,-0.03,0.01,-0.0
2020-08-13 11:56:13.0800,0.02,0.02,0.02
2020-08-13 11:56:13.1800,0.01,0.03,0.01
2020-08-13 11:56:13.2790,0.02,-0.03,-0.03
2020-08-13 11:56:13.3780,-0.01,-0.0,0.01
2020-08-13 11:56:13.4770,-0.02,-0.0,-0.0
2020-08-13 11:56:13.5770,-0.07,0.02,0.02
2020-08-13 11:56:13.6760,0.01,0.03,0.01
2020-08-13 11:56:13.7750,0.03,-0.02,-0.05
2020-08-13 11:56:13.8740,-0.06,0.02,0.07
2020-08-13 11:56:13.9740,0.0,-0.01,-0.02
2020-08-13 11:56:14.0730,0.09,-0.01,0.01
2020-08-13 11:56:14.1720,0.01,-0.0,-0.02
2020-08-13 11:56:14.2710,-0.0,0.0,-0.0
2020-08-13 11:56:14.3710,0.04,0.0,-0.01
2020-08-13 11:56:14.4700,-0.02,-0.01,0.0
2020-08-13 11:56:14.5690,0.02,-0.0,0.0
2020-08-13 11:56:14.6680,-0.07,0.01,0.02
2020-08-13 11:56:14.7680,-0.28,-0.09,0.04
2020-08-13 11:56:14.8670,-0.24,-0.47,0.35
2020-08-13 11:56:14.9660,-0.89,0.23,0.15
2020-08-13 11:56:15.0650,-0.38,0.05,-0.19
2020-08-13 11:56:15.1650,-0.0,-0.18,-0.14
2020-08-13 11:56:15.2640,0.4,-0.04,0.02
2020-08-13 11:56:15.3640,0.63,0.01,-0.02
2020-08-13 11:56:15.4620,0.6,0.08,0.17
2020-08-13 11:56:15.5620,0.19,-0.33,-0.45
2020-08-13 11:56:15.6610,-0.2,0.06,0.22
2020-08-13 11:56:15.7610,0.13,-0.14,-0.08
2020-08-13 11:56:15.8590,-0.03,0.02,0.02
2020-08-13 11:56:15.9590,-0.08,0.07,0.05
2020-08-13 11:56:16.0580,-0.01,-0.01,-0.03
2020-08-13 11:56:16.1570,-0.03,0.01,0.07
2020-08-13 11:56:16.2560,0.01,0.0,-0.03
2020-08-13 11:56:16.3560,-0.09,-0.01,0.05
2020-08-13 11:56:16.4550,-0.05,-0.06,0.02
2020-08-13 11:56:16.5550,-0.15,-0.32,-0.01
2020-08-13 11:56:16.6530,-0.45,-0.52,-0.13
2020-08-13 11:56:16.7530,0.03,-0.23,0.06
2020-08-13 11:56:16.8520,-0.75,0.34,0.18
2020-08-13 11:56:16.9520,-0.53,0.17,0.06
2020-08-13 11:56:17.0500,0.08,-0.41,0.03
2020-08-13 11:56:17.1500,0.42,-0.34,0.02
2020-08-13 11:56:17.2490,0.54,-0.13,-0.02
2020-08-13 11:56:17.3490,0.66,0.04,-0.04
2020-08-13 11:56:17.4470,0.77,0.03,0.05
2020-08-13 11:56:17.5470,0.28,-0.35,-0.35
2020-08-13 11:56:17.6460,-0.14,-0.0,0.19
2020-08-13 11:56:17.7460,-0.1,0.07,0.12
2020-08-13 11:56:17.8440,-0.08,0.04,-0.04
2020-08-13 11:56:17.9440,-0.01,0.04,0.06
2020-08-13 11:56:18.0430,-0.01,0.03,0.03
2020-08-13 11:56:18.1430,0.02,0.01,-0.0
2020-08-13 11:56:18.2410,0.06,-0.07,-0.05
2020-08-13 11:56:18.3410,0.02,-0.02,0.0
2020-08-13 11:56:18.4410,-0.07,-0.05,0.04
2020-08-13 11:56:18.5390,-0.23,-0.39,-0.05
2020-08-13 11:56:18.6390,-0.68,-0.22,0.23
2020-08-13 11:56:18.7380,-0.09,-0.19,0.14
2020-08-13 11:56:18.8370,-0.86,0.21,0.17
2020-08-13 11:56:18.9360,-0.25,-0.12,-0.01
2020-08-13 11:56:19.0360,0.02,-0.26,-0.06
2020-08-13 11:56:19.1350,0.3,-0.29,0.06
2020-08-13 11:56:19.2350,0.79,-0.31,0.09
2020-08-13 11:56:19.3330,0.65,-0.03,-0.06
2020-08-13 11:56:19.4330,0.55,0.03,0.0
2020-08-13 11:56:19.5320,-0.08,-0.18,-0.26
2020-08-13 11:56:19.6320,0.18,-0.05,0.23
2020-08-13 11:56:19.7300,0.03,-0.02,0.13
2020-08-13 11:56:19.8300,-0.05,0.0,-0.02
2020-08-13 11:56:19.9290,0.05,0.02,-0.02
2020-08-13 11:56:20.0280,-0.03,0.01,0.01
2020-08-13 11:56:20.1270,-0.06,-0.0,0.01
2020-08-13 11:56:20.2270,-0.06,-0.02,0.02
2020-08-13 11:56:20.3260,-0.09,-0.03,0.01
2020-08-13 11:56:20.4260,-0.06,-0.1,-0.16
2020-08-13 11:56:20.5250,-0.12,-0.57,0.17
2020-08-13 11:56:20.6240,-0.36,-0.22,0.16
2020-08-13 11:56:20.7230,-0.98,-0.11,0.18
2020-08-13 11:56:20.8230,-0.55,0.17,-0.04
2020-08-13 11:56:20.9210,-0.13,-0.25,-0.04
2020-08-13 11:56:21.0210,0.17,-0.27,-0.01
2020-08-13 11:56:21.1200,0.57,-0.31,0.0
2020-08-13 11:56:21.2200,0.74,-0.08,0.02
2020-08-13 11:56:21.3190,0.8,0.06,0.11
2020-08-13 11:56:21.4180,0.28,-0.35,-0.43
2020-08-13 11:56:21.5170,-0.01,0.19,0.25
2020-08-13 11:56:21.6170,-0.07,-0.01,0.05
2020-08-13 11:56:21.7150,-0.06,0.0,0.0
2020-08-13 11:56:21.8150,-0.01,0.01,0.01
2020-08-13 11:56:21.9140,-0.0,0.0,0.03
2020-08-13 11:56:22.0140,-0.04,0.01,0.01
2020-08-13 11:56:22.1130,-0.08,-0.0,0.03
2020-08-13 11:56:22.2120,-0.06,-0.04,0.05
2020-08-13 11:56:22.3110,-0.11,-0.15,0.01
2020-08-13 11:56:22.4110,-0.21,-0.48,0.11
2020-08-13 11:56:22.5100,-0.43,-0.34,0.03
2020-08-13 11:56:22.6090,-0.27,0.1,0.15
2020-08-13 11:56:22.7080,-0.75,0.27,0.14
2020-08-13 11:56:22.8080,-0.57,0.15,0.02
2020-08-13 11:56:22.9070,0.04,-0.38,0.03
2020-08-13 11:56:23.0070,0.39,-0.35,0.12
2020-08-13 11:56:23.1050,0.53,-0.14,0.0
2020-08-13 11:56:23.2050,0.85,-0.01,-0.13
2020-08-13 11:56:23.3040,-0.88,-0.11,-0.13
2020-08-13 11:56:23.4030,0.25,-0.12,0.06
2020-08-13 11:56:23.5020,-0.17,0.01,-0.06
2020-08-13 11:56:23.6020,-0.01,0.02,0.02
2020-08-13 11:56:23.7010,-0.02,0.01,-0.0
2020-08-13 11:56:23.8010,0.06,-0.06,-0.06
2020-08-13 11:56:23.8990,-0.07,0.03,0.04
2020-08-13 11:56:23.9990,-0.04,0.05,0.0
2020-08-13 11:56:24.0980,-0.01,-0.03,-0.03
2020-08-13 11:56:24.1980,-0.02,-0.08,-0.0
2020-08-13 11:56:24.2960,-0.07,-0.18,-0.06
2020-08-13 11:56:24.3960,-0.27,-0.57,0.04
2020-08-13 11:56:24.4950,-0.44,-0.27,0.3
2020-08-13 11:56:24.5950,-0.63,-0.01,0.12
2020-08-13 11:56:24.6930,-0.48,0.17,0.08
2020-08-13 11:56:24.7930,-0.08,-0.25,0.12
2020-08-13 11:56:24.8920,0.19,-0.37,0.05
2020-08-13 11:56:24.9920,0.48,-0.31,-0.0
2020-08-13 11:56:25.0900,0.67,-0.1,-0.07
2020-08-13 11:56:25.1900,0.68,0.03,-0.02
2020-08-13 11:56:25.2890,-1.19,-0.24,-0.05
2020-08-13 11:56:25.3880,0.1,-0.17,0.39
2020-08-13 11:56:25.4880,-0.03,-0.03,-0.14
2020-08-13 11:56:25.5870,-0.01,-0.02,0.0
2020-08-13 11:56:25.6860,0.0,0.0,0.01
2020-08-13 11:56:25.7860,-0.01,-0.01,-0.01
2020-08-13 11:56:25.8840,-0.02,0.02,0.01
2020-08-13 11:56:25.9840,-0.07,0.01,-0.01
2020-08-13 11:56:26.0830,-0.03,-0.02,0.02
2020-08-13 11:56:26.1830,-0.07,-0.04,0.02
2020-08-13 11:56:26.2810,-0.15,-0.15,-0.01
2020-08-13 11:56:26.3810,-0.15,-0.69,-0.18
2020-08-13 11:56:26.4800,-0.15,-0.21,0.13
2020-08-13 11:56:26.5800,-0.89,0.12,0.31
2020-08-13 11:56:26.6790,-0.58,0.1,0.11
2020-08-13 11:56:26.7780,-0.04,-0.25,0.1
2020-08-13 11:56:26.8770,0.15,-0.27,-0.02
2020-08-13 11:56:26.9770,0.58,-0.27,0.0
2020-08-13 11:56:27.0760,0.82,-0.09,-0.05
2020-08-13 11:56:27.1750,0.76,0.01,-0.01
2020-08-13 11:56:27.2740,0.04,-0.36,-0.05
2020-08-13 11:56:27.3740,0.21,-0.05,0.18
2020-08-13 11:56:27.4730,-0.01,-0.01,0.02
2020-08-13 11:56:27.5720,-0.02,-0.02,-0.04
2020-08-13 11:56:27.6710,-0.01,0.04,0.05
2020-08-13 11:56:27.7700,-0.08,0.07,0.06
2020-08-13 11:56:27.8700,0.07,-0.09,-0.1
2020-08-13 11:56:27.9690,0.07,-0.1,-0.08
2020-08-13 11:56:28.0680,-0.02,-0.1,-0.04
2020-08-13 11:56:28.1680,-0.1,-0.11,0.03
2020-08-13 11:56:28.2670,-0.35,-0.49,0.03
2020-08-13 11:56:28.3670,-0.32,-0.35,0.31
2020-08-13 11:56:28.4650,-0.69,-0.02,0.05
2020-08-13 11:56:28.5650,-0.54,0.19,0.08
2020-08-13 11:56:28.6640,-0.11,-0.19,-0.0
2020-08-13 11:56:28.7630,0.16,-0.27,0.06
2020-08-13 11:56:28.8630,0.51,-0.21,-0.01
2020-08-13 11:56:28.9610,0.6,-0.12,-0.06
2020-08-13 11:56:29.0610,0.79,-0.03,-0.02
2020-08-13 11:56:29.1600,0.19,-0.33,-0.23
2020-08-13 11:56:29.2600,0.43,-0.04,0.11
2020-08-13 11:56:29.3590,0.01,0.01,0.06
2020-08-13 11:56:29.4580,0.05,-0.03,-0.04
2020-08-13 11:56:29.5570,-0.01,0.02,0.05
2020-08-13 11:56:29.6560,-0.02,0.02,0.01
2020-08-13 11:56:29.7550,-0.02,0.02,0.0
2020-08-13 11:56:29.8550,-0.02,-0.01,-0.02
2020-08-13 11:56:29.9540,-0.04,-0.06,-0.03
2020-08-13 11:56:30.0540,-0.07,-0.19,-0.03
2020-08-13 11:56:30.1530,-0.4,-0.41,0.12
2020-08-13 11:56:30.2520,-0.21,-0.12,0.28
2020-08-13 11:56:30.3510,-0.8,0.05,0.1
2020-08-13 11:56:30.4510,-0.65,0.13,0.15
2020-08-13 11:56:30.5500,0.08,-0.36,0.11
2020-08-13 11:56:30.6500,0.25,-0.24,-0.01
2020-08-13 11:56:30.7480,0.45,-0.2,-0.06
2020-08-13 11:56:30.8480,0.62,-0.15,-0.1
2020-08-13 11:56:30.9470,0.83,-0.03,-0.04
2020-08-13 11:56:31.0460,-0.35,-0.35,0.05
2020-08-13 11:56:31.1450,0.3,-0.08,0.12
2020-08-13 11:56:31.2440,-0.01,-0.05,-0.09
2020-08-13 11:56:31.3440,-0.02,-0.01,0.05
2020-08-13 11:56:31.4430,-0.03,0.0,0.01
2020-08-13 11:56:31.5430,-0.01,0.0,-0.02
2020-08-13 11:56:31.6410,-0.05,0.03,0.01
2020-08-13 11:56:31.7410,-0.04,0.03,0.0
2020-08-13 11:56:31.8410,-0.01,-0.04,-0.03
2020-08-13 11:56:31.9390,-0.07,-0.08,0.04
2020-08-13 11:56:32.0390,-0.22,-0.27,0.01
2020-08-13 11:56:32.1380,-0.46,-0.3,0.08
2020-08-13 11:56:32.2380,-0.12,-0.19,0.13
2020-08-13 11:56:32.3360,-0.74,0.16,0.19
2020-08-13 11:56:32.4360,-0.33,-0.05,-0.07
2020-08-13 11:56:32.5350,0.07,-0.34,0.0
2020-08-13 11:56:32.6350,0.39,-0.17,0.09
2020-08-13 11:56:32.7330,0.51,-0.16,-0.04
2020-08-13 11:56:32.8330,0.75,-0.04,-0.03
2020-08-13 11:56:32.9320,0.1,-0.13,0.25
2020-08-13 11:56:33.0310,0.51,-0.24,-0.07
2020-08-13 11:56:33.1310,-0.0,0.01,0.05
2020-08-13 11:56:33.2300,-0.05,0.01,0.03
2020-08-13 11:56:33.3290,0.01,-0.02,0.01
2020-08-13 11:56:33.4280,0.01,0.01,0.01
2020-08-13 11:56:33.5280,-0.03,0.0,0.01
2020-08-13 11:56:33.6270,-0.06,-0.02,0.01
2020-08-13 11:56:33.7260,-0.03,-0.02,0.01
2020-08-13 11:56:33.8250,-0.06,-0.05,0.05
2020-08-13 11:56:33.9250,-0.11,-0.07,0.0
2020-08-13 11:56:34.0240,-0.36,-0.43,0.13
2020-08-13 11:56:34.1230,-0.42,-0.16,0.27
2020-08-13 11:56:34.2230,-0.74,-0.02,0.17
2020-08-13 11:56:34.3210,-0.47,0.19,0.09
2020-08-13 11:56:34.4210,-0.14,-0.22,0.07
2020-08-13 11:56:34.5200,0.16,-0.24,0.06
2020-08-13 11:56:34.6200,0.39,-0.25,0.01
2020-08-13 11:56:34.7190,0.55,-0.15,-0.03
2020-08-13 11:56:34.8180,0.6,0.01,-0.03
2020-08-13 11:56:34.9170,0.52,-0.04,0.12
2020-08-13 11:56:35.0170,0.52,-0.15,-0.24
2020-08-13 11:56:35.1160,-0.06,0.06,0.06
2020-08-13 11:56:35.2150,0.04,-0.03,0.06
2020-08-13 11:56:35.3150,-0.02,0.0,-0.0
2020-08-13 11:56:35.4130,-0.04,0.03,0.03
2020-08-13 11:56:35.5130,0.18,-0.11,-0.12
2020-08-13 11:56:35.6120,0.01,-0.03,-0.04
2020-08-13 11:56:35.7120,-0.01,-0.02,-0.01
2020-08-13 11:56:35.8100,-0.03,-0.03,0.0
2020-08-13 11:56:35.9100,-0.07,-0.11,-0.01
2020-08-13 11:56:36.0090,-0.22,-0.39,0.01
2020-08-13 11:56:36.1090,-0.64,-0.14,0.22
2020-08-13 11:56:36.2070,0.07,-0.17,0.19
2020-08-13 11:56:36.3070,-0.64,0.15,0.17
2020-08-13 11:56:36.4060,-0.31,-0.02,0.01
2020-08-13 11:56:36.5060,0.18,-0.34,0.02
2020-08-13 11:56:36.6040,0.45,-0.34,0.03
2020-08-13 11:56:36.7050,0.55,-0.13,0.03
2020-08-13 11:56:36.8030,0.63,0.01,-0.05
2020-08-13 11:56:36.9030,0.25,-0.24,0.12
2020-08-13 11:56:37.0010,0.65,-0.37,-0.09
2020-08-13 11:56:37.1010,-0.08,-0.0,-0.13
2020-08-13 11:56:37.2000,-0.07,0.06,0.09
2020-08-13 11:56:37.2990,0.04,-0.05,-0.07
2020-08-13 11:56:37.3990,-0.09,0.01,0.04
2020-08-13 11:56:37.4980,-0.04,-0.02,0.01
2020-08-13 11:56:37.5970,-0.06,0.02,0.02
2020-08-13 11:56:37.6970,-0.04,-0.0,-0.01
2020-08-13 11:56:37.7960,-0.07,-0.03,0.0
2020-08-13 11:56:37.8950,-0.13,-0.09,0.01
2020-08-13 11:56:37.9940,-0.35,-0.52,-0.05
2020-08-13 11:56:38.0940,-0.16,-0.31,0.11
2020-08-13 11:56:38.1930,-0.71,0.18,0.24
2020-08-13 11:56:38.2920,-0.59,0.21,0.09
2020-08-13 11:56:38.3910,-0.1,-0.29,0.08
2020-08-13 11:56:38.4910,0.2,-0.16,-0.03
2020-08-13 11:56:38.5900,0.45,-0.29,-0.02
2020-08-13 11:56:38.6900,0.65,-0.12,-0.04
2020-08-13 11:56:38.7880,0.61,0.01,-0.04
2020-08-13 11:56:38.8880,-0.99,-0.07,-0.14
2020-08-13 11:56:38.9870,0.12,-0.11,0.25
2020-08-13 11:56:39.0870,-0.13,0.02,-0.08
2020-08-13 11:56:39.1850,-0.07,0.02,0.05
2020-08-13 11:56:39.2850,-0.0,0.0,0.03
2020-08-13 11:56:39.3840,-0.03,0.03,0.03
2020-08-13 11:56:39.4830,-0.04,0.03,0.03
2020-08-13 11:56:39.5820,-0.01,-0.02,-0.02
2020-08-13 11:56:39.6820,-0.03,-0.02,-0.0
2020-08-13 11:56:39.7810,-0.04,-0.07,-0.04
2020-08-13 11:56:39.8810,-0.11,-0.24,0.05
2020-08-13 11:56:39.9790,-0.28,-0.45,0.05
2020-08-13 11:56:40.0790,-0.19,-0.25,0.2
2020-08-13 11:56:40.1780,-1.05,0.21,0.01
2020-08-13 11:56:40.2770,-0.62,0.2,0.08
2020-08-13 11:56:40.3760,-0.03,-0.29,0.03
2020-08-13 11:56:40.4760,0.13,-0.19,0.04
2020-08-13 11:56:40.5750,0.45,-0.27,0.06
2020-08-13 11:56:40.6740,0.65,-0.09,-0.04
2020-08-13 11:56:40.7730,0.7,-0.0,-0.05
2020-08-13 11:56:40.8730,-0.24,-0.33,-0.08
2020-08-13 11:56:40.9720,0.08,-0.05,0.22
2020-08-13 11:56:41.0720,-0.04,-0.01,-0.09
2020-08-13 11:56:41.1700,0.01,-0.01,0.03
2020-08-13 11:56:41.2700,-0.01,-0.01,-0.02
2020-08-13 11:56:41.3690,-0.03,-0.01,0.1
2020-08-13 11:56:41.4690,-0.05,0.01,0.02
2020-08-13 11:56:41.5680,-0.03,-0.0,-0.02
2020-08-13 11:56:41.6670,-0.04,-0.03,-0.02
2020-08-13 11:56:41.7660,-0.1,-0.09,0.01
2020-08-13 11:56:41.8660,-0.22,-0.32,-0.0
2020-08-13 11:56:41.9650,-0.75,-0.3,0.24
2020-08-13 11:56:42.0640,-0.01,-0.11,0.2
2020-08-13 11:56:42.1630,-0.56,0.2,0.11
2020-08-13 11:56:42.2630,-0.2,-0.02,-0.09
2020-08-13 11:56:42.3620,0.14,-0.19,-0.02
2020-08-13 11:56:42.4610,0.26,-0.21,0.01
2020-08-13 11:56:42.5600,0.46,-0.15,-0.06
2020-08-13 11:56:42.6600,0.67,-0.04,-0.05
2020-08-13 11:56:42.7580,0.35,-0.29,0.2
2020-08-13 11:56:42.8580,0.47,-0.15,-0.26
2020-08-13 11:56:42.9580,0.06,-0.01,-0.07
2020-08-13 11:56:43.0560,-0.02,0.01,0.04
2020-08-13 11:56:43.1560,-0.04,0.01,-0.02
2020-08-13 11:56:43.2550,0.04,-0.01,0.0
2020-08-13 11:56:43.3540,-0.02,-0.01,0.01
2020-08-13 11:56:43.4530,-0.02,-0.0,0.01
2020-08-13 11:56:43.5530,-0.04,-0.02,-0.0
2020-08-13 11:56:43.6520,-0.05,-0.04,-0.0
2020-08-13 11:56:43.7510,-0.13,-0.23,-0.08
2020-08-13 11:56:43.8510,-0.37,-0.36,0.09
2020-08-13 11:56:43.9500,-0.26,-0.16,0.25
2020-08-13 11:56:44.0500,-0.91,0.1,0.21
2020-08-13 11:56:44.1480,-0.42,0.1,-0.05
2020-08-13 11:56:44.2480,-0.12,-0.18,-0.07
2020-08-13 11:56:44.3470,0.27,-0.3,0.04
2020-08-13 11:56:44.4460,0.6,-0.28,-0.04
2020-08-13 11:56:44.5450,0.56,-0.05,-0.08
2020-08-13 11:56:44.6450,0.57,-0.01,-0.01
2020-08-13 11:56:44.7440,-0.24,-0.34,-0.04
2020-08-13 11:56:44.8430,0.16,0.02,0.05
2020-08-13 11:56:44.9420,0.03,-0.03,-0.07
2020-08-13 11:56:45.0410,0.01,-0.0,0.01
2020-08-13 11:56:45.1410,-0.02,-0.0,0.01
2020-08-13 11:56:45.2400,-0.03,0.05,0.03
2020-08-13 11:56:45.3390,0.02,0.03,-0.01
2020-08-13 11:56:45.4390,-0.12,0.08,0.08
2020-08-13 11:56:45.5380,-0.13,-0.02,0.07
2020-08-13 11:56:45.6370,-0.09,-0.12,0.01
2020-08-13 11:56:45.7360,-0.25,-0.36,0.07
2020-08-13 11:56:45.8360,-0.41,-0.18,0.01
2020-08-13 11:56:45.9350,0.01,-0.23,0.1
2020-08-13 11:56:46.0340,-0.65,0.17,0.19
2020-08-13 11:56:46.1340,-0.35,0.04,0.02
2020-08-13 11:56:46.2330,0.01,-0.22,0.04
2020-08-13 11:56:46.3320,0.26,-0.17,0.02
2020-08-13 11:56:46.4310,0.44,-0.14,-0.01
2020-08-13 11:56:46.5310,0.54,-0.08,-0.08
2020-08-13 11:56:46.6300,0.6,-0.02,-0.01
2020-08-13 11:56:46.7300,-1.05,-0.09,-0.11
2020-08-13 11:56:46.8280,0.3,-0.1,-0.05
2020-08-13 11:56:46.9280,0.22,-0.11,-0.11
2020-08-13 11:56:47.0270,0.01,0.0,0.04
2020-08-13 11:56:47.1270,-0.05,0.0,0.02
2020-08-13 11:56:47.2250,-0.02,0.01,-0.02
2020-08-13 11:56:47.3250,0.0,0.01,0.01
2020-08-13 11:56:47.4250,-0.0,0.06,0.0
2020-08-13 11:56:47.5230,-0.07,-0.02,0.05
2020-08-13 11:56:47.6230,-0.01,-0.05,-0.07
2020-08-13 11:56:47.7220,-0.16,-0.39,0.1
2020-08-13 11:56:47.8210,-0.53,-0.21,0.09
2020-08-13 11:56:47.9200,-0.07,-0.18,0.07
2020-08-13 11:56:48.0200,-0.68,0.16,0.07
2020-08-13 11:56:48.1190,-0.22,-0.05,-0.07
2020-08-13 11:56:48.2180,0.05,-0.2,-0.06
2020-08-13 11:56:48.3170,0.27,-0.19,-0.0
2020-08-13 11:56:48.4170,0.63,-0.24,0.01
2020-08-13 11:56:48.5160,0.73,-0.01,-0.03
2020-08-13 11:56:48.6150,-1.02,-0.1,-0.11
2020-08-13 11:56:48.7140,0.34,-0.38,0.2
2020-08-13 11:56:48.8140,-0.38,0.09,-0.04
2020-08-13 11:56:48.9130,-0.05,-0.0,0.02
2020-08-13 11:56:49.0120,-0.03,-0.0,-0.01
2020-08-13 11:56:49.1110,-0.03,-0.0,0.09
2020-08-13 11:56:49.2110,-0.0,0.01,-0.02
2020-08-13 11:56:49.3100,0.0,0.02,-0.03
2020-08-13 11:56:49.4100,-0.09,0.0,0.01
2020-08-13 11:56:49.5080,-0.09,-0.03,0.02
2020-08-13 11:56:49.6080,0.01,-0.11,-0.13
2020-08-13 11:56:49.7070,-0.12,-0.37,0.01
2020-08-13 11:56:49.8060,-0.47,-0.23,0.01
2020-08-13 11:56:49.9050,-0.23,-0.28,0.24
2020-08-13 11:56:50.0040,-0.83,0.3,0.18
2020-08-13 11:56:50.1040,-0.56,0.13,0.06
2020-08-13 11:56:50.2030,0.07,-0.34,0.03
2020-08-13 11:56:50.3030,0.33,-0.25,0.08
2020-08-13 11:56:50.4020,0.53,-0.18,-0.06
2020-08-13 11:56:50.5010,0.89,-0.05,-0.03
2020-08-13 11:56:50.6000,-0.73,-0.13,-0.1
2020-08-13 11:56:50.7000,0.12,-0.06,0.02
2020-08-13 11:56:50.7990,-0.11,-0.03,-0.07
2020-08-13 11:56:50.8980,-0.01,-0.01,-0.03
2020-08-13 11:56:50.9970,-0.04,0.0,-0.01
2020-08-13 11:56:51.0970,-0.05,0.01,0.04
2020-08-13 11:56:51.1950,-0.05,0.04,0.01
2020-08-13 11:56:51.2950,0.01,-0.03,-0.04
2020-08-13 11:56:51.3940,-0.07,-0.0,0.05
2020-08-13 11:56:51.4940,-0.1,-0.05,-0.01
2020-08-13 11:56:51.5930,-0.2,-0.05,0.06
2020-08-13 11:56:51.6920,-0.52,-0.67,0.1
2020-08-13 11:56:51.7920,-0.32,-0.15,0.3
2020-08-13 11:56:51.8900,-0.88,0.13,0.04
2020-08-13 11:56:51.9900,-0.52,0.14,-0.01
2020-08-13 11:56:52.0890,-0.02,-0.21,0.03
2020-08-13 11:56:52.1890,0.15,-0.2,0.1
2020-08-13 11:56:52.2870,0.42,-0.29,0.02
2020-08-13 11:56:52.3870,0.63,-0.12,-0.05
2020-08-13 11:56:52.4860,0.54,0.02,-0.05
2020-08-13 11:56:52.5860,-1.05,-0.11,-0.13
2020-08-13 11:56:52.6840,-0.15,-0.01,0.22
2020-08-13 11:56:52.7840,-0.12,-0.02,-0.09
2020-08-13 11:56:52.8830,0.01,-0.02,-0.02
2020-08-13 11:56:52.9830,-0.06,0.03,0.05
2020-08-13 11:56:53.0810,-0.02,0.01,-0.01
2020-08-13 11:56:53.1810,-0.0,-0.01,0.0
2020-08-13 11:56:53.2800,0.01,-0.01,-0.07
2020-08-13 11:56:53.3800,-0.0,-0.02,-0.09
2020-08-13 11:56:53.4790,0.01,-0.08,-0.11
2020-08-13 11:56:53.5780,-0.07,-0.19,-0.0
2020-08-13 11:56:53.6780,-0.39,-0.4,-0.06
2020-08-13 11:56:53.7760,-0.4,-0.3,0.21
2020-08-13 11:56:53.8760,-0.6,-0.39,0.16
2020-08-13 11:56:53.9750,-0.56,0.27,0.01
2020-08-13 11:56:54.0750,-0.16,-0.13,-0.01
2020-08-13 11:56:54.1730,0.29,-0.28,0.03
2020-08-13 11:56:54.2730,0.5,-0.21,-0.01
2020-08-13 11:56:54.3720,0.51,-0.13,-0.05
2020-08-13 11:56:54.4710,0.67,-0.01,-0.04
2020-08-13 11:56:54.5700,-0.97,-0.04,-0.04
2020-08-13 11:56:54.6700,-0.02,-0.06,0.12
2020-08-13 11:56:54.7690,0.09,-0.11,-0.08
2020-08-13 11:56:54.8680,-0.01,-0.0,0.02
2020-08-13 11:56:54.9680,-0.06,0.02,-0.01
2020-08-13 11:56:55.0670,0.01,-0.0,0.01
2020-08-13 11:56:55.1660,0.0,0.01,-0.01
2020-08-13 11:56:55.2650,-0.02,0.01,-0.0
2020-08-13 11:56:55.3650,-0.04,0.01,-0.01
2020-08-13 11:56:55.4640,-0.03,-0.07,-0.04
2020-08-13 11:56:55.5640,-0.12,-0.22,0.04
2020-08-13 11:56:55.6620,-0.38,-0.54,0.1
2020-08-13 11:56:55.7620,-0.34,-0.14,0.18
2020-08-13 11:56:55.8610,-0.93,0.15,0.07
2020-08-13 11:56:55.9600,-0.55,0.24,0.05
2020-08-13 11:56:56.0590,0.01,-0.35,0.0
2020-08-13 11:56:56.1590,0.23,-0.29,0.02
2020-08-13 11:56:56.2580,0.35,-0.2,0.05
2020-08-13 11:56:56.3570,0.5,-0.11,0.04
2020-08-13 11:56:56.4560,0.53,0.01,-0.04
2020-08-13 11:56:56.5560,-0.32,-0.44,-0.09
2020-08-13 11:56:56.6550,0.07,0.04,-0.1
2020-08-13 11:56:56.7550,-0.06,-0.04,-0.12
2020-08-13 11:56:56.8530,-0.04,0.0,-0.04
2020-08-13 11:56:56.9530,-0.04,-0.02,-0.02
2020-08-13 11:56:57.0520,-0.07,0.02,0.1
2020-08-13 11:56:57.1520,-0.08,0.02,0.01
2020-08-13 11:56:57.2500,-0.02,0.01,-0.03
2020-08-13 11:56:57.3500,-0.09,0.03,0.01
2020-08-13 11:56:57.4490,-0.04,-0.07,-0.01
2020-08-13 11:56:57.5490,-0.12,-0.12,-0.04
2020-08-13 11:56:57.6470,-0.39,-0.46,0.23
2020-08-13 11:56:57.7470,-0.43,-0.27,0.26
2020-08-13 11:56:57.8460,-0.95,0.11,0.06
2020-08-13 11:56:57.9450,-0.63,0.12,0.01
2020-08-13 11:56:58.0440,-0.11,-0.28,-0.01
2020-08-13 11:56:58.1440,0.25,-0.21,0.01
2020-08-13 11:56:58.2430,0.45,-0.37,0.06
2020-08-13 11:56:58.3420,0.84,-0.13,-0.04
2020-08-13 11:56:58.4410,0.64,0.02,-0.02
2020-08-13 11:56:58.5410,-0.63,-0.18,0.06
2020-08-13 11:56:58.6400,0.14,-0.1,0.27
2020-08-13 11:56:58.7400,-0.06,-0.03,-0.01
2020-08-13 11:56:58.8380,-0.05,-0.01,0.01
2020-08-13 11:56:58.9380,-0.06,0.02,0.0
2020-08-13 11:56:59.0370,-0.01,0.02,0.0
2020-08-13 11:56:59.1370,-0.04,0.0,-0.0
2020-08-13 11:56:59.2360,-0.07,-0.0,0.02
2020-08-13 11:56:59.3350,-0.05,-0.0,0.01
2020-08-13 11:56:59.4350,-0.05,-0.04,-0.01
2020-08-13 11:56:59.5330,-0.15,-0.22,0.0
2020-08-13 11:56:59.6330,-0.3,-0.48,-0.03
2020-08-13 11:56:59.7320,-0.1,-0.3,0.14
2020-08-13 11:56:59.8320,-1.0,0.16,0.21
2020-08-13 11:56:59.9300,-0.49,0.13,0.03
2020-08-13 11:57:00.0300,-0.01,-0.23,0.05
2020-08-13 11:57:00.1290,0.24,-0.25,0.1
2020-08-13 11:57:00.2290,0.43,-0.18,0.02
2020-08-13 11:57:00.3280,0.5,-0.12,-0.06
2020-08-13 11:57:00.4270,0.63,-0.01,-0.04
2020-08-13 11:57:00.5260,-0.93,-0.11,-0.01
2020-08-13 11:57:00.6250,0.18,-0.2,0.13
2020-08-13 11:57:00.7250,-0.08,-0.0,-0.08
2020-08-13 11:57:00.8240,0.06,-0.03,0.0
2020-08-13 11:57:00.9240,-0.02,0.0,0.01
2020-08-13 11:57:01.0220,-0.1,0.07,0.03
2020-08-13 11:57:01.1220,-0.03,-0.03,-0.01
2020-08-13 11:57:01.2210,0.01,-0.01,-0.03
2020-08-13 11:57:01.3200,-0.09,-0.04,0.06
2020-08-13 11:57:01.4190,-0.06,-0.07,0.01
2020-08-13 11:57:01.5190,-0.15,-0.19,0.03
2020-08-13 11:57:01.6180,-0.3,-0.51,-0.02
2020-08-13 11:57:01.7170,-0.18,-0.22,0.05
2020-08-13 11:57:01.8160,-0.82,0.15,0.21
2020-08-13 11:57:01.9160,-0.54,0.16,0.02
2020-08-13 11:57:02.0150,-0.11,-0.27,0.0
2020-08-13 11:57:02.1140,0.23,-0.31,0.06
2020-08-13 11:57:02.2130,0.53,-0.2,-0.03
2020-08-13 11:57:02.3130,0.66,-0.06,-0.08
2020-08-13 11:57:02.4120,0.74,-0.0,-0.04
2020-08-13 11:57:02.5110,0.07,-0.36,-0.09
2020-08-13 11:57:02.6110,0.29,-0.07,0.2
2020-08-13 11:57:02.7100,-0.01,0.01,-0.02
2020-08-13 11:57:02.8100,-0.04,-0.03,0.01
2020-08-13 11:57:02.9080,-0.02,0.01,0.02
2020-08-13 11:57:03.0070,-0.02,0.01,-0.0
2020-08-13 11:57:03.1070,-0.0,0.01,-0.02
2020-08-13 11:57:03.2070,-0.04,-0.01,-0.01
2020-08-13 11:57:03.3050,-0.12,-0.02,0.06
2020-08-13 11:57:03.4050,-0.08,-0.08,-0.02
2020-08-13 11:57:03.5040,-0.26,-0.34,0.04
2020-08-13 11:57:03.6030,-0.39,-0.21,0.04
2020-08-13 11:57:03.7030,-0.05,-0.15,0.14
2020-08-13 11:57:03.8010,-0.59,0.17,0.14
2020-08-13 11:57:03.9010,-0.39,0.02,0.02
2020-08-13 11:57:04.0000,0.08,-0.3,-0.0
2020-08-13 11:57:04.1000,0.26,-0.28,0.08
2020-08-13 11:57:04.1980,0.59,-0.19,-0.01
2020-08-13 11:57:04.2980,0.74,-0.0,-0.09
2020-08-13 11:57:04.3970,0.61,-0.03,-0.0
2020-08-13 11:57:04.4970,-0.13,-0.28,-0.17
2020-08-13 11:57:04.5960,0.17,-0.04,0.16
2020-08-13 11:57:04.6960,-0.02,0.04,0.05
2020-08-13 11:57:04.7940,-0.05,0.02,-0.01
2020-08-13 11:57:04.8940,-0.08,0.03,0.04
2020-08-13 11:57:04.9930,-0.03,0.01,0.01
2020-08-13 11:57:05.0920,-0.04,0.01,0.01
2020-08-13 11:57:05.1910,-0.05,-0.01,0.01
2020-08-13 11:57:05.2900,-0.03,-0.04,0.04
2020-08-13 11:57:05.3900,-0.13,-0.12,0.04
2020-08-13 11:57:05.4900,-0.17,-0.3,-0.01
2020-08-13 11:57:05.5880,-0.69,-0.29,0.18
2020-08-13 11:57:05.6870,0.03,-0.06,0.21
2020-08-13 11:57:05.7870,-0.62,0.2,0.02
2020-08-13 11:57:05.8860,-0.29,-0.13,0.03
2020-08-13 11:57:05.9860,0.19,-0.35,0.02
2020-08-13 11:57:06.0850,0.32,-0.21,0.02
2020-08-13 11:57:06.1840,0.53,-0.13,0.03
2020-08-13 11:57:06.2830,0.64,-0.02,0.0
2020-08-13 11:57:06.3830,0.57,-0.08,-0.05
2020-08-13 11:57:06.4810,0.18,-0.29,-0.2
2020-08-13 11:57:06.5810,0.24,-0.06,0.03
2020-08-13 11:57:06.6800,0.1,-0.02,0.0
2020-08-13 11:57:06.7790,0.03,-0.01,0.01
2020-08-13 11:57:06.8790,0.0,0.01,0.02
2020-08-13 11:57:06.9780,-0.01,0.01,0.02
2020-08-13 11:57:07.0770,-0.06,0.02,0.02
2020-08-13 11:57:07.1760,-0.05,-0.02,-0.02
2020-08-13 11:57:07.2760,-0.01,-0.04,-0.04
2020-08-13 11:57:07.3750,-0.1,-0.05,0.07
2020-08-13 11:57:07.4750,-0.16,-0.3,-0.01
2020-08-13 11:57:07.5730,-0.58,-0.31,-0.03
2020-08-13 11:57:07.6730,0.08,-0.24,0.14
2020-08-13 11:57:07.7720,-1.03,0.34,0.28
2020-08-13 11:57:07.8720,-0.59,0.17,0.01
2020-08-13 11:57:07.9700,-0.02,-0.28,-0.05
2020-08-13 11:57:08.0700,0.27,-0.34,0.04
2020-08-13 11:57:08.1690,0.54,-0.19,-0.02
2020-08-13 11:57:08.2680,0.77,-0.03,-0.02
2020-08-13 11:57:08.3680,0.23,-0.26,-0.01
2020-08-13 11:57:08.4670,0.45,-0.24,-0.18
2020-08-13 11:57:08.5660,0.08,-0.01,-0.11
2020-08-13 11:57:08.6650,0.05,-0.0,0.07
2020-08-13 11:57:08.7650,-0.07,0.03,-0.0
2020-08-13 11:57:08.8640,-0.05,0.01,0.0
2020-08-13 11:57:08.9640,-0.02,0.01,0.01
2020-08-13 11:57:09.0620,-0.06,0.01,-0.01
2020-08-13 11:57:09.1620,-0.06,-0.0,-0.01
2020-08-13 11:57:09.2610,-0.04,-0.07,0.02
2020-08-13 11:57:09.3600,-0.13,-0.14,-0.08
2020-08-13 11:57:09.4590,-0.26,-0.5,0.01
2020-08-13 11:57:09.5590,-0.4,-0.23,0.24
2020-08-13 11:57:09.6580,-0.96,-0.01,0.19
2020-08-13 11:57:09.7570,-0.57,0.19,0.09
2020-08-13 11:57:09.8560,-0.12,-0.3,0.06
2020-08-13 11:57:09.9560,0.2,-0.3,0.01
2020-08-13 11:57:10.0550,0.57,-0.28,-0.1
2020-08-13 11:57:10.1550,0.62,-0.07,-0.05
2020-08-13 11:57:10.2530,0.71,-0.01,-0.04
2020-08-13 11:57:10.3530,-1.61,0.3,-0.14
2020-08-13 11:57:10.4520,0.2,-0.19,0.11
2020-08-13 11:57:10.5520,-0.05,-0.01,-0.1
2020-08-13 11:57:10.6500,-0.02,-0.0,0.0
2020-08-13 11:57:10.7500,-0.03,0.03,0.01
2020-08-13 11:57:10.8490,-0.07,0.03,0.03
2020-08-13 11:57:10.9490,-0.01,-0.02,-0.01
2020-08-13 11:57:11.0470,-0.05,-0.01,0.04
2020-08-13 11:57:11.1470,-0.05,0.01,0.02
2020-08-13 11:57:11.2460,-0.06,-0.06,-0.0
2020-08-13 11:57:11.3460,-0.16,-0.18,0.02
2020-08-13 11:57:11.4440,-0.22,-0.4,-0.05
2020-08-13 11:57:11.5440,-0.35,-0.18,0.13
2020-08-13 11:57:11.6430,-0.89,0.01,0.15
2020-08-13 11:57:11.7430,-0.56,0.18,0.14
2020-08-13 11:57:11.8420,0.03,-0.42,0.13
2020-08-13 11:57:11.9410,0.21,-0.29,0.03
2020-08-13 11:57:12.0400,0.57,-0.18,-0.05
2020-08-13 11:57:12.1400,0.59,-0.14,-0.01
2020-08-13 11:57:12.2390,0.55,-0.01,-0.04
2020-08-13 11:57:12.3380,-0.81,-0.11,0.03
2020-08-13 11:57:12.4370,0.14,-0.12,0.27
2020-08-13 11:57:12.5370,-0.06,-0.01,-0.05
2020-08-13 11:57:12.6360,-0.04,-0.0,0.02
2020-08-13 11:57:12.7350,-0.02,0.01,0.0
2020-08-13 11:57:12.8340,-0.04,0.02,0.02
2020-08-13 11:57:12.9340,-0.04,0.02,0.03
2020-08-13 11:57:13.0330,-0.04,0.01,-0.0
2020-08-13 11:57:13.1320,-0.03,-0.03,-0.02
2020-08-13 11:57:13.2310,-0.03,-0.1,-0.03
2020-08-13 11:57:13.3310,-0.11,-0.14,0.06
2020-08-13 11:57:13.4300,-0.33,-0.38,0.05
2020-08-13 11:57:13.5290,-0.26,-0.26,0.09
2020-08-13 11:57:13.6280,-0.36,-0.11,0.3
2020-08-13 11:57:13.7280,-0.57,0.15,0.03
2020-08-13 11:57:13.8270,-0.23,-0.13,0.05
2020-08-13 11:57:13.9270,0.18,-0.31,0.03
2020-08-13 11:57:14.0250,0.33,-0.15,-0.01
2020-08-13 11:57:14.1250,0.46,-0.11,-0.1
2020-08-13 11:57:14.2240,0.7,-0.07,-0.08
2020-08-13 11:57:14.3240,0.46,-0.12,0.23
2020-08-13 11:57:14.4220,0.38,-0.13,-0.27
2020-08-13 11:57:14.5220,0.19,-0.04,-0.16
2020-08-13 11:57:14.6210,0.1,-0.01,0.0
2020-08-13 11:57:14.7210,0.0,-0.0,0.01
2020-08-13 11:57:14.8190,-0.05,0.03,0.02
2020-08-13 11:57:14.9190,-0.02,-0.0,-0.0
2020-08-13 11:57:15.0180,-0.05,0.0,0.05
2020-08-13 11:57:15.1180,-0.07,-0.0,0.01
2020-08-13 11:57:15.2160,-0.1,-0.05,0.04
2020-08-13 11:57:15.3160,-0.16,-0.14,0.04
2020-08-13 11:57:15.4150,-0.22,-0.45,-0.08
2020-08-13 11:57:15.5150,-0.44,-0.18,0.3
2020-08-13 11:57:15.6130,-0.48,-0.23,0.11
2020-08-13 11:57:15.7130,-0.57,0.17,0.13
2020-08-13 11:57:15.8120,-0.14,-0.28,0.13
2020-08-13 11:57:15.9120,0.08,-0.26,0.03
2020-08-13 11:57:16.0100,0.4,-0.26,-0.02
2020-08-13 11:57:16.1100,0.69,-0.18,0.03
2020-08-13 11:57:16.2090,0.66,0.02,-0.04
2020-08-13 11:57:16.3090,-0.74,-0.11,-0.25
2020-08-13 11:57:16.4070,0.21,-0.17,-0.01
2020-08-13 11:57:16.5080,-0.07,-0.04,-0.05
2020-08-13 11:57:16.6060,-0.11,0.01,0.05
2020-08-13 11:57:16.7060,-0.07,0.0,0.02
2020-08-13 11:57:16.8050,-0.03,0.02,0.02
2020-08-13 11:57:16.9040,-0.01,0.01,-0.0
2020-08-13 11:57:17.0030,0.0,0.05,-0.02
2020-08-13 11:57:17.1030,-0.01,-0.03,-0.05
2020-08-13 11:57:17.2010,-0.05,-0.1,0.0
2020-08-13 11:57:17.3010,-0.15,-0.18,0.04
2020-08-13 11:57:17.4000,-0.32,-0.53,-0.07
2020-08-13 11:57:17.5000,-0.13,-0.23,0.06
2020-08-13 11:57:17.5990,-0.92,0.15,0.08
2020-08-13 11:57:17.6980,-0.56,0.16,0.07
2020-08-13 11:57:17.7970,-0.03,-0.27,0.04
2020-08-13 11:57:17.8960,0.19,-0.31,0.03
2020-08-13 11:57:17.9960,0.51,-0.26,-0.02
2020-08-13 11:57:18.0950,0.72,-0.14,-0.08
2020-08-13 11:57:18.1940,0.78,0.01,0.01
2020-08-13 11:57:18.2940,-0.2,-0.36,-0.07
2020-08-13 11:57:18.3930,0.16,-0.02,0.14
2020-08-13 11:57:18.4920,0.04,-0.03,-0.06
2020-08-13 11:57:18.5910,0.02,-0.01,-0.0
2020-08-13 11:57:18.6910,0.04,0.02,0.02
2020-08-13 11:57:18.7900,0.02,-0.0,-0.01
2020-08-13 11:57:18.8890,-0.03,-0.01,-0.01
2020-08-13 11:57:18.9880,-0.11,0.03,0.09
2020-08-13 11:57:19.0880,-0.08,-0.03,-0.01
2020-08-13 11:57:19.1870,-0.11,-0.07,0.07
2020-08-13 11:57:19.2870,-0.23,-0.33,-0.01
2020-08-13 11:57:19.3850,-0.42,-0.22,0.13
2020-08-13 11:57:19.4850,-0.08,-0.12,0.09
2020-08-13 11:57:19.5840,-0.71,0.16,0.16
2020-08-13 11:57:19.6840,-0.27,-0.08,0.04
2020-08-13 11:57:19.7820,0.03,-0.29,0.04
2020-08-13 11:57:19.8820,0.29,-0.26,0.04
2020-08-13 11:57:19.9810,0.54,-0.13,-0.06
2020-08-13 11:57:20.0810,0.79,-0.06,-0.03
2020-08-13 11:57:20.1790,0.23,-0.33,0.08
2020-08-13 11:57:20.2790,0.39,-0.12,-0.16
2020-08-13 11:57:20.3780,0.06,0.0,-0.16
2020-08-13 11:57:20.4780,0.05,0.01,0.03
2020-08-13 11:57:20.5760,0.01,-0.02,-0.04
2020-08-13 11:57:20.6760,-0.01,0.01,0.05
2020-08-13 11:57:20.7750,-0.01,0.01,0.02
2020-08-13 11:57:20.8750,-0.02,-0.01,-0.03
2020-08-13 11:57:20.9730,-0.06,-0.0,0.04
2020-08-13 11:57:21.0730,-0.11,-0.06,-0.02
2020-08-13 11:57:21.1720,-0.19,-0.22,-0.0
2020-08-13 11:57:21.2720,-0.53,-0.41,-0.14
2020-08-13 11:57:21.3700,-0.01,-0.35,0.27
2020-08-13 11:57:21.4700,-1.1,0.19,0.04
2020-08-13 11:57:21.5690,-0.61,0.25,0.09
2020-08-13 11:57:21.6690,0.01,-0.4,0.05
2020-08-13 11:57:21.7670,0.24,-0.29,-0.02
2020-08-13 11:57:21.8670,0.52,-0.24,-0.09
2020-08-13 11:57:21.9670,0.7,-0.1,-0.01
2020-08-13 11:57:22.0650,0.65,0.03,-0.01
2020-08-13 11:57:22.1650,-0.0,-0.3,-0.09
2020-08-13 11:57:22.2640,0.23,-0.09,0.19
2020-08-13 11:57:22.3630,-0.11,0.03,-0.06
2020-08-13 11:57:22.4620,-0.02,-0.01,-0.03
2020-08-13 11:57:22.5620,-0.05,0.02,0.01
2020-08-13 11:57:22.6610,-0.05,0.02,0.01
2020-08-13 11:57:22.7610,-0.03,0.02,0.02
2020-08-13 11:57:22.8590,-0.05,-0.01,-0.0
2020-08-13 11:57:22.9590,-0.02,-0.01,0.01
2020-08-13 11:57:23.0580,-0.08,-0.1,-0.01
2020-08-13 11:57:23.1580,-0.2,-0.27,0.03
2020-08-13 11:57:23.2560,-0.39,-0.34,0.0
2020-08-13 11:57:23.3560,-0.12,-0.11,0.08
2020-08-13 11:57:23.4550,-0.79,0.21,0.23
2020-08-13 11:57:23.5550,-0.47,0.12,0.02
2020-08-13 11:57:23.6530,0.05,-0.3,0.04
2020-08-13 11:57:23.7530,0.19,-0.24,0.09
2020-08-13 11:57:23.8520,0.35,-0.18,-0.06
2020-08-13 11:57:23.9510,0.63,-0.08,-0.04
2020-08-13 11:57:24.0500,0.83,-0.01,0.04
2020-08-13 11:57:24.1500,-0.26,-0.37,0.0
2020-08-13 11:57:24.2490,0.07,0.05,0.18
2020-08-13 11:57:24.3490,-0.04,-0.04,-0.0
2020-08-13 11:57:24.4480,-0.02,0.02,0.01
2020-08-13 11:57:24.5470,0.03,-0.02,-0.04
2020-08-13 11:57:24.6460,-0.01,-0.0,0.01
2020-08-13 11:57:24.7460,-0.03,0.01,-0.01
2020-08-13 11:57:24.8440,0.02,-0.01,-0.01
2020-08-13 11:57:24.9450,-0.04,-0.03,0.02
2020-08-13 11:57:25.0430,-0.1,-0.11,0.01
2020-08-13 11:57:25.1430,-0.17,-0.29,-0.04
2020-08-13 11:57:25.2420,-0.51,-0.32,0.12
2020-08-13 11:57:25.3410,-0.18,-0.08,0.3
2020-08-13 11:57:25.4410,-0.55,0.09,0.02
2020-08-13 11:57:25.5390,-0.39,-0.06,0.05
2020-08-13 11:57:25.6390,0.25,-0.27,0.03
2020-08-13 11:57:25.7390,0.32,-0.21,0.01
2020-08-13 11:57:25.8370,0.5,-0.16,-0.04
2020-08-13 11:57:25.9370,0.67,-0.05,-0.05
2020-08-13 11:57:26.0350,0.21,-0.21,0.08
2020-08-13 11:57:26.1350,0.56,-0.24,-0.26
2020-08-13 11:57:26.2340,-0.06,0.07,0.04
2020-08-13 11:57:26.3340,0.06,-0.01,0.07
2020-08-13 11:57:26.4330,-0.02,-0.01,-0.04
2020-08-13 11:57:26.5320,0.02,-0.0,-0.03
2020-08-13 11:57:26.6320,-0.03,-0.0,0.04
2020-08-13 11:57:26.7310,-0.01,-0.01,-0.04
2020-08-13 11:57:26.8300,-0.06,-0.01,-0.01
2020-08-13 11:57:26.9300,-0.05,-0.05,-0.05
2020-08-13 11:57:27.0280,-0.08,-0.1,0.0
2020-08-13 11:57:27.1280,-0.31,-0.42,0.03
2020-08-13 11:57:27.2270,-0.46,-0.35,0.32
2020-08-13 11:57:27.3260,-0.24,0.0,0.17
2020-08-13 11:57:27.4250,-0.58,0.24,0.03
2020-08-13 11:57:27.5250,-0.33,-0.1,0.09
2020-08-13 11:57:27.6240,0.12,-0.21,0.03
2020-08-13 11:57:27.7240,0.34,-0.36,-0.03
2020-08-13 11:57:27.8220,0.65,-0.23,-0.01
2020-08-13 11:57:27.9210,0.72,0.0,-0.02
2020-08-13 11:57:28.0210,0.45,-0.22,0.04
2020-08-13 11:57:28.1210,0.37,-0.1,-0.2
2020-08-13 11:57:28.2190,0.04,-0.01,0.03
2020-08-13 11:57:28.3190,0.05,-0.01,0.04
2020-08-13 11:57:28.4180,-0.03,-0.01,-0.01
2020-08-13 11:57:28.5180,-0.06,0.01,0.02
2020-08-13 11:57:28.6160,-0.04,-0.0,0.01
2020-08-13 11:57:28.7160,-0.06,0.04,0.02
2020-08-13 11:57:28.8150,-0.02,0.02,-0.0
2020-08-13 11:57:28.9150,-0.05,-0.03,-0.05
2020-08-13 11:57:29.0130,-0.12,-0.07,0.02
2020-08-13 11:57:29.1130,-0.13,-0.19,-0.01
2020-08-13 11:57:29.2120,-0.4,-0.4,0.04
2020-08-13 11:57:29.3120,-0.12,-0.17,0.09
2020-08-13 11:57:29.4100,-1.11,0.33,0.25
2020-08-13 11:57:29.5100,-0.62,0.11,0.01
2020-08-13 11:57:29.6090,-0.02,-0.3,-0.02
2020-08-13 11:57:29.7090,0.25,-0.23,0.03
2020-08-13 11:57:29.8070,0.34,-0.18,-0.05
2020-08-13 11:57:29.9070,0.63,-0.06,-0.06
2020-08-13 11:57:30.0060,0.59,-0.0,-0.03
2020-08-13 11:57:30.1060,-1.06,-0.02,-0.03
2020-08-13 11:57:30.2040,0.19,-0.21,0.0
2020-08-13 11:57:30.3040,-0.11,0.06,-0.05
2020-08-13 11:57:30.4030,-0.09,0.02,0.07
2020-08-13 11:57:30.5020,-0.01,-0.01,0.02
2020-08-13 11:57:30.6010,-0.05,-0.01,0.0
2020-08-13 11:57:30.7020,-0.01,-0.01,0.01
2020-08-13 11:57:30.8000,-0.05,0.06,0.03
2020-08-13 11:57:30.9000,-0.02,-0.03,-0.01
2020-08-13 11:57:30.9990,-0.04,-0.14,-0.05
2020-08-13 11:57:31.0980,-0.21,-0.19,0.05
2020-08-13 11:57:31.1970,-0.44,-0.41,0.04
2020-08-13 11:57:31.2970,-0.09,-0.06,0.11
2020-08-13 11:57:31.3960,-0.88,0.23,0.19
2020-08-13 11:57:31.4950,-0.53,0.08,0.09
2020-08-13 11:57:31.5940,0.08,-0.27,-0.02
2020-08-13 11:57:31.6930,0.11,-0.21,0.01
2020-08-13 11:57:31.7930,0.36,-0.24,-0.01
2020-08-13 11:57:31.8920,0.72,-0.11,-0.03
2020-08-13 11:57:31.9910,0.82,-0.01,-0.03
2020-08-13 11:57:32.0910,-0.67,-0.29,0.13
2020-08-13 11:57:32.1900,0.09,-0.06,0.23
2020-08-13 11:57:32.2890,-0.04,-0.02,-0.03
2020-08-13 11:57:32.3880,-0.01,-0.0,0.01
2020-08-13 11:57:32.4880,-0.06,0.04,0.02
2020-08-13 11:57:32.5870,-0.03,0.0,-0.02
2020-08-13 11:57:32.6860,-0.03,0.02,0.01
2020-08-13 11:57:32.7850,-0.05,0.04,0.01
2020-08-13 11:57:32.8850,-0.02,-0.03,-0.02
2020-08-13 11:57:32.9840,-0.03,-0.08,0.01
2020-08-13 11:57:33.0830,-0.19,-0.17,0.03
2020-08-13 11:57:33.1820,-0.25,-0.46,-0.14
2020-08-13 11:57:33.2820,-0.24,-0.2,0.12
2020-08-13 11:57:33.3810,-1.01,0.12,0.17
2020-08-13 11:57:33.4810,-0.63,0.22,0.13
2020-08-13 11:57:33.5790,-0.16,-0.31,0.06
2020-08-13 11:57:33.6790,0.22,-0.31,0.03
2020-08-13 11:57:33.7780,0.33,-0.17,-0.11
2020-08-13 11:57:33.8780,0.64,-0.12,-0.04
2020-08-13 11:57:33.9760,0.89,-0.01,0.03
2020-08-13 11:57:34.0760,-0.66,-0.28,0.05
2020-08-13 11:57:34.1750,0.36,-0.02,0.06
2020-08-13 11:57:34.2750,0.14,-0.04,-0.03
2020-08-13 11:57:34.3730,0.0,-0.0,0.01
2020-08-13 11:57:34.4730,0.0,-0.0,-0.07
2020-08-13 11:57:34.5720,0.03,-0.01,-0.02
2020-08-13 11:57:34.6710,-0.04,0.02,0.03
2020-08-13 11:57:34.7710,0.01,0.01,-0.02
2020-08-13 11:57:34.8700,0.02,-0.04,-0.05
2020-08-13 11:57:34.9690,-0.06,-0.06,-0.03
2020-08-13 11:57:35.0680,-0.1,-0.17,-0.05
2020-08-13 11:57:35.1680,-0.21,-0.41,-0.03
2020-08-13 11:57:35.2670,-0.3,-0.27,0.17
2020-08-13 11:57:35.3660,-1.09,0.13,0.15
2020-08-13 11:57:35.4650,-0.55,0.18,0.08
2020-08-13 11:57:35.5650,-0.02,-0.26,0.01
2020-08-13 11:57:35.6640,0.17,-0.3,0.05
2020-08-13 11:57:35.7630,0.42,-0.22,-0.04
2020-08-13 11:57:35.8620,0.67,-0.07,-0.06
2020-08-13 11:57:35.9610,0.83,-0.02,0.02
2020-08-13 11:57:36.0610,-1.04,-0.21,0.28
2020-08-13 11:57:36.1600,0.34,-0.14,0.19
2020-08-13 11:57:36.2600,0.07,-0.01,-0.05
2020-08-13 11:57:36.3590,0.0,0.0,0.01
2020-08-13 11:57:36.4580,-0.0,0.01,0.01
2020-08-13 11:57:36.5570,-0.01,0.02,-0.01
2020-08-13 11:57:36.6570,-0.02,0.01,0.0
2020-08-13 11:57:36.7560,-0.03,0.0,0.0
2020-08-13 11:57:36.8550,-0.04,-0.0,-0.0
2020-08-13 11:57:36.9540,-0.04,-0.03,0.02
2020-08-13 11:57:37.0540,-0.17,-0.15,0.03
2020-08-13 11:57:37.1530,-0.25,-0.45,-0.02
2020-08-13 11:57:37.2520,-0.46,-0.2,0.21
2020-08-13 11:57:37.3520,-0.16,-0.04,0.25
2020-08-13 11:57:37.4500,-0.46,0.13,0.08
2020-08-13 11:57:37.5500,-0.21,-0.18,-0.03
2020-08-13 11:57:37.6490,0.15,-0.35,0.02
2020-08-13 11:57:37.7490,0.59,-0.3,-0.01
2020-08-13 11:57:37.8470,0.53,-0.08,-0.09
2020-08-13 11:57:37.9470,0.75,0.01,-0.08
2020-08-13 11:57:38.0460,-0.58,-0.14,0.04
2020-08-13 11:57:38.1450,0.5,-0.22,-0.1
2020-08-13 11:57:38.2440,-0.04,0.04,-0.13
2020-08-13 11:57:38.3440,-0.07,0.01,0.08
2020-08-13 11:57:38.4440,-0.02,-0.02,0.01
2020-08-13 11:57:38.5420,-0.02,0.01,0.01
2020-08-13 11:57:38.6420,0.0,-0.02,-0.0
2020-08-13 11:57:38.7410,-0.01,-0.0,-0.01
2020-08-13 11:57:38.8410,-0.03,-0.03,0.02
2020-08-13 11:57:38.9400,-0.05,-0.04,-0.03
2020-08-13 11:57:39.0390,-0.13,-0.08,0.08
2020-08-13 11:57:39.1380,-0.43,-0.53,0.0
2020-08-13 11:57:39.2370,-0.0,-0.37,0.12
2020-08-13 11:57:39.3370,-0.79,0.07,0.15
2020-08-13 11:57:39.4360,-0.52,0.22,0.09
2020-08-13 11:57:39.5360,-0.11,-0.3,0.07
2020-08-13 11:57:39.6340,0.11,-0.28,0.1
2020-08-13 11:57:39.7330,0.47,-0.3,-0.02
2020-08-13 11:57:39.8330,0.77,-0.13,-0.07
2020-08-13 11:57:39.9320,0.77,-0.03,-0.1
2020-08-13 11:57:40.0310,-1.15,0.14,0.06
2020-08-13 11:57:40.1300,-0.04,-0.09,0.1
2020-08-13 11:57:40.2300,-0.13,0.01,-0.13
2020-08-13 11:57:40.3290,-0.03,0.01,0.05
2020-08-13 11:57:40.4280,-0.02,0.01,0.0
2020-08-13 11:57:40.5270,0.01,-0.02,0.02
2020-08-13 11:57:40.6270,-0.05,0.01,0.01
2020-08-13 11:57:40.7260,-0.07,0.01,0.03
2020-08-13 11:57:40.8250,-0.07,-0.03,0.0
2020-08-13 11:57:40.9250,-0.02,-0.12,-0.12
2020-08-13 11:57:41.0240,-0.19,-0.38,0.12
2020-08-13 11:57:41.1230,-0.64,-0.3,0.13
2020-08-13 11:57:41.2220,-0.06,-0.04,0.23
2020-08-13 11:57:41.3220,-0.53,0.11,0.1
2020-08-13 11:57:41.4210,-0.36,0.02,0.01
2020-08-13 11:57:41.5200,0.0,-0.27,0.0
2020-08-13 11:57:41.6200,0.3,-0.27,0.05
2020-08-13 11:57:41.7190,0.48,-0.16,-0.04
2020-08-13 11:57:41.8180,0.6,-0.02,0.02
2020-08-13 11:57:41.9170,0.69,-0.1,-0.02
2020-08-13 11:57:42.0170,0.33,-0.33,-0.19
2020-08-13 11:57:42.1160,0.11,-0.06,0.12
2020-08-13 11:57:42.2150,0.02,-0.0,0.05
2020-08-13 11:57:42.3140,-0.07,0.02,0.01
2020-08-13 11:57:42.4140,-0.06,0.01,0.02
2020-08-13 11:57:42.5130,-0.04,-0.0,-0.01
2020-08-13 11:57:42.6130,-0.02,-0.03,0.03
2020-08-13 11:57:42.7110,-0.08,0.0,0.01
2020-08-13 11:57:42.8100,-0.1,-0.05,0.04
2020-08-13 11:57:42.9100,-0.1,-0.12,-0.03
2020-08-13 11:57:43.0090,-0.18,-0.51,-0.03
2020-08-13 11:57:43.1090,-0.4,-0.33,0.22
2020-08-13 11:57:43.2070,-0.57,-0.24,0.16
2020-08-13 11:57:43.3070,-0.69,0.25,0.04
2020-08-13 11:57:43.4060,-0.35,-0.1,0.08
2020-08-13 11:57:43.5050,0.12,-0.3,0.0
2020-08-13 11:57:43.6040,0.53,-0.41,-0.02
2020-08-13 11:57:43.7040,0.68,-0.16,-0.02
2020-08-13 11:57:43.8030,0.86,-0.04,-0.02
2020-08-13 11:57:43.9020,-1.26,-0.03,-0.09
2020-08-13 11:57:44.0020,0.15,-0.13,0.16
2020-08-13 11:57:44.1010,-0.1,0.01,-0.1
2020-08-13 11:57:44.2000,-0.03,0.02,0.05
2020-08-13 11:57:44.3000,-0.04,0.01,-0.0
2020-08-13 11:57:44.3990,-0.02,0.01,0.01
2020-08-13 11:57:44.4980,0.01,-0.03,-0.03
2020-08-13 11:57:44.5970,0.01,-0.02,0.02
2020-08-13 11:57:44.6970,-0.08,-0.01,-0.03
2020-08-13 11:57:44.7960,-0.1,-0.08,0.06
2020-08-13 11:57:44.8950,-0.22,-0.37,-0.02
2020-08-13 11:57:44.9940,-0.39,-0.36,0.23
2020-08-13 11:57:45.0940,-0.5,-0.16,0.08
2020-08-13 11:57:45.1930,-0.65,0.17,0.13
2020-08-13 11:57:45.2920,-0.29,-0.15,0.09
2020-08-13 11:57:45.3910,0.11,-0.22,0.04
2020-08-13 11:57:45.4910,0.42,-0.3,0.0
2020-08-13 11:57:45.5900,0.78,-0.15,0.05
2020-08-13 11:57:45.6890,0.73,0.01,-0.03
2020-08-13 11:57:45.7880,-1.03,-0.15,-0.09
2020-08-13 11:57:45.8880,0.47,-0.37,0.24
2020-08-13 11:57:45.9870,0.21,-0.07,-0.11
2020-08-13 11:57:46.0870,-0.04,-0.0,-0.01
2020-08-13 11:57:46.1850,-0.04,0.03,0.04
2020-08-13 11:57:46.2850,-0.02,0.02,0.02
2020-08-13 11:57:46.3840,-0.05,0.02,-0.06
2020-08-13 11:57:46.4830,-0.06,-0.03,0.01
2020-08-13 11:57:46.5830,-0.08,-0.06,-0.02
2020-08-13 11:57:46.6820,-0.08,-0.14,-0.05
2020-08-13 11:57:46.7810,-0.3,-0.66,0.05
2020-08-13 11:57:46.8800,-0.17,-0.2,0.09
2020-08-13 11:57:46.9800,-1.04,-0.06,0.03
2020-08-13 11:57:47.0780,-0.63,0.07,0.04
2020-08-13 11:57:47.1780,-0.23,-0.16,0.1
2020-08-13 11:57:47.2770,0.17,-0.23,0.08
2020-08-13 11:57:47.3770,0.54,-0.21,0.01
2020-08-13 11:57:47.4760,0.7,-0.17,-0.02
2020-08-13 11:57:47.5750,0.81,0.0,0.0
2020-08-13 11:57:47.6740,-0.96,-0.25,-0.01
2020-08-13 11:57:47.7740,0.17,-0.07,0.03
2020-08-13 11:57:47.8730,0.16,-0.06,-0.06
2020-08-13 11:57:47.9720,0.02,-0.01,0.03
2020-08-13 11:57:48.0710,-0.03,0.02,0.05
2020-08-13 11:57:48.1710,-0.02,-0.04,-0.01
2020-08-13 11:57:48.2700,-0.03,-0.0,-0.0
2020-08-13 11:57:48.3690,-0.05,-0.01,-0.02
2020-08-13 11:57:48.4690,-0.05,-0.05,0.01
2020-08-13 11:57:48.5670,-0.07,-0.09,-0.01
2020-08-13 11:57:48.6670,-0.15,-0.29,0.02
2020-08-13 11:57:48.7660,-0.67,-0.1,0.24
2020-08-13 11:57:48.8660,-0.2,-0.23,0.26
2020-08-13 11:57:48.9640,-0.59,0.2,0.14
2020-08-13 11:57:49.0640,-0.15,-0.09,0.05
2020-08-13 11:57:49.1640,0.02,-0.2,0.02
2020-08-13 11:57:49.2620,0.24,-0.24,0.06
2020-08-13 11:57:49.3620,0.54,-0.22,-0.07
2020-08-13 11:57:49.4610,0.73,-0.06,-0.15
2020-08-13 11:57:49.5600,0.44,-0.12,0.11
2020-08-13 11:57:49.6600,0.2,-0.11,-0.12
2020-08-13 11:57:49.7590,0.26,-0.22,0.21
2020-08-13 11:57:49.8580,-0.01,0.03,0.07
2020-08-13 11:57:49.9570,-0.02,-0.0,-0.05
2020-08-13 11:57:50.0570,-0.03,0.01,-0.02
2020-08-13 11:57:50.1560,0.04,0.01,-0.04
2020-08-13 11:57:50.2550,-0.04,0.02,0.01
2020-08-13 11:57:50.3540,-0.11,0.06,0.04
2020-08-13 11:57:50.4530,-0.07,-0.04,0.0
2020-08-13 11:57:50.5530,-0.07,-0.11,-0.03
2020-08-13 11:57:50.6520,-0.13,-0.33,0.03
2020-08-13 11:57:50.7520,-0.71,-0.23,0.21
2020-08-13 11:57:50.8500,0.11,-0.23,0.25
2020-08-13 11:57:50.9490,-0.64,0.15,0.15
2020-08-13 11:57:51.0490,-0.37,0.01,0.02
2020-08-13 11:57:51.1490,0.08,-0.3,0.0
2020-08-13 11:57:51.2470,0.28,-0.22,0.08
2020-08-13 11:57:51.3470,0.53,-0.26,-0.02
2020-08-13 11:57:51.4460,0.82,-0.03,-0.02
2020-08-13 11:57:51.5460,0.05,-0.13,-0.04
2020-08-13 11:57:51.6440,0.3,-0.22,-0.21
2020-08-13 11:57:51.7440,0.16,-0.05,-0.09
2020-08-13 11:57:51.8430,0.07,-0.02,0.02
2020-08-13 11:57:51.9430,-0.03,-0.02,-0.01
2020-08-13 11:57:52.0420,-0.01,-0.0,0.01
2020-08-13 11:57:52.1420,-0.02,-0.01,0.0
2020-08-13 11:57:52.2400,-0.06,-0.01,0.0
2020-08-13 11:57:52.3390,-0.05,-0.01,0.03
2020-08-13 11:57:52.4380,-0.04,-0.05,-0.02
2020-08-13 11:57:52.5380,-0.11,-0.07,0.0
2020-08-13 11:57:52.6370,-0.11,-0.23,0.06
2020-08-13 11:57:52.7370,-0.47,-0.41,0.12
2020-08-13 11:57:52.8360,-0.04,-0.12,0.09
2020-08-13 11:57:52.9350,-0.78,0.14,0.29
2020-08-13 11:57:53.0350,-0.41,-0.01,-0.02
2020-08-13 11:57:53.1330,0.05,-0.3,-0.03
2020-08-13 11:57:53.2330,0.33,-0.19,0.06
2020-08-13 11:57:53.3320,0.41,-0.1,-0.01
2020-08-13 11:57:53.4320,0.65,-0.11,-0.04
2020-08-13 11:57:53.5300,0.53,-0.01,-0.05
2020-08-13 11:57:53.6300,-0.02,-0.24,-0.11
2020-08-13 11:57:53.7290,0.17,-0.03,0.1
2020-08-13 11:57:53.8290,-0.09,0.03,0.03
2020-08-13 11:57:53.9270,-0.03,0.01,-0.05
2020-08-13 11:57:54.0270,0.02,0.0,0.0
2020-08-13 11:57:54.1260,-0.02,0.0,-0.0
2020-08-13 11:57:54.2260,-0.01,0.0,-0.0
2020-08-13 11:57:54.3240,-0.03,-0.01,-0.02
2020-08-13 11:57:54.4240,-0.03,-0.05,-0.01
2020-08-13 11:57:54.5230,-0.02,-0.17,-0.12
2020-08-13 11:57:54.6230,-0.17,-0.42,-0.13
2020-08-13 11:57:54.7220,-0.51,-0.23,0.28
2020-08-13 11:57:54.8210,-0.48,-0.17,0.26
2020-08-13 11:57:54.9200,-0.53,0.14,0.07
2020-08-13 11:57:55.0200,-0.28,-0.07,0.06
2020-08-13 11:57:55.1190,0.19,-0.32,0.07
2020-08-13 11:57:55.2180,0.37,-0.18,-0.06
2020-08-13 11:57:55.3180,0.46,-0.2,-0.11
2020-08-13 11:57:55.4160,0.73,-0.03,-0.06
2020-08-13 11:57:55.5160,-0.81,-0.17,-0.01
2020-08-13 11:57:55.6150,0.12,-0.07,0.17
2020-08-13 11:57:55.7150,-0.03,-0.01,-0.06
2020-08-13 11:57:55.8130,0.02,0.01,0.01
2020-08-13 11:57:55.9130,-0.04,0.02,0.0
2020-08-13 11:57:56.0120,0.03,-0.01,-0.04
2020-08-13 11:57:56.1120,0.02,-0.02,0.09
2020-08-13 11:57:56.2100,-0.03,-0.01,-0.03
2020-08-13 11:57:56.3100,-0.06,-0.02,0.03
2020-08-13 11:57:56.4090,-0.07,-0.05,-0.0
2020-08-13 11:57:56.5090,-0.09,-0.12,-0.03
2020-08-13 11:57:56.6070,-0.27,-0.39,0.01
2020-08-13 11:57:56.7070,-0.49,-0.39,0.26
2020-08-13 11:57:56.8060,-0.17,-0.08,0.25
2020-08-13 11:57:56.9060,-0.49,0.16,0.09
2020-08-13 11:57:57.0040,-0.34,-0.01,0.08
2020-08-13 11:57:57.1040,0.19,-0.32,0.11
2020-08-13 11:57:57.2030,0.38,-0.18,0.09
2020-08-13 11:57:57.3020,0.43,-0.2,-0.08
2020-08-13 11:57:57.4020,0.83,-0.09,-0.07
2020-08-13 11:57:57.5010,0.66,-0.03,0.01
2020-08-13 11:57:57.6000,0.45,-0.3,-0.27
2020-08-13 11:57:57.7000,0.01,0.02,0.04
2020-08-13 11:57:57.7990,0.06,-0.0,0.04
2020-08-13 11:57:57.8980,-0.03,-0.01,-0.01
2020-08-13 11:57:57.9970,-0.02,0.01,-0.0
2020-08-13 11:57:58.0970,-0.02,0.02,0.02
2020-08-13 11:57:58.1960,-0.0,0.0,-0.02
2020-08-13 11:57:58.2950,-0.05,-0.02,-0.0
2020-08-13 11:57:58.3940,-0.02,-0.04,0.02
2020-08-13 11:57:58.4940,-0.1,-0.08,0.03
2020-08-13 11:57:58.5930,-0.17,-0.26,-0.05
2020-08-13 11:57:58.6930,-0.37,-0.43,-0.08
2020-08-13 11:57:58.7910,-0.02,-0.15,0.1
2020-08-13 11:57:58.8900,-1.04,0.37,0.21
2020-08-13 11:57:58.9900,-0.57,0.17,0.02
2020-08-13 11:57:59.0890,0.01,-0.21,-0.05
2020-08-13 11:57:59.1880,0.17,-0.26,0.02
2020-08-13 11:57:59.2880,0.27,-0.18,-0.01
2020-08-13 11:57:59.3870,0.56,-0.06,-0.05
2020-08-13 11:57:59.4860,0.53,-0.01,-0.05
2020-08-13 11:57:59.5860,-0.25,-0.16,-0.08
2020-08-13 11:57:59.6850,0.43,-0.22,-0.01
2020-08-13 11:57:59.7840,-0.23,0.08,-0.06
2020-08-13 11:57:59.8830,-0.12,0.04,0.03
2020-08-13 11:57:59.9830,-0.08,0.03,0.07
2020-08-13 11:58:00.0810,-0.0,0.01,-0.05
2020-08-13 11:58:00.1810,-0.03,0.0,0.02
2020-08-13 11:58:00.2800,-0.03,0.0,0.01
2020-08-13 11:58:00.3790,-0.04,-0.01,-0.01
2020-08-13 11:58:00.4790,-0.06,-0.02,0.06
2020-08-13 11:58:00.5780,-0.04,-0.11,-0.06
2020-08-13 11:58:00.6770,-0.14,-0.24,0.04
2020-08-13 11:58:00.7760,-0.27,-0.42,-0.04
2020-08-13 11:58:00.8760,-0.07,-0.11,0.13
2020-08-13 11:58:00.9750,-0.96,0.2,0.16
2020-08-13 11:58:01.0750,-0.56,0.11,0.09
2020-08-13 11:58:01.1730,-0.11,-0.26,0.06
2020-08-13 11:58:01.2730,0.13,-0.24,0.06
2020-08-13 11:58:01.3720,0.41,-0.22,-0.02
2020-08-13 11:58:01.4710,0.71,-0.12,-0.06
2020-08-13 11:58:01.5710,0.69,0.04,0.0
2020-08-13 11:58:01.6700,-0.23,-0.57,-0.1
2020-08-13 11:58:01.7690,0.28,0.09,-0.1
2020-08-13 11:58:01.8680,0.11,-0.06,0.04
2020-08-13 11:58:01.9670,-0.03,-0.01,0.02
2020-08-13 11:58:02.0670,-0.02,-0.0,0.02
2020-08-13 11:58:02.1660,-0.07,0.07,0.07
2020-08-13 11:58:02.2650,0.04,-0.05,-0.09
2020-08-13 11:58:02.3650,0.01,-0.04,-0.01
2020-08-13 11:58:02.4640,-0.06,-0.04,0.01
2020-08-13 11:58:02.5630,-0.06,-0.1,-0.01
2020-08-13 11:58:02.6620,-0.21,-0.25,-0.04
2020-08-13 11:58:02.7620,-0.59,-0.29,0.2
2020-08-13 11:58:02.8610,-0.11,-0.21,0.07
2020-08-13 11:58:02.9610,-0.64,0.22,0.15
2020-08-13 11:58:03.0590,-0.41,-0.04,0.03
2020-08-13 11:58:03.1590,0.03,-0.28,0.02
2020-08-13 11:58:03.2580,0.25,-0.22,0.04
2020-08-13 11:58:03.3570,0.38,-0.18,0.04
2020-08-13 11:58:03.4560,0.67,-0.11,-0.02
2020-08-13 11:58:03.5560,0.59,0.02,-0.06
2020-08-13 11:58:03.6550,-0.86,-0.27,-0.08
2020-08-13 11:58:03.7550,0.03,0.01,0.31
2020-08-13 11:58:03.8530,-0.06,0.01,-0.06
2020-08-13 11:58:03.9530,-0.06,0.03,-0.0
2020-08-13 11:58:04.0520,-0.02,0.02,0.05
2020-08-13 11:58:04.1520,-0.07,0.05,0.01
2020-08-13 11:58:04.2500,0.01,-0.05,-0.08
2020-08-13 11:58:04.3500,-0.01,-0.01,0.0
2020-08-13 11:58:04.4490,-0.0,0.02,-0.01
2020-08-13 11:58:04.5490,-0.0,-0.08,-0.05
2020-08-13 11:58:04.6480,-0.15,-0.2,0.02
2020-08-13 11:58:04.7480,-0.27,-0.37,-0.06
2020-08-13 11:58:04.8460,-0.39,-0.07,0.18
2020-08-13 11:58:04.9460,-0.87,-0.03,0.08
2020-08-13 11:58:05.0440,-0.57,0.15,0.16
2020-08-13 11:58:05.1440,-0.18,-0.23,0.08
2020-08-13 11:58:05.2430,0.22,-0.28,0.04
2020-08-13 11:58:05.3420,0.41,-0.12,-0.03
2020-08-13 11:58:05.4420,0.65,-0.17,-0.04
2020-08-13 11:58:05.5410,0.8,-0.03,-0.03
2020-08-13 11:58:05.6410,-0.89,-0.15,-0.08
2020-08-13 11:58:05.7390,0.24,-0.23,0.01
2020-08-13 11:58:05.8390,0.13,-0.05,0.03
2020-08-13 11:58:05.9380,0.02,0.0,-0.02
2020-08-13 11:58:06.0380,-0.01,0.02,0.04
2020-08-13 11:58:06.1360,0.04,-0.03,-0.05
2020-08-13 11:58:06.2360,0.03,-0.01,-0.01
2020-08-13 11:58:06.3350,-0.05,-0.01,-0.01
2020-08-13 11:58:06.4350,-0.03,-0.04,-0.02
2020-08-13 11:58:06.5330,-0.09,-0.1,-0.0
2020-08-13 11:58:06.6330,-0.19,-0.33,0.07
2020-08-13 11:58:06.7320,-0.52,-0.18,0.1
2020-08-13 11:58:06.8320,-0.23,-0.15,0.18
2020-08-13 11:58:06.9310,-0.7,0.17,0.15
2020-08-13 11:58:07.0300,-0.36,0.02,0.05
2020-08-13 11:58:07.1290,0.08,-0.25,0.03
2020-08-13 11:58:07.2290,0.3,-0.29,0.02
2020-08-13 11:58:07.3280,0.53,-0.26,0.02
2020-08-13 11:58:07.4270,0.75,-0.07,-0.06
2020-08-13 11:58:07.5260,0.55,0.06,-0.07
2020-08-13 11:58:07.6250,-0.13,-0.39,-0.21
2020-08-13 11:58:07.7240,0.2,-0.08,0.18
2020-08-13 11:58:07.8240,-0.03,0.01,-0.0
2020-08-13 11:58:07.9230,-0.03,0.01,-0.0
2020-08-13 11:58:08.0230,-0.03,0.0,0.03
2020-08-13 11:58:08.1210,0.0,-0.01,-0.03
2020-08-13 11:58:08.2210,-0.04,0.0,0.02
2020-08-13 11:58:08.3200,-0.06,-0.01,-0.03
2020-08-13 11:58:08.4190,-0.03,0.01,0.02
2020-08-13 11:58:08.5190,-0.06,-0.05,-0.01
2020-08-13 11:58:08.6180,-0.12,-0.24,0.01
2020-08-13 11:58:08.7170,-0.27,-0.39,-0.13
2020-08-13 11:58:08.8160,-0.03,-0.21,0.1
2020-08-13 11:58:08.9160,-1.0,-0.03,0.11
2020-08-13 11:58:09.0150,-0.57,0.07,0.08
2020-08-13 11:58:09.1150,-0.16,-0.2,0.02
2020-08-13 11:58:09.2130,0.19,-0.27,0.01
2020-08-13 11:58:09.3130,0.56,-0.34,-0.02
2020-08-13 11:58:09.4120,0.68,-0.13,-0.0
2020-08-13 11:58:09.5110,0.67,-0.01,-0.03
2020-08-13 11:58:09.6110,-1.24,0.05,-0.0
2020-08-13 11:58:09.7100,0.22,-0.23,0.32
2020-08-13 11:58:09.8090,-0.09,0.0,-0.0
2020-08-13 11:58:09.9080,-0.02,-0.01,0.06
2020-08-13 11:58:10.0080,0.01,-0.0,-0.01
2020-08-13 11:58:10.1070,-0.0,-0.0,-0.01
2020-08-13 11:58:10.2060,0.01,-0.0,0.0
2020-08-13 11:58:10.3050,-0.08,-0.01,0.03
2020-08-13 11:58:10.4050,-0.1,-0.04,0.05
2020-08-13 11:58:10.5040,-0.11,-0.12,-0.01
2020-08-13 11:58:10.6030,-0.15,-0.26,-0.0
2020-08-13 11:58:10.7020,-0.61,-0.3,0.22
2020-08-13 11:58:10.8020,0.19,-0.19,0.01
2020-08-13 11:58:10.9010,-0.61,0.18,0.15
2020-08-13 11:58:11.0010,-0.44,-0.01,-0.01
2020-08-13 11:58:11.0990,-0.0,-0.19,-0.01
2020-08-13 11:58:11.1990,0.27,-0.3,0.1
2020-08-13 11:58:11.2980,0.32,-0.2,0.01
2020-08-13 11:58:11.3980,0.57,-0.04,-0.04
2020-08-13 11:58:11.4960,0.61,-0.0,-0.06
2020-08-13 11:58:11.5960,-0.71,-0.03,0.16
2020-08-13 11:58:11.6950,0.12,-0.07,-0.07
2020-08-13 11:58:11.7940,0.02,-0.02,-0.07
2020-08-13 11:58:11.8940,0.02,-0.01,0.04
2020-08-13 11:58:11.9930,-0.01,0.0,-0.04
2020-08-13 11:58:12.0930,0.01,-0.01,0.01
2020-08-13 11:58:12.1910,-0.02,0.01,-0.02
2020-08-13 11:58:12.2900,-0.05,-0.0,-0.02
2020-08-13 11:58:12.3900,-0.07,-0.02,0.01
2020-08-13 11:58:12.4890,-0.05,-0.07,-0.03
2020-08-13 11:58:12.5890,-0.18,-0.24,0.01
2020-08-13 11:58:12.6870,-0.25,-0.42,-0.12
2020-08-13 11:58:12.7870,-0.21,-0.17,0.09
2020-08-13 11:58:12.8870,-0.9,0.16,0.09
2020-08-13 11:58:12.9850,-0.53,0.08,0.08
2020-08-13 11:58:13.0850,-0.07,-0.19,0.08
2020-08-13 11:58:13.1840,0.15,-0.16,0.09
2020-08-13 11:58:13.2830,0.39,-0.22,-0.0
2020-08-13 11:58:13.3830,0.66,-0.13,-0.08
2020-08-13 11:58:13.4820,0.61,0.04,-0.0
2020-08-13 11:58:13.5810,-0.58,-0.22,-0.04
2020-08-13 11:58:13.6800,-0.02,0.02,-0.12
2020-08-13 11:58:13.7790,-0.11,0.03,-0.05
2020-08-13 11:58:13.8790,-0.08,0.06,0.07
2020-08-13 11:58:13.9780,0.02,-0.02,-0.06
2020-08-13 11:58:14.0770,0.0,-0.01,0.01
2020-08-13 11:58:14.1770,0.04,-0.03,-0.03
2020-08-13 11:58:14.2760,-0.01,-0.02,0.02
2020-08-13 11:58:14.3750,-0.01,0.01,-0.05
2020-08-13 11:58:14.4740,-0.06,-0.07,-0.05
2020-08-13 11:58:14.5740,-0.11,-0.15,-0.04
2020-08-13 11:58:14.6730,-0.35,-0.36,0.11
2020-08-13 11:58:14.7720,-0.48,-0.08,0.23
2020-08-13 11:58:14.8710,-0.4,-0.15,0.32
2020-08-13 11:58:14.9710,-0.58,0.16,0.03
2020-08-13 11:58:15.0700,-0.2,-0.21,0.0
2020-08-13 11:58:15.1690,0.08,-0.25,0.02
2020-08-13 11:58:15.2680,0.32,-0.24,0.06
2020-08-13 11:58:15.3680,0.54,-0.22,-0.01
2020-08-13 11:58:15.4670,0.64,-0.03,-0.04
2020-08-13 11:58:15.5660,0.7,0.03,0.01
2020-08-13 11:58:15.6650,-0.0,-0.31,-0.1
2020-08-13 11:58:15.7650,0.03,-0.03,0.17
2020-08-13 11:58:15.8640,-0.03,0.01,0.03
2020-08-13 11:58:15.9630,0.02,-0.02,0.01
2020-08-13 11:58:16.0630,0.0,0.01,-0.0
2020-08-13 11:58:16.1620,-0.05,0.03,-0.0
2020-08-13 11:58:16.2610,-0.04,0.0,0.01
2020-08-13 11:58:16.3600,-0.01,0.02,-0.01
2020-08-13 11:58:16.4600,-0.05,-0.06,0.01
2020-08-13 11:58:16.5590,-0.07,-0.06,0.04
2020-08-13 11:58:16.6590,-0.17,-0.23,-0.01
2020-08-13 11:58:16.7570,-0.26,-0.31,0.03
2020-08-13 11:58:16.8570,-0.12,-0.15,0.1
2020-08-13 11:58:16.9560,-0.92,0.14,0.18
2020-08-13 11:58:17.0560,-0.56,0.02,0.08
2020-08-13 11:58:17.1540,-0.06,-0.25,0.04
2020-08-13 11:58:17.2540,0.17,-0.29,0.05
2020-08-13 11:58:17.3530,0.42,-0.22,0.03
2020-08-13 11:58:17.4530,0.67,-0.11,0.01
2020-08-13 11:58:17.5510,0.67,0.0,-0.04
2020-08-13 11:58:17.6510,-0.95,-0.24,0.02
2020-08-13 11:58:17.7500,0.2,-0.07,0.26
2020-08-13 11:58:17.8500,0.09,-0.09,-0.1
2020-08-13 11:58:17.9480,0.03,-0.04,-0.03
2020-08-13 11:58:18.0480,-0.02,0.01,0.04
2020-08-13 11:58:18.1470,-0.05,0.01,0.01
2020-08-13 11:58:18.2460,0.01,0.0,-0.01
2020-08-13 11:58:18.3460,-0.03,-0.0,-0.01
2020-08-13 11:58:18.4450,-0.09,0.04,0.02
2020-08-13 11:58:18.5440,-0.15,-0.0,0.04
2020-08-13 11:58:18.6430,-0.12,-0.14,-0.09
2020-08-13 11:58:18.7420,-0.22,-0.43,0.03
2020-08-13 11:58:18.8420,-0.22,-0.19,0.13
2020-08-13 11:58:18.9410,-0.57,-0.19,0.13
2020-08-13 11:58:19.0410,-0.55,0.19,0.03
2020-08-13 11:58:19.1390,-0.16,-0.18,0.09
2020-08-13 11:58:19.2390,0.04,-0.21,-0.01
2020-08-13 11:58:19.3380,0.21,-0.22,-0.05
2020-08-13 11:58:19.4380,0.45,-0.18,-0.05
2020-08-13 11:58:19.5370,0.68,-0.06,-0.07
2020-08-13 11:58:19.6360,0.74,0.03,0.0
2020-08-13 11:58:19.7350,0.33,-0.21,-0.18
2020-08-13 11:58:19.8340,0.03,0.04,0.0
2020-08-13 11:58:19.9340,0.09,-0.03,-0.04
2020-08-13 11:58:20.0330,-0.0,-0.02,0.01
2020-08-13 11:58:20.1330,-0.03,0.01,0.01
2020-08-13 11:58:20.2310,-0.04,0.01,0.02
2020-08-13 11:58:20.3310,-0.04,0.01,-0.01
2020-08-13 11:58:20.4300,-0.03,-0.01,0.01
2020-08-13 11:58:20.5300,-0.07,-0.03,-0.01
2020-08-13 11:58:20.6280,-0.07,-0.09,-0.08
2020-08-13 11:58:20.7280,-0.1,-0.23,0.05
2020-08-13 11:58:20.8270,-0.68,-0.33,0.21
2020-08-13 11:58:20.9270,0.01,-0.24,0.09
2020-08-13 11:58:21.0250,-0.74,0.06,0.22
2020-08-13 11:58:21.1250,-0.48,0.06,0.05
2020-08-13 11:58:21.2240,-0.05,-0.24,0.0
2020-08-13 11:58:21.3230,0.17,-0.37,0.04
2020-08-13 11:58:21.4220,0.42,-0.21,0.01
2020-08-13 11:58:21.5220,0.68,-0.06,-0.05
2020-08-13 11:58:21.6210,0.61,0.05,-0.04
2020-08-13 11:58:21.7210,-0.3,-0.51,-0.02
2020-08-13 11:58:21.8190,0.33,-0.13,0.21
2020-08-13 11:58:21.9190,0.11,-0.06,-0.03
2020-08-13 11:58:22.0190,0.02,0.01,0.03
2020-08-13 11:58:22.1170,-0.08,0.01,0.04
2020-08-13 11:58:22.2170,-0.05,0.05,0.01
2020-08-13 11:58:22.3160,-0.06,0.02,0.0
2020-08-13 11:58:22.4160,-0.03,-0.01,-0.02
2020-08-13 11:58:22.5140,-0.03,-0.0,0.0
2020-08-13 11:58:22.6140,-0.04,-0.07,-0.05
2020-08-13 11:58:22.7130,-0.13,-0.15,0.05
2020-08-13 11:58:22.8130,-0.22,-0.42,-0.07
2020-08-13 11:58:22.9110,-0.45,-0.25,0.04
2020-08-13 11:58:23.0110,0.02,-0.17,0.31
2020-08-13 11:58:23.1100,-0.51,0.17,0.18
2020-08-13 11:58:23.2090,-0.37,-0.01,0.04
2020-08-13 11:58:23.3080,0.21,-0.4,-0.0
2020-08-13 11:58:23.4080,0.45,-0.3,-0.0
2020-08-13 11:58:23.5070,0.5,-0.14,-0.01
2020-08-13 11:58:23.6070,0.78,-0.04,-0.11
2020-08-13 11:58:23.7050,-0.92,-0.05,-0.0
2020-08-13 11:58:23.8050,0.26,-0.21,0.29
2020-08-13 11:58:23.9040,0.09,-0.05,-0.16
2020-08-13 11:58:24.0040,-0.0,0.01,0.01
2020-08-13 11:58:24.1030,-0.06,0.01,0.02
2020-08-13 11:58:24.2020,-0.0,0.01,-0.02
2020-08-13 11:58:24.3010,-0.05,0.02,0.02
2020-08-13 11:58:24.4010,-0.01,0.02,-0.03
2020-08-13 11:58:24.5000,-0.0,-0.03,-0.05
2020-08-13 11:58:24.5990,-0.07,-0.07,0.02
2020-08-13 11:58:24.6980,-0.15,-0.19,-0.06
2020-08-13 11:58:24.7980,-0.22,-0.36,-0.02
2020-08-13 11:58:24.8970,-0.37,-0.16,0.19
2020-08-13 11:58:24.9960,-0.79,0.02,0.19
2020-08-13 11:58:25.0950,-0.54,0.13,0.07
2020-08-13 11:58:25.1950,-0.08,-0.24,0.02
2020-08-13 11:58:25.2930,0.11,-0.25,-0.01
2020-08-13 11:58:25.3930,0.34,-0.22,-0.01
2020-08-13 11:58:25.4920,0.5,-0.16,0.01
2020-08-13 11:58:25.5920,0.62,-0.03,-0.06
2020-08-13 11:58:25.6900,-0.11,-0.33,0.07
2020-08-13 11:58:25.7900,0.51,-0.35,-0.07
2020-08-13 11:58:25.8890,-0.02,-0.02,-0.1
2020-08-13 11:58:25.9890,0.0,-0.02,0.05
2020-08-13 11:58:26.0880,-0.04,0.01,0.01
2020-08-13 11:58:26.1870,0.01,0.03,-0.02
2020-08-13 11:58:26.2860,-0.01,-0.01,-0.01
2020-08-13 11:58:26.3850,-0.03,0.02,-0.03
2020-08-13 11:58:26.4850,-0.05,-0.02,-0.01
2020-08-13 11:58:26.5840,-0.05,-0.04,0.03
2020-08-13 11:58:26.6840,-0.12,-0.08,0.02
2020-08-13 11:58:26.7820,-0.32,-0.33,0.13
2020-08-13 11:58:26.8820,-0.45,-0.15,0.21
2020-08-13 11:58:26.9810,-0.43,-0.14,0.36
2020-08-13 11:58:27.0800,-0.47,0.11,-0.07
2020-08-13 11:58:27.1790,-0.25,-0.16,-0.09
2020-08-13 11:58:27.2790,0.28,-0.4,-0.03
2020-08-13 11:58:27.3780,0.36,-0.18,-0.01
2020-08-13 11:58:27.4780,0.38,-0.11,-0.05
2020-08-13 11:58:27.5770,0.61,-0.04,-0.02
2020-08-13 11:58:27.6760,0.57,-0.16,0.17
2020-08-13 11:58:27.7750,0.69,-0.28,-0.38
2020-08-13 11:58:27.8750,0.16,-0.04,0.02
2020-08-13 11:58:27.9740,0.01,-0.01,0.1
2020-08-13 11:58:28.0730,0.01,-0.03,-0.08
2020-08-13 11:58:28.1720,-0.06,0.03,0.02
2020-08-13 11:58:28.2720,-0.03,0.01,0.02
2020-08-13 11:58:28.3710,-0.02,-0.02,-0.04
2020-08-13 11:58:28.4700,0.01,-0.01,-0.02
2020-08-13 11:58:28.5690,-0.05,-0.02,0.03
2020-08-13 11:58:28.6690,-0.08,-0.05,0.07
2020-08-13 11:58:28.7680,-0.19,-0.24,0.05
2020-08-13 11:58:28.8670,-0.36,-0.34,-0.07
2020-08-13 11:58:28.9660,0.01,-0.26,0.17
2020-08-13 11:58:29.0660,-0.75,0.15,0.29
2020-08-13 11:58:29.1650,-0.53,-0.06,0.0
2020-08-13 11:58:29.2650,-0.04,-0.33,-0.04
2020-08-13 11:58:29.3630,0.22,-0.32,-0.01
2020-08-13 11:58:29.4620,0.68,-0.3,0.04
2020-08-13 11:58:29.5620,0.69,-0.05,-0.09
2020-08-13 11:58:29.6610,0.84,-0.03,-0.01
2020-08-13 11:58:29.7610,0.39,-0.2,-0.41
2020-08-13 11:58:29.8600,0.14,-0.05,0.08
2020-08-13 11:58:29.9590,0.06,-0.02,0.11
2020-08-13 11:58:30.0580,0.04,0.01,-0.04
2020-08-13 11:58:30.1580,-0.01,0.01,0.0
2020-08-13 11:58:30.2570,-0.07,0.01,0.03
2020-08-13 11:58:30.3570,-0.03,-0.01,0.01
2020-08-13 11:58:30.4550,-0.02,-0.0,-0.01
2020-08-13 11:58:30.5550,-0.03,-0.04,-0.01
2020-08-13 11:58:30.6540,-0.13,-0.11,0.0
2020-08-13 11:58:30.7530,-0.27,-0.31,-0.0
2020-08-13 11:58:30.8520,-0.41,-0.19,0.24
2020-08-13 11:58:30.9510,-0.43,-0.17,0.34
2020-08-13 11:58:31.0510,-0.64,0.14,0.07
2020-08-13 11:58:31.1500,-0.09,-0.25,-0.02
2020-08-13 11:58:31.2490,0.06,-0.25,-0.08
2020-08-13 11:58:31.3480,0.4,-0.27,-0.06
2020-08-13 11:58:31.4480,0.61,-0.07,0.01
2020-08-13 11:58:31.5470,0.73,-0.03,0.04
2020-08-13 11:58:31.6460,-1.11,-0.05,-0.02
2020-08-13 11:58:31.7450,-0.05,0.07,0.25
2020-08-13 11:58:31.8450,-0.1,-0.02,-0.07
2020-08-13 11:58:31.9440,-0.04,0.02,0.05
2020-08-13 11:58:32.0440,-0.03,-0.0,-0.02
2020-08-13 11:58:32.1420,-0.04,-0.02,-0.04
2020-08-13 11:58:32.2420,-0.03,0.01,-0.02
2020-08-13 11:58:32.3410,-0.03,0.04,0.04
2020-08-13 11:58:32.4410,-0.07,-0.04,-0.1
2020-08-13 11:58:32.5390,-0.04,-0.07,0.05
2020-08-13 11:58:32.6390,-0.11,-0.1,-0.01
2020-08-13 11:58:32.7380,-0.22,-0.42,-0.01
2020-08-13 11:58:32.8380,-0.44,-0.28,0.38
2020-08-13 11:58:32.9370,-1.05,0.13,0.19
2020-08-13 11:58:33.0360,-0.53,0.19,0.09
2020-08-13 11:58:33.1350,0.02,-0.3,-0.02
2020-08-13 11:58:33.2350,0.22,-0.17,0.03
2020-08-13 11:58:33.3340,0.35,-0.14,0.02
2020-08-13 11:58:33.4340,0.47,-0.1,-0.0
2020-08-13 11:58:33.5320,0.59,0.03,-0.03
2020-08-13 11:58:33.6320,0.28,-0.34,0.1
2020-08-13 11:58:33.7310,0.31,-0.17,-0.01
2020-08-13 11:58:33.8310,0.2,-0.15,-0.27
2020-08-13 11:58:33.9290,0.15,-0.01,0.1
2020-08-13 11:58:34.0290,0.0,-0.03,-0.01
2020-08-13 11:58:34.1280,-0.01,-0.03,-0.01
2020-08-13 11:58:34.2280,-0.03,-0.01,0.04
2020-08-13 11:58:34.3260,-0.06,0.05,0.05
2020-08-13 11:58:34.4260,0.09,-0.06,-0.08
2020-08-13 11:58:34.5250,-0.02,-0.1,-0.01
2020-08-13 11:58:34.6250,-0.09,-0.15,-0.03
2020-08-13 11:58:34.7230,-0.31,-0.58,-0.1
2020-08-13 11:58:34.8230,-0.18,-0.16,0.14
2020-08-13 11:58:34.9220,-1.2,0.33,0.19
2020-08-13 11:58:35.0220,-0.64,0.22,0.09
2020-08-13 11:58:35.1200,-0.07,-0.31,-0.01
2020-08-13 11:58:35.2200,0.32,-0.52,-0.04
2020-08-13 11:58:35.3190,0.46,-0.16,0.02
2020-08-13 11:58:35.4180,0.61,-0.04,0.03
2020-08-13 11:58:35.5170,0.6,0.03,0.02
2020-08-13 11:58:35.6170,-0.23,-0.56,0.04
2020-08-13 11:58:35.7160,0.21,-0.05,0.11
2020-08-13 11:58:35.8160,-0.04,0.04,-0.01
2020-08-13 11:58:35.9140,-0.05,-0.01,-0.02
2020-08-13 11:58:36.0140,0.0,-0.02,0.0
2020-08-13 11:58:36.1130,0.0,-0.0,0.01
2020-08-13 11:58:36.2130,-0.02,0.01,0.0
2020-08-13 11:58:36.3110,0.02,-0.05,-0.04
2020-08-13 11:58:36.4110,-0.03,-0.04,0.01
2020-08-13 11:58:36.5100,-0.05,-0.1,-0.05
2020-08-13 11:58:36.6100,-0.18,-0.24,0.06
2020-08-13 11:58:36.7080,-0.32,-0.4,-0.07
2020-08-13 11:58:36.8080,0.15,-0.28,0.1
2020-08-13 11:58:36.9070,-1.03,0.21,0.15
2020-08-13 11:58:37.0070,-0.49,0.12,0.01
2020-08-13 11:58:37.1050,-0.0,-0.27,-0.02
2020-08-13 11:58:37.2050,0.21,-0.22,0.04
2020-08-13 11:58:37.3040,0.32,-0.18,0.04
2020-08-13 11:58:37.4040,0.59,-0.15,0.04
2020-08-13 11:58:37.5030,0.72,0.0,-0.02
2020-08-13 11:58:37.6020,-1.07,0.02,-0.05
2020-08-13 11:58:37.7010,0.07,-0.09,0.23
2020-08-13 11:58:37.8010,-0.06,0.0,-0.07
2020-08-13 11:58:37.9000,-0.02,-0.01,0.02
2020-08-13 11:58:37.9990,-0.01,-0.02,-0.03
2020-08-13 11:58:38.0980,-0.04,0.02,-0.0
2020-08-13 11:58:38.1980,-0.02,-0.0,-0.01
2020-08-13 11:58:38.2960,-0.06,0.03,0.01
2020-08-13 11:58:38.3970,-0.1,-0.02,0.05
2020-08-13 11:58:38.4950,-0.11,-0.11,0.03
2020-08-13 11:58:38.5950,-0.14,-0.22,-0.01
2020-08-13 11:58:38.6940,-0.43,-0.46,-0.12
2020-08-13 11:58:38.7930,0.12,-0.16,0.07
2020-08-13 11:58:38.8920,-0.83,0.23,0.12
2020-08-13 11:58:38.9920,-0.42,0.11,0.01
2020-08-13 11:58:39.0910,-0.08,-0.07,0.07
2020-08-13 11:58:39.1900,0.11,-0.17,0.03
2020-08-13 11:58:39.2890,0.31,-0.23,0.01
2020-08-13 11:58:39.3880,0.62,-0.18,-0.01
2020-08-13 11:58:39.4880,0.9,-0.03,-0.02
2020-08-13 11:58:39.5870,-0.52,-0.39,-0.02
2020-08-13 11:58:39.6860,0.32,-0.18,0.26
2020-08-13 11:58:39.7860,-0.03,-0.01,0.01
2020-08-13 11:58:39.8850,-0.04,0.03,-0.0
2020-08-13 11:58:39.9850,-0.03,0.0,0.0
2020-08-13 11:58:40.0830,-0.03,0.01,0.02
2020-08-13 11:58:40.1830,-0.01,-0.0,-0.02
2020-08-13 11:58:40.2820,0.01,0.0,-0.04
2020-08-13 11:58:40.3810,-0.05,-0.01,-0.04
2020-08-13 11:58:40.4800,-0.12,-0.12,0.01
2020-08-13 11:58:40.5800,-0.2,-0.32,0.01
2020-08-13 11:58:40.6790,-0.36,-0.31,0.02
2020-08-13 11:58:40.7790,0.02,-0.21,0.01
2020-08-13 11:58:40.8770,-0.55,0.17,0.14
2020-08-13 11:58:40.9770,-0.48,0.07,0.04
2020-08-13 11:58:41.0770,-0.23,-0.07,0.04
2020-08-13 11:58:41.1750,-0.02,-0.15,0.06
2020-08-13 11:58:41.2750,0.3,-0.21,0.06
2020-08-13 11:58:41.3740,0.56,-0.21,-0.01
2020-08-13 11:58:41.4730,0.92,-0.06,0.03
2020-08-13 11:58:41.5720,-0.86,-0.06,-0.07
2020-08-13 11:58:41.6710,0.15,-0.18,0.28
2020-08-13 11:58:41.7710,-0.02,-0.01,-0.08
2020-08-13 11:58:41.8700,-0.0,-0.0,-0.01
2020-08-13 11:58:41.9700,0.02,0.01,0.02
2020-08-13 11:58:42.0680,-0.05,0.01,-0.01
2020-08-13 11:58:42.1680,-0.04,-0.01,-0.01
2020-08-13 11:58:42.2670,-0.0,-0.0,0.01
2020-08-13 11:58:42.3670,-0.04,0.0,0.02
2020-08-13 11:58:42.4660,0.0,-0.09,-0.04
2020-08-13 11:58:42.5650,-0.1,-0.12,-0.03
2020-08-13 11:58:42.6640,-0.43,-0.55,0.13
2020-08-13 11:58:42.7630,-0.22,-0.16,0.2
2020-08-13 11:58:42.8630,-0.84,0.05,0.06
2020-08-13 11:58:42.9620,-0.54,0.08,0.0
2020-08-13 11:58:43.0620,-0.23,-0.1,0.01
2020-08-13 11:58:43.1600,0.14,-0.27,0.1
2020-08-13 11:58:43.2600,0.33,-0.23,0.08
2020-08-13 11:58:43.3600,0.56,-0.15,0.03
2020-08-13 11:58:43.4580,0.61,-0.01,-0.06
2020-08-13 11:58:43.5570,-0.29,-0.22,-0.06
2020-08-13 11:58:43.6570,0.31,-0.14,0.08
2020-08-13 11:58:43.7560,-0.05,0.01,-0.1
2020-08-13 11:58:43.8560,-0.04,0.01,0.06
2020-08-13 11:58:43.9550,-0.07,0.02,0.02
2020-08-13 11:58:44.0540,-0.01,0.01,-0.02
2020-08-13 11:58:44.1530,-0.0,0.02,0.03
2020-08-13 11:58:44.2530,-0.03,0.01,-0.01
2020-08-13 11:58:44.3520,-0.02,0.01,0.02
2020-08-13 11:58:44.4510,-0.09,-0.08,-0.03
2020-08-13 11:58:44.5500,-0.15,-0.16,0.02
2020-08-13 11:58:44.6500,-0.33,-0.51,-0.05
2020-08-13 11:58:44.7480,-0.18,-0.31,0.36
2020-08-13 11:58:44.8480,-0.68,-0.04,0.17
2020-08-13 11:58:44.9470,-0.56,0.12,-0.05
2020-08-13 11:58:45.0470,-0.26,-0.12,-0.0
2020-08-13 11:58:45.1460,0.24,-0.3,0.03
2020-08-13 11:58:45.2450,0.37,-0.18,0.1
2020-08-13 11:58:45.3440,0.48,-0.13,-0.04
2020-08-13 11:58:45.4440,0.7,0.01,-0.06
2020-08-13 11:58:45.5430,0.19,-0.22,0.01
2020-08-13 11:58:45.6420,0.61,-0.22,-0.25
2020-08-13 11:58:45.7420,0.19,-0.11,-0.11
2020-08-13 11:58:45.8400,0.03,-0.01,0.07
2020-08-13 11:58:45.9400,-0.09,0.04,0.08
2020-08-13 11:58:46.0390,0.01,-0.01,-0.04
2020-08-13 11:58:46.1390,-0.01,-0.0,0.0
2020-08-13 11:58:46.2380,-0.01,-0.01,-0.04
2020-08-13 11:58:46.3370,-0.02,-0.01,-0.02
2020-08-13 11:58:46.4360,-0.09,-0.02,0.0
2020-08-13 11:58:46.5360,-0.09,-0.12,-0.01
2020-08-13 11:58:46.6340,-0.21,-0.42,0.0
2020-08-13 11:58:46.7340,-0.55,-0.14,0.42
2020-08-13 11:58:46.8330,-0.25,-0.14,-0.02
2020-08-13 11:58:46.9330,-0.52,0.17,0.05
2020-08-13 11:58:47.0310,-0.23,-0.09,0.01
2020-08-13 11:58:47.1310,0.01,-0.24,0.02
2020-08-13 11:58:47.2300,0.2,-0.15,0.01
2020-08-13 11:58:47.3300,0.43,-0.2,-0.11
2020-08-13 11:58:47.4280,0.81,-0.11,-0.05
2020-08-13 11:58:47.5280,0.8,-0.09,0.06
2020-08-13 11:58:47.6270,0.46,-0.1,-0.36
2020-08-13 11:58:47.7270,0.24,-0.05,-0.05
2020-08-13 11:58:47.8260,0.18,-0.08,0.01
2020-08-13 11:58:47.9250,-0.03,0.01,-0.01
2020-08-13 11:58:48.0240,-0.02,0.02,0.03
2020-08-13 11:58:48.1240,-0.01,0.05,0.02
2020-08-13 11:58:48.2230,-0.02,-0.0,-0.03
2020-08-13 11:58:48.3220,-0.04,-0.01,0.02
2020-08-13 11:58:48.4210,-0.11,-0.07,0.01
2020-08-13 11:58:48.5210,-0.1,-0.1,0.04
2020-08-13 11:58:48.6200,-0.26,-0.46,-0.03
2020-08-13 11:58:48.7190,-0.66,-0.18,0.42
2020-08-13 11:58:48.8180,-0.13,-0.01,0.06
2020-08-13 11:58:48.9170,-0.48,0.21,0.18
2020-08-13 11:58:49.0170,-0.23,-0.14,-0.0
2020-08-13 11:58:49.1170,0.05,-0.26,-0.05
2020-08-13 11:58:49.2150,0.25,-0.23,-0.02
2020-08-13 11:58:49.3150,0.51,-0.2,-0.05
2020-08-13 11:58:49.4140,0.89,-0.07,-0.07
2020-08-13 11:58:49.5140,-0.1,-0.24,0.17
2020-08-13 11:58:49.6120,0.51,-0.32,-0.22
2020-08-13 11:58:49.7120,-0.01,0.03,-0.08
2020-08-13 11:58:49.8110,0.03,0.01,0.01
2020-08-13 11:58:49.9110,-0.02,-0.02,-0.02
2020-08-13 11:58:50.0090,-0.0,-0.01,0.01
2020-08-13 11:58:50.1090,-0.06,0.01,0.03
2020-08-13 11:58:50.2080,-0.02,0.0,-0.03
2020-08-13 11:58:50.3070,-0.04,-0.02,0.0
2020-08-13 11:58:50.4070,-0.05,-0.08,0.01
2020-08-13 11:58:50.5060,-0.13,-0.17,-0.05
2020-08-13 11:58:50.6050,-0.22,-0.65,-0.1
2020-08-13 11:58:50.7050,-0.26,-0.08,0.17
2020-08-13 11:58:50.8040,-0.78,0.08,0.15
2020-08-13 11:58:50.9030,-0.62,0.16,0.05
2020-08-13 11:58:51.0030,-0.17,-0.17,0.03
2020-08-13 11:58:51.1010,0.17,-0.3,-0.0
2020-08-13 11:58:51.2010,0.44,-0.18,0.0
2020-08-13 11:58:51.3000,0.58,-0.24,-0.04
2020-08-13 11:58:51.3990,0.86,-0.06,0.02
2020-08-13 11:58:51.4980,-1.13,0.0,-0.01
2020-08-13 11:58:51.5980,0.37,-0.36,0.31
2020-08-13 11:58:51.6970,0.18,-0.08,-0.13
2020-08-13 11:58:51.7960,0.02,-0.02,-0.05
2020-08-13 11:58:51.8960,-0.05,0.01,0.04
2020-08-13 11:58:51.9950,-0.04,0.02,-0.01
2020-08-13 11:58:52.0940,-0.02,0.02,-0.01
2020-08-13 11:58:52.1930,-0.02,-0.03,-0.05
2020-08-13 11:58:52.2930,-0.07,0.0,0.04
2020-08-13 11:58:52.3920,-0.09,-0.16,0.0
2020-08-13 11:58:52.4920,-0.26,-0.38,0.03
2020-08-13 11:58:52.5900,-0.8,-0.29,0.36
2020-08-13 11:58:52.6900,-0.05,0.02,0.05
2020-08-13 11:58:52.7890,-0.56,0.2,0.18
2020-08-13 11:58:52.8880,-0.46,-0.03,0.07
2020-08-13 11:58:52.9870,0.09,-0.25,0.03
2020-08-13 11:58:53.0870,0.3,-0.22,0.05
2020-08-13 11:58:53.1860,0.53,-0.18,0.03
2020-08-13 11:58:53.2850,0.88,-0.11,-0.03
2020-08-13 11:58:53.3850,-0.41,-0.25,-0.08
2020-08-13 11:58:53.4840,0.11,-0.08,-0.04
2020-08-13 11:58:53.5830,-0.04,0.02,-0.16
2020-08-13 11:58:53.6820,-0.02,0.02,0.04
2020-08-13 11:58:53.7820,-0.05,0.01,-0.03
2020-08-13 11:58:53.8810,-0.03,0.01,0.02
2020-08-13 11:58:53.9810,-0.01,0.0,-0.0
2020-08-13 11:58:54.0790,-0.1,-0.02,0.12
2020-08-13 11:58:54.1780,-0.04,-0.01,-0.02
2020-08-13 11:58:54.2780,-0.03,-0.06,0.03
2020-08-13 11:58:54.3770,-0.16,-0.27,0.03
2020-08-13 11:58:54.4760,-0.27,-0.6,-0.08
2020-08-13 11:58:54.5750,-0.14,-0.21,0.17
2020-08-13 11:58:54.6750,-0.72,0.09,0.19
2020-08-13 11:58:54.7740,-0.47,0.12,0.02
2020-08-13 11:58:54.8740,-0.05,-0.28,0.01
2020-08-13 11:58:54.9730,0.27,-0.26,0.04
2020-08-13 11:58:55.0720,0.42,-0.16,0.03
2020-08-13 11:58:55.1710,0.59,-0.12,-0.02
2020-08-13 11:58:55.2700,0.63,-0.04,-0.03
2020-08-13 11:58:55.3700,-1.04,-0.12,-0.14
2020-08-13 11:58:55.4690,0.26,-0.12,0.28
2020-08-13 11:58:55.5680,-0.01,-0.02,-0.05
2020-08-13 11:58:55.6670,-0.0,0.01,-0.0
2020-08-13 11:58:55.7670,-0.02,0.05,0.08
2020-08-13 11:58:55.8660,0.01,-0.02,-0.02
2020-08-13 11:58:55.9650,0.04,-0.05,-0.04
2020-08-13 11:58:56.0650,-0.06,0.02,0.02
2020-08-13 11:58:56.1640,-0.05,-0.04,-0.04
2020-08-13 11:58:56.2630,-0.1,-0.07,0.01
2020-08-13 11:58:56.3620,-0.23,-0.39,0.04
2020-08-13 11:58:56.4620,-0.55,-0.26,0.14
2020-08-13 11:58:56.5610,-0.11,-0.18,0.1
2020-08-13 11:58:56.6600,-0.67,0.24,0.13
2020-08-13 11:58:56.7590,-0.51,0.15,-0.06
2020-08-13 11:58:56.8580,0.12,-0.3,0.04
2020-08-13 11:58:56.9580,0.26,-0.24,0.08
2020-08-13 11:58:57.0570,0.56,-0.23,0.02
2020-08-13 11:58:57.1560,0.8,-0.04,-0.06
2020-08-13 11:58:57.2560,0.13,-0.16,-0.02
2020-08-13 11:58:57.3550,0.38,-0.03,-0.08
2020-08-13 11:58:57.4540,-0.17,0.05,0.01
2020-08-13 11:58:57.5540,-0.12,0.01,0.07
2020-08-13 11:58:57.6530,-0.05,0.01,-0.02
2020-08-13 11:58:57.7520,0.01,0.0,-0.0
2020-08-13 11:58:57.8510,0.07,0.05,-0.07
2020-08-13 11:58:57.9500,0.01,0.01,-0.06
2020-08-13 11:58:58.0500,-0.03,-0.01,0.01
2020-08-13 11:58:58.1490,-0.11,-0.09,0.04
2020-08-13 11:58:58.2480,-0.2,-0.27,0.01
2020-08-13 11:58:58.3470,-0.37,-0.46,0.03
2020-08-13 11:58:58.4470,-0.1,-0.26,0.05
2020-08-13 11:58:58.5460,-0.73,0.25,0.18
2020-08-13 11:58:58.6460,-0.51,0.09,-0.01
2020-08-13 11:58:58.7440,0.04,-0.21,0.03
2020-08-13 11:58:58.8440,0.2,-0.22,0.03
2020-08-13 11:58:58.9430,0.43,-0.2,-0.0
2020-08-13 11:58:59.0430,0.63,-0.12,0.01
2020-08-13 11:58:59.1410,0.78,0.01,0.0
2020-08-13 11:58:59.2410,-0.74,-0.4,0.06
2020-08-13 11:58:59.3400,0.19,-0.04,0.33
2020-08-13 11:58:59.4390,0.01,-0.02,-0.04
2020-08-13 11:58:59.5390,-0.01,-0.01,-0.02
2020-08-13 11:58:59.6380,-0.0,0.01,0.03
2020-08-13 11:58:59.7370,-0.07,0.07,0.03
2020-08-13 11:58:59.8360,-0.03,-0.04,-0.06
2020-08-13 11:58:59.9360,-0.06,-0.01,0.01
2020-08-13 11:59:00.0350,-0.03,-0.03,0.02
2020-08-13 11:59:00.1350,-0.07,-0.07,-0.02
2020-08-13 11:59:00.2330,-0.15,-0.35,-0.03
2020-08-13 11:59:00.3330,-0.67,-0.27,0.23
2020-08-13 11:59:00.4320,-0.0,-0.06,0.08
2020-08-13 11:59:00.5310,-0.53,0.17,0.18
2020-08-13 11:59:00.6310,-0.28,0.01,0.02
2020-08-13 11:59:00.7300,-0.08,-0.18,0.01
2020-08-13 11:59:00.8290,0.11,-0.25,0.03
2020-08-13 11:59:00.9280,0.4,-0.23,-0.02
2020-08-13 11:59:01.0280,0.73,-0.11,0.01
2020-08-13 11:59:01.1270,0.79,0.03,0.05
2020-08-13 11:59:01.2270,-0.53,-0.28,-0.15
2020-08-13 11:59:01.3250,0.23,-0.06,0.49
2020-08-13 11:59:01.4250,-0.06,-0.01,0.03
2020-08-13 11:59:01.5240,-0.04,0.01,-0.0
2020-08-13 11:59:01.6230,-0.0,-0.01,-0.01
2020-08-13 11:59:01.7220,-0.05,0.04,0.04
2020-08-13 11:59:01.8220,-0.02,0.01,-0.02
2020-08-13 11:59:01.9210,-0.07,0.01,0.01
2020-08-13 11:59:02.0210,-0.01,-0.05,-0.05
2020-08-13 11:59:02.1190,-0.08,-0.08,0.03
2020-08-13 11:59:02.2190,-0.24,-0.33,0.05
2020-08-13 11:59:02.3180,-0.38,-0.24,0.14
2020-08-13 11:59:02.4170,-0.16,-0.18,0.13
2020-08-13 11:59:02.5160,-0.69,0.14,0.14
2020-08-13 11:59:02.6160,-0.34,-0.09,-0.03
2020-08-13 11:59:02.7150,-0.01,-0.28,0.01
2020-08-13 11:59:02.8150,0.3,-0.26,0.05
2020-08-13 11:59:02.9130,0.53,-0.15,-0.01
2020-08-13 11:59:03.0130,0.89,-0.06,0.02
2020-08-13 11:59:03.1120,-0.21,-0.29,-0.21
2020-08-13 11:59:03.2110,0.32,-0.08,0.16
2020-08-13 11:59:03.3110,-0.2,0.06,-0.06
2020-08-13 11:59:03.4100,-0.14,0.06,0.04
2020-08-13 11:59:03.5090,-0.02,0.01,-0.0
2020-08-13 11:59:03.6090,-0.01,0.0,-0.03
2020-08-13 11:59:03.7070,-0.0,0.01,0.01
2020-08-13 11:59:03.8070,-0.04,-0.01,-0.0
2020-08-13 11:59:03.9060,-0.05,-0.01,-0.01
2020-08-13 11:59:04.0050,-0.12,-0.05,0.05
2020-08-13 11:59:04.1050,-0.18,-0.27,0.02
2020-08-13 11:59:04.2040,-0.39,-0.58,0.05
2020-08-13 11:59:04.3040,-0.04,-0.11,0.19
2020-08-13 11:59:04.4020,-0.68,0.13,0.18
2020-08-13 11:59:04.5020,-0.58,0.08,-0.07
2020-08-13 11:59:04.6010,-0.06,-0.27,0.01
2020-08-13 11:59:04.7000,0.18,-0.2,0.06
2020-08-13 11:59:04.7990,0.48,-0.24,0.07
2020-08-13 11:59:04.8990,0.82,-0.07,0.0
2020-08-13 11:59:04.9980,0.83,0.03,-0.01
2020-08-13 11:59:05.0980,0.28,-0.34,-0.37
2020-08-13 11:59:05.1960,0.33,-0.06,0.09
2020-08-13 11:59:05.2970,0.11,-0.02,0.07
2020-08-13 11:59:05.3950,-0.06,0.04,0.05
2020-08-13 11:59:05.4940,-0.01,0.04,0.06
2020-08-13 11:59:05.5930,0.01,0.01,-0.05
2020-08-13 11:59:05.6930,-0.0,0.01,0.03
2020-08-13 11:59:05.7920,-0.02,-0.02,0.01
2020-08-13 11:59:05.8920,-0.09,-0.03,0.08
2020-08-13 11:59:05.9910,-0.13,-0.14,-0.01
2020-08-13 11:59:06.0900,-0.28,-0.56,0.08
2020-08-13 11:59:06.1890,-0.43,-0.13,0.28
2020-08-13 11:59:06.2880,-0.62,-0.16,0.19
2020-08-13 11:59:06.3870,-0.56,0.25,0.07
2020-08-13 11:59:06.4870,-0.33,-0.23,-0.0
2020-08-13 11:59:06.5860,0.24,-0.34,0.08
2020-08-13 11:59:06.6850,0.31,-0.24,0.0
2020-08-13 11:59:06.7850,0.62,-0.08,-0.05
2020-08-13 11:59:06.8840,0.63,0.01,-0.02
2020-08-13 11:59:06.9840,0.09,-0.26,0.07
2020-08-13 11:59:07.0820,0.49,-0.18,0.02
2020-08-13 11:59:07.1820,-0.14,0.01,-0.18
2020-08-13 11:59:07.2810,-0.08,0.02,0.08
2020-08-13 11:59:07.3810,-0.07,0.01,-0.01
2020-08-13 11:59:07.4790,0.0,-0.01,-0.03
2020-08-13 11:59:07.5790,-0.0,0.02,0.01
2020-08-13 11:59:07.6780,-0.03,-0.02,0.01
2020-08-13 11:59:07.7780,-0.03,-0.0,0.0
2020-08-13 11:59:07.8760,-0.08,-0.07,0.03
2020-08-13 11:59:07.9760,-0.19,-0.33,0.03
2020-08-13 11:59:08.0750,-0.35,-0.42,0.02
2020-08-13 11:59:08.1740,-0.0,-0.15,-0.03
2020-08-13 11:59:08.2730,-0.81,0.18,0.24
2020-08-13 11:59:08.3730,-0.56,0.1,0.06
2020-08-13 11:59:08.4730,-0.06,-0.22,0.02
2020-08-13 11:59:08.5710,0.2,-0.22,0.05
2020-08-13 11:59:08.6710,0.4,-0.21,0.08
2020-08-13 11:59:08.7700,0.69,-0.14,0.01
2020-08-13 11:59:08.8700,0.78,0.0,0.06
2020-08-13 11:59:08.9680,-0.45,-0.35,-0.05
2020-08-13 11:59:09.0680,0.32,-0.11,0.2
2020-08-13 11:59:09.1670,0.06,-0.06,-0.08
2020-08-13 11:59:09.2670,-0.03,-0.0,0.01
2020-08-13 11:59:09.3660,-0.01,0.01,0.03
2020-08-13 11:59:09.4650,-0.02,0.01,-0.01
2020-08-13 11:59:09.5640,-0.04,-0.0,0.02
2020-08-13 11:59:09.6630,-0.02,-0.0,0.01
2020-08-13 11:59:09.7620,-0.09,-0.05,-0.03
2020-08-13 11:59:09.8620,-0.12,-0.13,0.02
2020-08-13 11:59:09.9610,-0.2,-0.48,-0.24
2020-08-13 11:59:10.0610,-0.67,-0.29,0.6
2020-08-13 11:59:10.1590,0.2,0.09,0.17
2020-08-13 11:59:10.2590,-0.56,0.31,0.11
2020-08-13 11:59:10.3580,-0.24,-0.2,-0.01
2020-08-13 11:59:10.4580,0.18,-0.19,0.01
2020-08-13 11:59:10.5560,0.32,-0.23,0.0
2020-08-13 11:59:10.6560,0.62,-0.17,-0.01
2020-08-13 11:59:10.7550,0.63,-0.02,0.03
2020-08-13 11:59:10.8540,0.36,-0.03,-0.08
2020-08-13 11:59:10.9540,0.38,-0.22,-0.11
2020-08-13 11:59:11.0530,-0.14,0.0,0.04
2020-08-13 11:59:11.1520,-0.01,0.0,0.03
2020-08-13 11:59:11.2520,-0.02,-0.02,-0.02
2020-08-13 11:59:11.3510,0.02,-0.01,-0.01
2020-08-13 11:59:11.4500,0.0,0.0,0.02
2020-08-13 11:59:11.5490,-0.07,0.02,0.01
2020-08-13 11:59:11.6490,-0.06,-0.03,0.02
2020-08-13 11:59:11.7470,-0.05,-0.04,-0.02
2020-08-13 11:59:11.8470,-0.12,-0.05,0.03
2020-08-13 11:59:11.9460,-0.33,-0.55,0.01
2020-08-13 11:59:12.0460,-0.26,-0.19,0.18
2020-08-13 11:59:12.1450,-0.8,-0.07,0.14
2020-08-13 11:59:12.2450,-0.61,0.12,0.06
2020-08-13 11:59:12.3430,-0.15,-0.26,0.06
2020-08-13 11:59:12.4430,0.2,-0.25,0.05
2020-08-13 11:59:12.5420,0.45,-0.24,0.11
2020-08-13 11:59:12.6420,0.62,-0.15,-0.03
2020-08-13 11:59:12.7400,0.73,0.04,-0.05
2020-08-13 11:59:12.8400,-1.0,0.01,0.05
2020-08-13 11:59:12.9390,0.21,-0.22,0.15
2020-08-13 11:59:13.0380,-0.06,0.03,-0.05
2020-08-13 11:59:13.1380,-0.01,-0.0,0.06
2020-08-13 11:59:13.2370,-0.07,0.04,0.04
2020-08-13 11:59:13.3360,-0.04,-0.0,-0.03
2020-08-13 11:59:13.4360,-0.01,0.02,0.02
2020-08-13 11:59:13.5340,-0.03,0.0,-0.01
2020-08-13 11:59:13.6330,-0.04,-0.02,0.01
2020-08-13 11:59:13.7330,-0.08,-0.05,0.02
2020-08-13 11:59:13.8320,-0.04,-0.11,-0.07
2020-08-13 11:59:13.9320,-0.38,-0.74,-0.08
2020-08-13 11:59:14.0310,0.0,-0.15,0.04
2020-08-13 11:59:14.1310,-0.68,0.2,0.1
2020-08-13 11:59:14.2290,-0.51,0.21,0.06
2020-08-13 11:59:14.3280,-0.11,-0.19,0.06
2020-08-13 11:59:14.4270,0.21,-0.26,0.01
2020-08-13 11:59:14.5280,0.48,-0.26,-0.05
2020-08-13 11:59:14.6260,0.64,-0.11,-0.01
2020-08-13 11:59:14.7260,0.55,0.04,-0.06
2020-08-13 11:59:14.8250,-0.54,-0.05,0.22
2020-08-13 11:59:14.9240,0.39,-0.22,-0.04
2020-08-13 11:59:15.0230,-0.11,0.05,-0.07
2020-08-13 11:59:15.1230,-0.04,0.02,0.0
2020-08-13 11:59:15.2220,0.0,0.01,0.0
2020-08-13 11:59:15.3210,-0.08,0.02,0.03
2020-08-13 11:59:15.4200,-0.07,0.04,0.03
2020-08-13 11:59:15.5200,-0.01,0.0,-0.03
2020-08-13 11:59:15.6190,-0.04,-0.02,-0.01
2020-08-13 11:59:15.7180,-0.08,-0.11,0.01
2020-08-13 11:59:15.8170,-0.13,-0.13,-0.04
2020-08-13 11:59:15.9170,-0.3,-0.63,-0.08
2020-08-13 11:59:16.0160,-0.06,-0.16,0.12
2020-08-13 11:59:16.1150,-1.02,0.18,0.12
2020-08-13 11:59:16.2140,-0.6,0.13,0.04
2020-08-13 11:59:16.3140,-0.17,-0.14,0.01
2020-08-13 11:59:16.4130,0.15,-0.29,0.06
2020-08-13 11:59:16.5130,0.31,-0.28,0.12
2020-08-13 11:59:16.6110,0.75,-0.16,0.03
2020-08-13 11:59:16.7110,0.52,0.02,-0.04
2020-08-13 11:59:16.8100,-0.07,-0.15,0.14
2020-08-13 11:59:16.9100,0.41,-0.22,-0.13
2020-08-13 11:59:17.0080,-0.04,0.04,-0.07
2020-08-13 11:59:17.1080,-0.05,0.01,0.04
2020-08-13 11:59:17.2070,-0.06,0.0,-0.03
2020-08-13 11:59:17.3070,-0.0,0.01,-0.03
2020-08-13 11:59:17.4050,-0.04,0.02,0.06
2020-08-13 11:59:17.5050,-0.07,0.02,-0.0
2020-08-13 11:59:17.6040,-0.05,0.01,0.01
2020-08-13 11:59:17.7030,-0.07,-0.05,-0.01
2020-08-13 11:59:17.8030,-0.16,-0.09,0.02
2020-08-13 11:59:17.9020,-0.2,-0.53,-0.13
2020-08-13 11:59:18.0010,-0.14,-0.29,0.17
2020-08-13 11:59:18.1010,-0.57,-0.12,0.12
2020-08-13 11:59:18.2000,-0.61,0.11,-0.03
2020-08-13 11:59:18.2990,-0.22,-0.22,0.09
2020-08-13 11:59:18.3980,0.09,-0.23,0.06
2020-08-13 11:59:18.4970,0.23,-0.3,0.09
2020-08-13 11:59:18.5970,0.56,-0.25,-0.02
2020-08-13 11:59:18.6970,0.97,-0.0,-0.0
2020-08-13 11:59:18.7950,-1.16,0.0,0.15
2020-08-13 11:59:18.8950,-0.05,-0.02,0.29
2020-08-13 11:59:18.9940,-0.22,0.07,0.0
2020-08-13 11:59:19.0930,-0.08,-0.02,-0.03
2020-08-13 11:59:19.1920,-0.04,0.02,0.04
2020-08-13 11:59:19.2920,-0.0,0.02,0.03
2020-08-13 11:59:19.3910,-0.04,0.0,0.01
2020-08-13 11:59:19.4900,-0.01,0.01,0.01
2020-08-13 11:59:19.5890,-0.03,-0.01,0.01
2020-08-13 11:59:19.6890,-0.05,-0.06,0.03
2020-08-13 11:59:19.7880,-0.15,-0.16,0.01
2020-08-13 11:59:19.8880,-0.32,-0.54,-0.01
2020-08-13 11:59:19.9860,-0.07,-0.17,0.05
2020-08-13 11:59:20.0860,-0.67,0.15,0.19
2020-08-13 11:59:20.1850,-0.54,0.1,0.07
2020-08-13 11:59:20.2840,-0.07,-0.19,0.05
2020-08-13 11:59:20.3830,0.07,-0.2,0.04
2020-08-13 11:59:20.4830,0.42,-0.29,0.02
2020-08-13 11:59:20.5820,0.66,-0.16,-0.02
2020-08-13 11:59:20.6810,0.58,0.05,0.01
2020-08-13 11:59:20.7810,-0.89,-0.15,-0.26
2020-08-13 11:59:20.8800,0.1,-0.18,0.12
2020-08-13 11:59:20.9790,-0.0,-0.02,-0.05
2020-08-13 11:59:21.0780,-0.01,-0.02,0.02
2020-08-13 11:59:21.1770,-0.04,0.01,0.04
2020-08-13 11:59:21.2770,-0.02,-0.03,-0.0
2020-08-13 11:59:21.3760,-0.05,0.02,0.02
2020-08-13 11:59:21.4760,0.01,0.02,-0.0
2020-08-13 11:59:21.5750,-0.05,-0.01,0.0
2020-08-13 11:59:21.6740,-0.05,-0.1,-0.03
2020-08-13 11:59:21.7730,-0.19,-0.21,0.05
2020-08-13 11:59:21.8730,-0.42,-0.53,-0.02
2020-08-13 11:59:21.9720,-0.02,-0.14,0.15
2020-08-13 11:59:22.0710,-0.92,0.28,0.11
2020-08-13 11:59:22.1700,-0.61,0.11,0.0
2020-08-13 11:59:22.2690,-0.03,-0.22,0.06
2020-08-13 11:59:22.3690,0.19,-0.24,0.11
2020-08-13 11:59:22.4680,0.3,-0.29,-0.01
2020-08-13 11:59:22.5670,0.69,-0.11,-0.1
2020-08-13 11:59:22.6670,0.67,0.03,-0.0
2020-08-13 11:59:22.7660,-0.97,-0.08,-0.01
2020-08-13 11:59:22.8650,0.01,0.02,0.19
2020-08-13 11:59:22.9640,-0.12,0.03,-0.06
2020-08-13 11:59:23.0640,-0.12,0.03,0.04
2020-08-13 11:59:23.1630,0.0,-0.01,0.05
2020-08-13 11:59:23.2620,-0.01,-0.01,-0.03
2020-08-13 11:59:23.3610,0.02,-0.01,-0.01
2020-08-13 11:59:23.4610,-0.04,-0.0,0.07
2020-08-13 11:59:23.5600,-0.01,-0.01,-0.01
2020-08-13 11:59:23.6590,-0.05,-0.03,0.02
2020-08-13 11:59:23.7580,-0.08,-0.11,-0.04
2020-08-13 11:59:23.8570,-0.18,-0.3,-0.03
2020-08-13 11:59:23.9570,-0.5,-0.42,0.17
2020-08-13 11:59:24.0560,0.0,-0.07,0.13
2020-08-13 11:59:24.1550,-0.59,0.13,0.12
2020-08-13 11:59:24.2550,-0.28,-0.08,0.0
2020-08-13 11:59:24.3540,0.05,-0.21,-0.04
2020-08-13 11:59:24.4530,0.38,-0.37,0.03
2020-08-13 11:59:24.5530,0.52,-0.19,-0.03
2020-08-13 11:59:24.6520,0.66,-0.03,0.02
2020-08-13 11:59:24.7510,0.53,0.02,-0.03
2020-08-13 11:59:24.8500,-0.54,-0.42,-0.01
2020-08-13 11:59:24.9500,0.35,-0.13,0.15
2020-08-13 11:59:25.0490,-0.0,-0.02,-0.04
2020-08-13 11:59:25.1480,0.01,-0.01,-0.01
2020-08-13 11:59:25.2470,-0.03,0.0,0.02
2020-08-13 11:59:25.3470,0.02,-0.02,0.0
2020-08-13 11:59:25.4460,-0.04,-0.0,0.0
2020-08-13 11:59:25.5450,0.0,-0.0,-0.0
2020-08-13 11:59:25.6450,-0.11,-0.0,0.06
2020-08-13 11:59:25.7440,-0.1,-0.14,-0.06
2020-08-13 11:59:25.8430,-0.17,-0.26,0.02
2020-08-13 11:59:25.9420,-0.66,-0.42,0.11
2020-08-13 11:59:26.0420,0.01,-0.07,0.05
2020-08-13 11:59:26.1400,-0.44,0.11,0.17
2020-08-13 11:59:26.2400,-0.41,-0.07,-0.02
2020-08-13 11:59:26.3390,0.03,-0.24,-0.01
2020-08-13 11:59:26.4380,0.17,-0.23,0.02
2020-08-13 11:59:26.5380,0.39,-0.18,-0.0
2020-08-13 11:59:26.6370,0.74,-0.05,-0.04
2020-08-13 11:59:26.7360,0.84,0.05,0.04
2020-08-13 11:59:26.8360,-0.59,-0.36,-0.13
2020-08-13 11:59:26.9350,0.47,-0.24,0.03
2020-08-13 11:59:27.0340,0.16,-0.05,0.02
2020-08-13 11:59:27.1330,0.01,-0.0,-0.03
2020-08-13 11:59:27.2330,0.0,0.04,0.02
2020-08-13 11:59:27.3320,0.02,0.03,-0.02
2020-08-13 11:59:27.4310,-0.01,-0.01,-0.02
2020-08-13 11:59:27.5300,-0.01,-0.02,-0.01
2020-08-13 11:59:27.6290,-0.04,-0.03,0.01
2020-08-13 11:59:27.7290,-0.08,-0.08,0.01
2020-08-13 11:59:27.8280,-0.18,-0.24,0.04
2020-08-13 11:59:27.9270,-0.53,-0.87,-0.03
2020-08-13 11:59:28.0270,-0.06,0.07,0.07
2020-08-13 11:59:28.1260,-0.45,0.17,0.1
2020-08-13 11:59:28.2250,-0.3,-0.04,-0.01
2020-08-13 11:59:28.3240,0.11,-0.25,-0.0
2020-08-13 11:59:28.4240,0.23,-0.19,0.02
2020-08-13 11:59:28.5230,0.39,-0.18,0.01
2020-08-13 11:59:28.6220,0.49,-0.03,0.02
2020-08-13 11:59:28.7210,0.57,0.04,-0.01
2020-08-13 11:59:28.8210,-1.32,-0.22,-0.12
2020-08-13 11:59:28.9200,-0.0,0.01,0.34
2020-08-13 11:59:29.0200,-0.1,-0.01,-0.05
2020-08-13 11:59:29.1180,-0.03,-0.01,-0.02
2020-08-13 11:59:29.2180,0.02,0.0,0.02
2020-08-13 11:59:29.3170,-0.08,-0.0,-0.02
2020-08-13 11:59:29.4170,-0.04,0.01,0.01
2020-08-13 11:59:29.5150,-0.03,0.01,-0.01
2020-08-13 11:59:29.6150,-0.05,0.01,0.02
2020-08-13 11:59:29.7150,-0.02,0.01,-0.01
2020-08-13 11:59:29.8130,-0.05,-0.0,0.01
2020-08-13 11:59:29.9130,-0.03,-0.08,-0.04
2020-08-13 11:59:30.0120,-0.12,-0.37,-0.1
2020-08-13 11:59:30.1110,-0.06,-0.01,0.02
2020-08-13 11:59:30.2100,-0.68,0.05,0.12
2020-08-13 11:59:30.3100,-0.44,0.12,0.09
2020-08-13 11:59:30.4090,0.15,-0.15,0.0
2020-08-13 11:59:30.5080,0.59,-0.05,0.06
2020-08-13 11:59:30.6070,0.38,-0.06,-0.07
2020-08-13 11:59:30.7060,0.54,0.07,0.02
2020-08-13 11:59:30.8060,-0.38,-0.26,0.13
2020-08-13 11:59:30.9050,-0.11,0.09,0.06
2020-08-13 11:59:31.0050,-0.14,0.03,0.0
2020-08-13 11:59:31.1030,0.03,0.0,0.03
2020-08-13 11:59:31.2030,0.03,0.01,-0.05
2020-08-13 11:59:31.3020,0.02,0.0,-0.02
2020-08-13 11:59:31.4010,0.0,-0.02,-0.03
2020-08-13 11:59:31.5010,-0.02,-0.01,0.02
2020-08-13 11:59:31.6000,-0.0,0.01,-0.01
2020-08-13 11:59:31.7000,-0.07,0.01,0.01
2020-08-13 11:59:31.7980,0.01,0.0,0.01
2020-08-13 11:59:31.8990,-0.05,0.0,0.03
2020-08-13 11:59:31.9990,0.01,0.02,-0.02
2020-08-13 11:59:32.0960,-0.02,0.04,-0.0
